GyroX,GyroY,GyroZ,Thumb,Index,Middle,Ring,Pinky,Gesture
0,0,0,18489,24176,32173,28133,28840,0
0,0,0,17495,24081,32108,28161,28869,0
0,0,0,19458,24247,31978,28049,28754,0
0,0,0,20395,24318,31946,28022,28754,0
0,0,0,20676,24223,31849,27939,28754,0
0,0,0,21542,24129,31752,27966,28726,0
0,0,0,22335,24034,31624,27939,28640,0
0,0,0,21479,23940,31720,27939,28583,0
0,0,0,20157,23894,31720,28022,28669,0
0,0,0,20078,23940,31656,27966,28583,0
0,0,0,20019,23987,31593,27911,28583,0
0,0,0,20236,24034,31529,27939,28612,0
0,0,0,20176,24034,31593,27883,28527,0
0,0,0,20595,23940,31497,27856,28527,0
0,0,0,21312,23800,31465,27856,28527,0
0,0,0,21043,23777,31465,27856,28470,0
0,0,0,20415,23800,31465,27911,28583,0
0,0,0,20495,23754,31497,27773,28527,0
0,0,0,21043,23940,31402,27800,28555,0
0,0,0,21125,23940,31497,27800,28414,0
0,0,0,22687,23800,31402,27800,28385,0
0,0,0,23044,23754,31339,27800,28385,0
0,0,0,21125,23754,31276,27800,28470,0
0,0,0,19882,23707,31370,27773,28470,0
0,0,0,20275,23707,31370,27856,28612,0
0,0,0,20176,23684,31370,27911,28955,0
0,0,0,20275,23661,31370,27966,29187,0
0,0,0,20256,23661,31434,27994,29304,0
0,0,0,20256,23661,31465,28133,29421,0
0,0,0,21022,23847,31624,27994,29071,0
0,0,0,21375,24223,31881,27911,28840,0
0,0,0,21606,24462,31978,27800,28612,0
0,0,0,21989,24630,32140,27636,28470,0
0,0,0,22096,24606,32500,27636,28470,0
0,0,0,21796,24342,32238,27800,28470,0
0,0,0,21187,24176,32108,27856,28783,0
0,0,0,20879,24058,32010,28077,29245,0
0,0,0,20636,24034,32010,28357,29568,0
0,0,0,20879,23964,31978,28301,29274,0
0,0,0,21208,23847,31849,28245,29071,0
0,0,0,19999,23730,31817,28077,29071,0
0,0,0,20515,23569,31688,28077,28984,0
0,0,0,22665,23499,31529,27966,28783,0
0,0,0,23157,23569,31402,27800,28640,0
0,0,0,22754,23569,31402,27773,28583,0
0,0,0,22401,23569,31402,27745,28612,0
0,0,0,21733,23569,31276,27718,28498,0
0,0,0,19458,23638,31370,27745,28612,0
0,0,0,18308,23638,31339,27745,28640,0
0,0,0,18164,23707,31370,27800,28640,0
0,0,0,18022,23847,31370,27800,29274,0
0,0,0,18200,23870,31339,27800,29274,0
0,0,0,21479,23777,31276,27691,28984,0
0,0,0,23499,23707,31150,27636,29013,0
0,0,0,24510,23522,31213,27718,29071,0
0,0,0,24510,23431,31213,27800,29158,0
0,0,0,24848,23431,31056,27609,28840,0
0,0,0,23615,23661,31276,27663,28498,0
0,0,0,23022,23684,31307,27636,28640,0
0,0,0,22977,23894,31656,27636,28754,0
0,0,0,23431,24129,31720,27499,28385,0
0,0,0,22932,23940,31752,27636,28612,0
0,0,0,22887,24129,31849,27527,28498,0
0,0,0,23135,24342,31978,27364,28245,0
0,0,0,22932,24152,31849,27418,28329,0
0,0,0,22532,23870,31720,28105,28955,0
0,0,0,22357,23707,31624,28470,29479,0
0,0,0,22183,23661,31624,28612,29509,0
0,0,0,22248,23847,31720,28217,29071,0
0,0,0,22709,24152,31817,27718,28583,0
0,0,0,22510,24034,31720,27581,28555,0
0,0,0,23339,23870,31497,27609,28697,0
0,0,0,20315,23847,31465,27636,28612,0
0,0,0,19401,23824,31370,27663,28527,0
0,0,0,19155,23800,31339,27581,28442,0
0,0,0,23225,23661,31087,27472,28301,0
0,0,0,24702,23499,30994,27472,28301,0
0,0,0,24034,23431,31025,27418,28273,0
0,0,0,23157,23431,30900,27391,28161,0
0,0,0,22292,23431,30900,27391,28245,0
0,0,0,21043,23271,30931,27445,28555,0
0,0,0,18489,23225,30962,27691,28612,0
0,0,0,20256,23477,31213,27636,28527,0
0,0,0,20395,23615,31339,27691,28301,0
0,0,0,19535,23477,31025,27554,28217,0
0,0,0,20157,23271,30745,27554,28273,0
0,0,0,20676,23180,30745,27499,28301,0
0,0,0,20555,23203,30745,27472,28133,0
0,0,0,20737,23203,30715,27472,28245,0
0,0,0,20656,23271,30653,27445,28133,0
0,0,0,20555,23316,30807,27445,28161,0
0,0,0,20818,23477,31025,27391,27939,0
0,0,0,21395,24011,31593,27364,27939,0
0,0,0,21733,24081,31593,27256,27856,0
0,0,0,21229,23661,31244,27472,28555,0
0,0,0,21002,23546,31150,27445,28754,0
0,0,0,20940,23499,31056,27527,28984,0
0,0,0,21458,23615,31402,27609,28754,0
0,0,0,21989,23777,31307,27554,28726,0
0,0,0,21818,23661,31244,27828,28984,0
0,0,0,21479,23592,31339,28133,29216,0
0,0,0,21064,23615,31593,28697,29391,0
0,0,0,20981,23522,31465,28612,29333,0
0,0,0,21989,24129,31849,28357,28783,0
0,0,0,22488,24318,31785,28022,28470,0
0,0,0,22226,24176,31913,27718,28077,0
0,0,0,21796,23940,31624,27718,28077,0
0,0,0,21458,23661,31497,27828,28161,0
0,0,0,21064,23477,31561,28077,28697,0
0,0,0,20859,23431,31465,28301,29245,0
0,0,0,20920,23385,31339,28414,29216,0
0,0,0,20879,23431,31593,28105,28640,0
0,0,0,21563,23847,31978,27828,28022,0
0,0,0,22183,24129,31593,27472,27691,0
0,0,0,21924,23964,31339,27391,27691,0
0,0,0,21542,23684,31339,27581,27911,0
0,0,0,18987,23339,31307,27663,28077,0
0,0,0,17374,22977,31402,27828,28301,0
0,0,0,18022,22754,31307,27718,28245,0
0,0,0,19689,22955,31025,27499,27939,0
0,0,0,20636,23294,30900,27391,27745,0
0,0,0,21796,23592,30962,27283,27691,0
0,0,0,21989,23615,30869,27256,27718,0
0,0,0,22621,23431,30530,27202,27691,0
0,0,0,23022,23112,30499,27202,27718,0
0,0,0,21416,22910,30469,27175,27800,0
0,0,0,18617,22932,30530,27229,27718,0
0,0,0,17254,23022,30622,27202,27800,0
0,0,0,17084,23067,30561,27175,27609,0
0,0,0,16966,23090,30469,27202,27636,0
0,0,0,17547,23044,30499,27202,27636,0
0,0,0,19420,22955,30408,27095,27581,0
0,0,0,19612,22977,30347,27068,27554,0
0,0,0,17986,23022,30347,27041,27581,0
0,0,0,17254,23022,30377,27068,27609,0
0,0,0,16698,23044,30377,27095,27636,0
0,0,0,16483,23067,30408,27122,27636,0
0,0,0,16287,23044,30408,27041,27609,0
0,0,0,16287,23044,30377,27041,27499,0
0,0,0,20137,23044,30317,27041,27499,0
0,0,0,21796,23022,30347,27041,27609,0
0,0,0,22032,23203,30438,27364,27745,0
0,0,0,21208,23180,30561,27527,27856,0
0,0,0,21312,23271,30684,27256,27718,0
0,0,0,21839,23894,30962,27041,27499,0
0,0,0,22118,24105,31087,26935,27310,0
0,0,0,22665,24152,31025,26935,27310,0
0,0,0,22910,24152,31213,26855,27310,0
0,0,0,22709,23964,30715,26882,27364,0
0,0,0,20757,23569,30931,27041,27691,0
0,0,0,19863,22887,30931,27283,28022,0
0,0,0,19843,22754,30869,27256,28077,0
0,0,0,20475,22621,30776,27256,28133,0
0,0,0,22161,22798,30994,27148,27883,0
0,0,0,23615,23362,30838,27068,27636,0
0,0,0,23847,23522,30807,27015,27581,0
0,0,0,23362,23477,30745,26935,27527,0
0,0,0,23454,23684,30530,26829,27418,0
0,0,0,22955,23569,30408,26829,27499,0
0,0,0,21375,23316,30653,27472,29042,0
0,0,0,19155,23112,30591,27800,29274,0
0,0,0,16157,22843,30653,27773,29216,0
0,0,0,14444,22776,30530,27691,28840,0
0,0,0,14268,22776,30408,27527,28527,0
0,0,0,14137,22776,30347,27527,28498,0
0,0,0,16765,22843,30226,27364,28301,0
0,0,0,19382,23112,30256,27041,27800,0
0,0,0,21064,23294,30256,26961,27527,0
0,0,0,20981,23203,30015,26882,27472,0
0,0,0,21733,23112,30075,26829,27527,0
0,0,0,25093,23225,30347,26961,27527,0
0,0,0,25019,23180,30165,26961,27609,0
0,0,0,24414,23067,30105,26988,27911,0
0,0,0,24176,22977,29984,26935,27718,0
0,0,0,23964,23044,29955,26935,27636,0
0,0,0,20078,23385,30015,26829,27856,0
0,0,0,18581,23294,30075,26855,27718,0
0,0,0,18290,23248,29925,26802,27636,0
0,0,0,18272,23248,29925,26802,27581,0
0,0,0,18236,23225,29895,26749,27581,0
0,0,0,18004,23225,29925,26802,27554,0
0,0,0,15980,23044,30165,26829,27691,0
0,0,0,15335,22932,30045,26855,27745,0
0,0,0,15350,22887,30015,26776,27663,0
0,0,0,15350,22887,29925,26776,27609,0
0,0,0,15335,22910,29895,26749,27609,0
0,0,0,15584,22932,29984,26749,27609,0
0,0,0,17237,22977,30015,26776,27391,0
0,0,0,17357,22977,29925,26723,27800,0
0,0,0,17426,22999,29895,26829,28049,0
0,0,0,17357,22977,29865,26723,27856,0
0,0,0,17186,22977,29775,26723,27911,0
0,0,0,17443,22932,29775,26723,27745,0
0,0,0,17669,22798,29925,26723,27691,0
0,0,0,16189,22665,29984,26908,27691,0
0,0,0,15459,22466,29984,27148,27966,0
0,0,0,15490,22444,29865,26988,27856,0
0,0,0,16222,22599,29895,26961,27691,0
0,0,0,17118,22709,29746,26908,27828,0
0,0,0,18344,22932,29746,26776,27691,0
0,0,0,18783,23090,29835,26723,27472,0
0,0,0,18727,23090,29895,26723,27445,0
0,0,0,18912,23112,29925,26618,27310,0
0,0,0,19155,23112,29925,26592,27283,0
0,0,0,19080,23112,29925,26566,27310,0
0,0,0,19005,23112,29955,26513,27283,0
0,0,0,18875,23112,29984,26566,27256,0
0,0,0,18635,23044,29865,26487,27283,0
0,0,0,18562,23022,29865,26461,27202,0
0,0,0,18562,23022,29775,26487,27202,0
0,0,0,18562,23022,29775,26461,27148,0
0,0,0,18562,22955,29805,26487,27148,0
0,0,0,18508,22932,29686,26461,27202,0
0,0,0,18544,22955,29657,26461,27202,0
0,0,0,18508,22932,29686,26435,27095,0
0,0,0,18489,22932,29568,26513,27122,0
0,0,0,16949,22798,29805,26829,27609,0
0,0,0,16434,22643,29746,26882,27581,0
0,0,0,16417,22621,29627,26829,27445,0
0,0,0,16549,22576,29568,26618,27337,0
0,0,0,16765,22576,29509,26644,27364,0
0,0,0,17792,22576,29627,26592,27202,0
0,0,0,18709,22599,29538,26618,27202,0
0,0,0,18562,22621,29568,26513,27175,0
0,0,0,18581,22621,29686,26566,27148,0
0,0,0,18489,22665,29775,26435,27095,0
0,0,0,18489,22709,29805,26435,27068,0
0,0,0,18236,22621,29627,26435,27175,0
0,0,0,17986,22621,29775,26566,27966,0
0,0,0,18147,22665,29627,26409,27691,0
0,0,0,18562,23022,29865,26435,27418,0
0,0,0,18894,23339,29925,26409,27364,0
0,0,0,19573,23684,30195,26331,27202,0
0,0,0,19612,23615,30226,26435,27095,0
0,0,0,19174,23339,30165,26461,27041,0
0,0,0,18764,23044,29955,26697,27800,0
0,0,0,18672,22977,29775,26644,27609,0
0,0,0,18562,23022,29835,26618,27472,0
0,0,0,18435,22977,29984,26829,27527,0
0,0,0,18635,23112,30226,26961,27256,0
0,0,0,18617,23112,30015,26829,27122,0
0,0,0,18709,23022,29865,26749,27068,0
0,0,0,19080,22865,29865,26723,27095,0
0,0,0,18236,22576,29865,26935,27256,0
0,0,0,18057,22357,29805,27015,27148,0
0,0,0,18453,22444,29746,26882,27068,0
0,0,0,20636,23044,29925,26618,26961,0
0,0,0,19863,23203,29805,26566,26882,0
0,0,0,19689,23112,29835,26461,26855,0
0,0,0,19458,23112,29775,26409,26882,0
0,0,0,19458,23067,29716,26461,26776,0
0,0,0,19863,22977,29627,26461,26829,0
0,0,0,18949,22843,29538,26435,26855,0
0,0,0,18746,22776,29479,26487,26776,0
0,0,0,18820,22754,29538,26513,26802,0
0,0,0,19287,22754,29450,26435,26697,0
0,0,0,19766,22709,29391,26487,26749,0
0,0,0,19689,22731,29333,26409,26802,0
0,0,0,19516,22665,29333,26357,26749,0
0,0,0,19458,22709,29333,26435,26670,0
0,0,0,19382,22709,29333,26409,26697,0
0,0,0,18931,22687,29245,26435,26723,0
0,0,0,18380,22488,29274,26487,26749,0
0,0,0,18236,22444,29216,26461,26749,0
0,0,0,18236,22401,29216,26435,26749,0
0,0,0,18399,22401,29274,26409,26776,0
0,0,0,18453,22401,29216,26409,26723,0
0,0,0,18581,22401,29216,26409,26618,0
0,0,0,18801,22401,29158,26357,26723,0
0,0,0,20961,22621,29362,26383,26644,0
0,0,0,20879,22887,29391,26305,26723,0
0,0,0,20315,22865,29509,26357,26723,0
0,0,0,20315,22798,29450,26331,26618,0
0,0,0,20176,22754,29391,26305,26749,0
0,0,0,20078,22709,29333,26435,27148,0
0,0,0,19999,22687,29391,26513,27256,0
0,0,0,19999,22865,29657,26409,26961,0
0,0,0,21208,23569,30045,26305,26723,0
0,0,0,21796,23661,30015,26253,26723,0
0,0,0,21796,23477,30165,26228,26723,0
0,0,0,21375,23316,30165,26409,26697,0
0,0,0,20737,23112,30015,26435,26592,0
0,0,0,20256,22843,29775,26566,27256,0
0,0,0,20098,22798,29657,26749,27527,0
0,0,0,20019,22843,29716,26749,27337,0
0,0,0,21064,23454,30165,26539,26988,0
0,0,0,21500,23569,30165,26435,26829,0
0,0,0,21167,23294,30469,26409,26670,0
0,0,0,20757,23112,30377,26435,26566,0
0,0,0,20555,23067,30015,26409,26618,0
0,0,0,20355,23067,29925,26409,26618,0
0,0,0,20636,23022,29895,26331,26566,0
0,0,0,20475,22999,29895,26409,26618,0
0,0,0,20415,22977,29775,26409,26513,0
0,0,0,20355,23022,29805,26357,26487,0
0,0,0,20335,22977,29805,26331,26435,0
0,0,0,20236,22955,29835,26357,26487,0
0,0,0,19458,22955,29925,26618,26935,0
0,0,0,18857,22932,29984,26935,27581,0
0,0,0,18672,22887,29865,26829,27256,0
0,0,0,18727,22843,29865,26749,27095,0
0,0,0,18746,22843,29835,26670,27068,0
0,0,0,18746,22887,29775,26697,26988,0
0,0,0,18783,22843,29775,26618,26935,0
0,0,0,18820,22843,29775,26618,26882,0
0,0,0,18838,22843,29686,26592,26829,0
0,0,0,18820,22798,29627,26566,26935,0
0,0,0,18820,22798,29538,26566,26829,0
0,0,0,18764,22754,29479,26513,26829,0
0,0,0,18727,22776,29538,26566,26802,0
0,0,0,18709,22776,29479,26566,26697,0
0,0,0,18691,22754,29479,26592,26749,0
0,0,0,18691,22754,29538,26566,26829,0
0,0,0,18801,22754,29450,26539,26644,0
0,0,0,18820,22776,29538,26513,26723,0
0,0,0,18635,22731,29509,26513,26644,0
0,0,0,18635,22709,29509,26513,26670,0
0,0,0,18691,22754,29479,26487,26670,0
0,0,0,18801,22754,29657,26670,27068,0
0,0,0,18635,22709,29657,26988,27337,0
0,0,0,18783,22709,29568,26882,27122,0
0,0,0,19212,22599,29509,26776,27068,0
0,0,0,18801,22599,29538,26723,26961,0
0,0,0,18820,22665,29509,26723,26935,0
0,0,0,19268,22865,29509,26644,26802,0
0,0,0,19099,22887,29627,26513,26670,0
0,0,0,18912,22843,29509,26435,26670,0
0,0,0,19401,22776,29304,26435,26644,0
0,0,0,19080,22576,29274,26487,26618,0
0,0,0,19061,22576,29216,26461,26749,0
0,0,0,19785,22643,29274,26357,26618,0
0,0,0,19554,22776,29450,26357,26670,0
0,0,0,19268,22776,29450,26253,26592,0
0,0,0,19080,22754,29362,26279,26566,0
0,0,0,18968,22754,29304,26228,26566,0
0,0,0,18949,22754,29333,26202,26513,0
0,0,0,19174,22731,29274,26253,26513,0
0,0,0,19420,22665,29071,26150,26566,0
0,0,0,19382,22621,29100,26150,26566,0
0,0,0,19382,22576,29042,26176,26461,0
0,0,0,19382,22621,29100,26202,26409,0
0,0,0,19099,22665,29100,26202,26409,0
0,0,0,19005,22599,29129,26150,26644,0
0,0,0,19249,22665,29158,26305,27068,0
0,0,0,19118,22665,29216,26409,27364,0
0,0,0,19458,22776,29746,26409,26855,0
0,0,0,20236,23431,29746,26202,26723,0
0,0,0,20236,23339,29746,26150,26697,0
0,0,0,19785,23022,29686,26202,26618,0
0,0,0,19650,22865,29627,26357,26749,0
0,0,0,19497,22776,29657,26566,26776,0
0,0,0,19306,22776,29597,26487,26723,0
0,0,0,19174,22754,29627,26513,26618,0
0,0,0,18894,22709,29538,26513,26618,0
0,0,0,18857,22709,29509,26435,26618,0
0,0,0,19573,22599,29597,26487,26618,0
0,0,0,19960,22576,29686,26566,26618,0
0,0,0,19843,22554,29657,26513,26566,0
0,0,0,19999,22554,29657,26409,26513,0
0,0,0,20078,22665,29865,26305,26305,0
0,0,0,20535,22955,29775,26279,26253,0
0,0,0,21002,23112,29746,26150,26305,0
0,0,0,20636,22865,29746,26150,26228,0
0,0,0,20236,22754,29746,26253,26513,0
0,0,0,20078,22731,29568,26357,26644,0
0,0,0,19999,22687,29509,26228,26566,0
0,0,0,19999,22709,29509,26253,26461,0
0,0,0,20157,22709,29391,26150,26409,0
0,0,0,19999,22621,29509,26279,26461,0
0,0,0,20435,22510,29450,26305,26513,0
0,0,0,20859,22687,29333,26228,26435,0
0,0,0,20615,22776,29391,26099,26357,0
0,0,0,20415,22754,29333,26099,26305,0
0,0,0,20275,22731,29333,26124,26409,0
0,0,0,20157,22665,29391,26124,26409,0
0,0,0,19980,22665,29333,26073,26409,0
0,0,0,19785,22621,29333,26099,26331,0
0,0,0,18508,22599,29538,26022,26357,0
0,0,0,18399,22576,29450,25996,26357,0
0,0,0,18435,22599,29450,25945,26305,0
0,0,0,18508,22576,29391,25996,26279,0
0,0,0,18489,22532,29421,25920,26228,0
0,0,0,18453,22576,29391,25996,26253,0
0,0,0,18308,22554,29362,25920,26253,0
0,0,0,18075,22532,29391,25971,26253,0
0,0,0,17565,22532,29391,25971,26331,0
0,0,0,17426,22510,29362,25996,26253,0
0,0,0,17357,22532,29304,25971,26202,0
0,0,0,17323,22532,29304,25996,26228,0
0,0,0,17289,22488,29304,25996,26253,0
0,0,0,17722,22488,29274,25996,26279,0
0,0,0,20575,22532,29391,25996,26253,0
0,0,0,20098,22532,29274,26124,26305,0
0,0,0,19921,22510,29274,26099,26305,0
0,0,0,19766,22532,29245,26073,26357,0
0,0,0,19805,22532,29245,26073,26331,0
0,0,0,19689,22510,29187,26073,26253,0
0,0,0,20019,22776,29746,26409,26409,0
0,0,0,20236,23180,30408,26882,26882,0
0,0,0,17600,23894,31529,27609,27691,0
0,0,0,18894,23940,32435,28133,28049,0
0,0,0,19325,23917,32435,28385,28726,0
0,0,0,20575,23754,32435,28754,28840,0
0,0,0,20256,23615,32173,29274,28669,0
0,0,0,20636,23522,32043,29568,28583,0
0,0,0,20777,23522,32043,29509,28470,0
0,0,0,20899,23499,32108,29391,28357,0
0,0,0,20981,23477,31946,29304,28301,0
0,0,0,20818,23477,31946,29216,28245,0
0,0,0,20676,23431,31752,29042,28133,0
0,0,0,20595,23431,31624,28898,28161,0
0,0,0,20595,23408,31593,28840,28077,0
0,0,0,20636,23408,31561,28812,27994,0
0,0,0,20656,23362,31593,28754,27994,0
0,0,0,20615,23477,31497,28754,28049,0
0,0,0,20256,23569,31720,28583,27939,0
0,0,0,19863,23546,31593,28385,27828,0
0,0,0,19612,23615,31752,28385,27911,0
0,0,0,19155,23592,31913,28357,27800,0
0,0,0,19231,23546,31849,28301,27800,0
0,0,0,19287,23477,31720,28301,27800,0
0,0,0,19193,23431,31465,28301,27800,0
0,0,0,19155,23362,31370,28189,27745,0
0,0,0,18949,23316,31370,28161,27663,0
0,0,0,18746,23294,31119,28133,27718,0
0,0,0,18562,23225,31087,28049,27663,0
0,0,0,18344,23135,30994,27994,27691,0
0,0,0,18236,23203,31087,27994,27691,0
0,0,0,17933,23203,30962,27966,27636,0
0,0,0,17792,23135,30962,27994,27663,0
0,0,0,17722,23135,30962,27939,27609,0
0,0,0,17845,23112,30869,27911,27718,0
0,0,0,17774,23112,30838,27939,27636,0
0,0,0,17704,23090,30838,27856,27636,0
0,0,0,17669,23112,30776,27800,27609,0
0,0,0,17951,23067,30776,27800,27691,0
0,0,0,17845,23044,30745,27883,27800,0
0,0,0,17357,23022,30622,27911,27691,0
0,0,0,17306,22932,30286,27745,27499,0
0,0,0,17426,22932,30408,27663,27581,0
0,0,0,17547,22887,30438,27609,27499,0
0,0,0,17634,22932,30377,27691,27527,0
0,0,0,17478,22932,30347,27609,27527,0
0,0,0,17443,22910,30347,27581,27527,0
0,0,0,17426,22887,30195,27609,27418,0
0,0,0,17152,22955,30286,27663,27472,0
0,0,0,16831,23044,30408,27691,27581,0
0,0,0,16615,23090,30499,27718,27472,0
0,0,0,16532,23044,30499,27691,27445,0
0,0,0,16467,23044,30499,27663,27445,0
0,0,0,16352,23022,30408,27718,27499,0
0,0,0,16319,23022,30408,27691,27445,0
0,0,0,16417,23022,30499,27718,27391,0
0,0,0,16831,23067,30776,27800,27581,0
0,0,0,16781,23112,31119,27911,27773,0
0,0,0,16781,23135,31339,27939,27800,0
0,0,0,16748,23157,31402,27911,27800,0
0,0,0,16748,23203,31465,27939,27800,0
0,0,0,16632,23135,31213,27939,27718,0
0,0,0,16532,22977,30776,27828,27718,0
0,0,0,16665,22910,30653,27745,27691,0
0,0,0,16748,22910,30469,27691,27554,0
0,0,0,16815,22887,30408,27691,27499,0
0,0,0,18344,22865,30408,27581,27418,0
0,0,0,18727,22820,30347,27581,27337,0
0,0,0,18562,22776,30256,27499,27283,0
0,0,0,18362,22754,30165,27499,27256,0
0,0,0,18417,22731,30105,27499,27202,0
0,0,0,18290,22754,30135,27418,27256,0
0,0,0,18129,22709,30165,27445,27229,0
0,0,0,16254,22798,30408,27527,27283,0
0,0,0,16173,22887,30591,27581,27391,0
0,0,0,16109,22865,30499,27636,27364,0
0,0,0,16109,22865,30530,27663,27364,0
0,0,0,16093,22910,30591,27691,27391,0
0,0,0,16093,22776,30684,27718,27418,0
0,0,0,15996,22865,30591,27609,27310,0
0,0,0,15980,22865,30377,27581,27364,0
0,0,0,15932,22820,30408,27554,27283,0
0,0,0,16352,22798,30317,27609,27418,0
0,0,0,16898,22798,30226,27636,27391,0
0,0,0,16932,22798,30226,27636,27391,0
0,0,0,16467,22798,30015,27581,27310,0
0,0,0,16093,22798,29984,27527,27202,0
0,0,0,15964,22798,29984,27499,27229,0
0,0,0,15980,22776,29955,27499,27202,0
0,0,0,16549,22754,29865,27418,27095,0
0,0,0,18727,22687,30045,27445,27148,0
0,0,0,19497,22776,30226,27581,27202,0
0,0,0,18111,22932,30408,27581,27391,0
0,0,0,16932,22709,30226,27364,27148,0
0,0,0,17118,22643,30165,27202,27175,0
0,0,0,19554,22665,29984,27122,27095,0
0,0,0,20058,22754,30135,26988,27041,0
0,0,0,19689,22665,30105,26988,27015,0
0,0,0,19612,22687,29984,26882,26988,0
0,0,0,18635,22776,30347,26749,26961,0
0,0,0,17722,22776,30256,26644,26988,0
0,0,0,17289,22798,30256,26935,27828,0
0,0,0,15900,22709,30347,27418,28105,0
0,0,0,15288,22599,30226,27554,28385,0
0,0,0,15335,22576,30075,27391,28161,0
0,0,0,17169,22932,30530,26988,27068,0
0,0,0,18435,23385,30622,26618,26988,0
0,0,0,19325,23499,30622,26409,26749,0
0,0,0,19024,23431,30499,26228,26618,0
0,0,0,18931,23339,30499,26305,26644,0
0,0,0,19118,23339,30838,26228,26409,0
0,0,0,19099,23248,30684,26331,26305,0
0,0,0,18727,23157,30622,26305,26305,0
0,0,0,18200,23022,30622,26644,26882,0
0,0,0,18200,22999,30776,26723,26305,0
0,0,0,18581,23022,30869,26566,25742,0
0,0,0,18489,23044,30838,26618,25616,0
0,0,0,18417,23022,30807,26618,25742,0
0,0,0,17739,22955,31339,27773,27800,0
0,0,0,17565,22865,31307,28245,28840,0
0,0,0,17582,22865,31276,28301,28527,0
