GyroX,GyroY,GyroZ,Thumb,Index,Middle,Ring,Pinky,Gesture
0,0,0,34624,10963,11268,11255,29835,4
0,0,0,34982,10951,11255,11231,30226,4
0,0,0,34767,11012,11182,11280,29775,4
0,0,0,34874,10987,11219,11219,29686,4
0,0,0,35236,10975,11206,11280,29775,4
0,0,0,34839,10963,11206,11268,30286,4
0,0,0,34553,10963,11170,11255,29746,4
0,0,0,33956,10951,11170,11194,29686,4
0,0,0,33991,10963,11121,11268,29509,4
0,0,0,34839,10963,11219,11255,29509,4
0,0,0,35163,10975,11157,11231,29538,4
0,0,0,34874,10975,11170,11255,30105,4
0,0,0,34910,10915,11121,11255,29865,4
0,0,0,34874,10879,11048,11268,29686,4
0,0,0,34946,10915,11072,11170,29538,4
0,0,0,35018,10915,11060,11206,29450,4
0,0,0,35272,10879,11036,11206,29187,4
0,0,0,35345,10867,11036,11206,29042,4
0,0,0,35199,10915,11036,11231,29071,4
0,0,0,35055,10891,11036,11182,29274,4
0,0,0,35163,10915,11024,11304,29071,4
0,0,0,35127,10915,11072,11219,29216,4
0,0,0,34946,10879,11060,11268,29391,4
0,0,0,34946,10867,11072,11255,29479,4
0,0,0,34874,10927,11096,11280,29333,4
0,0,0,34839,10915,11060,11255,29362,4
0,0,0,34839,10879,11109,11255,29304,4
0,0,0,34839,10879,11072,11255,29391,4
0,0,0,34839,10939,11060,11255,29391,4
0,0,0,34803,10915,11121,11255,29333,4
0,0,0,34767,10963,11157,11379,29421,4
0,0,0,34839,10975,11170,11465,29274,4
0,0,0,34839,10963,11182,11515,29245,4
0,0,0,35127,11012,11206,11565,29100,4
0,0,0,35127,10975,11206,11553,29158,4
0,0,0,34839,10975,11206,11553,29216,4
0,0,0,34130,10963,11170,11603,29129,4
0,0,0,33714,10975,11170,11578,29216,4
0,0,0,33337,10963,11206,11578,29042,4
0,0,0,33303,10999,11206,11653,29042,4
0,0,0,33100,10999,11194,11603,29042,4
0,0,0,33134,11012,11206,11578,29042,4
0,0,0,32966,11012,11206,11603,29071,4
0,0,0,32932,11024,11206,11653,29100,4
0,0,0,33067,11012,11206,11653,28927,4
0,0,0,33033,10987,11170,11553,28840,4
0,0,0,33236,11024,11157,11653,28927,4
0,0,0,33236,11060,11170,11615,28984,4
0,0,0,33439,11012,11182,11590,28898,4
0,0,0,33817,11012,11194,11528,28955,4
0,0,0,33439,10999,11170,11553,28754,4
0,0,0,32075,11024,11182,11553,28955,4
0,0,0,30499,11024,11219,11553,28754,4
0,0,0,30226,11036,11206,11603,28527,4
0,0,0,30105,11012,11243,11640,28357,4
0,0,0,29984,11024,11219,11691,28161,4
0,0,0,29716,11024,11255,11716,28105,4
0,0,0,29333,11072,11219,11678,27911,4
0,0,0,28583,11036,11206,11716,27554,4
0,0,0,28273,11060,11255,11792,27364,4
0,0,0,28105,11024,11243,11855,27041,4
0,0,0,27800,11048,11206,11868,26988,4
0,0,0,27636,11060,11219,11868,26802,4
0,0,0,27527,11060,11219,11906,26644,4
0,0,0,27527,11231,11231,11766,26566,4
0,0,0,27609,11036,11255,11817,26513,4
0,0,0,27445,11048,11206,11766,26357,4
0,0,0,27391,11060,11219,11766,26228,4
0,0,0,27283,11084,11255,11754,26305,4
0,0,0,26935,11060,11219,11754,26047,4
0,0,0,26829,11060,11206,11779,25920,4
0,0,0,26935,11036,11182,11754,25793,4
0,0,0,27041,11084,11219,11766,25666,4
0,0,0,26802,11048,11255,11754,25591,4
0,0,0,27445,11060,11255,11792,25641,4
0,0,0,28022,11084,11268,11804,25691,4
0,0,0,27691,11060,11255,11830,25415,4
0,0,0,27175,11121,11243,11804,25093,4
0,0,0,26829,11121,11268,11804,24824,4
0,0,0,26935,11084,11280,11804,24678,4
0,0,0,27800,11109,11317,11804,24678,4
0,0,0,29391,11096,11304,11804,24970,4
0,0,0,30377,11121,11329,11817,25341,4
0,0,0,31849,11109,11268,11766,26435,4
0,0,0,32336,11157,11440,11855,27068,4
0,0,0,32369,11206,11578,12009,27283,4
0,0,0,32467,11268,11603,11996,27445,4
0,0,0,32402,11219,11628,12009,27337,4
0,0,0,32533,11255,11640,12009,27499,4
0,0,0,32435,11231,11766,11830,27337,4
0,0,0,32238,11255,11766,11766,27337,4
0,0,0,32140,11255,11754,11754,27283,4
0,0,0,32205,11182,11754,11703,27499,4
0,0,0,31913,11157,11678,11665,27939,4
0,0,0,31720,11121,11640,11615,27636,4
0,0,0,31529,11109,11553,11603,27256,4
0,0,0,31307,11072,11416,11565,27122,4
0,0,0,31213,11060,11317,11453,26988,4
0,0,0,31087,11060,11304,11465,26855,4
0,0,0,31244,11024,11304,11478,26935,4
0,0,0,32043,11048,11329,11416,27202,4
0,0,0,32966,11036,11354,11428,27691,4
0,0,0,33714,11231,11403,11416,28357,4
0,0,0,34165,11084,11403,11403,28812,4
0,0,0,34767,11060,11453,11428,29538,4
0,0,0,35127,11072,11465,11440,30015,4
0,0,0,35565,11109,11478,11403,30715,4
0,0,0,35972,11096,11453,11416,30962,4
0,0,0,35749,11060,11453,11428,30653,4
0,0,0,35127,11072,11428,11366,30226,4
0,0,0,34731,11060,11403,11354,29984,4
0,0,0,34553,11012,11379,11354,29895,4
0,0,0,34376,11036,11354,11354,29509,4
0,0,0,34271,11024,11354,11317,29274,4
0,0,0,34200,11012,11304,11304,29216,4
0,0,0,34130,10975,11268,11231,29042,4
0,0,0,33852,10963,11206,11182,28840,4
0,0,0,33817,10891,11072,11157,28812,4
0,0,0,33714,10867,11012,11145,28669,4
0,0,0,33679,10843,10963,11109,28640,4
0,0,0,33714,10879,10939,11121,28527,4
0,0,0,33611,10819,10963,11109,28498,4
0,0,0,33611,10819,10963,11109,28442,4
0,0,0,33611,10807,10927,11084,28470,4
0,0,0,33611,10831,10927,11096,28414,4
0,0,0,33611,10867,10951,11072,28385,4
0,0,0,33611,10843,10951,11072,28498,4
0,0,0,33645,10831,10963,11072,28442,4
0,0,0,33611,10819,10939,11109,28385,4
0,0,0,33611,10819,10927,11121,28414,4
0,0,0,33645,10819,10927,11109,28357,4
0,0,0,33645,10831,10963,11072,28555,4
0,0,0,33714,10867,10939,11157,28527,4
0,0,0,33679,10819,10963,11072,28385,4
0,0,0,33783,10819,10927,11121,28555,4
0,0,0,33852,10831,10951,11072,28583,4
0,0,0,33611,10843,10963,11084,28927,4
0,0,0,33576,10855,10975,11109,28840,4
0,0,0,33576,10855,11036,11121,29042,4
0,0,0,33576,10963,12112,11206,29304,4
0,0,0,33576,11048,12385,11329,29391,4
0,0,0,33439,11060,12596,11453,29538,4
0,0,0,33371,11280,12636,11478,29568,4
0,0,0,33371,11268,13594,11615,29775,4
0,0,0,33202,11317,13707,11665,29657,4
0,0,0,33168,11416,13806,11804,29568,4
0,0,0,33100,11503,13806,11817,29538,4
0,0,0,33033,11553,13849,11779,29627,4
0,0,0,32966,11603,13821,11754,29509,4
0,0,0,32899,11603,13735,11855,29538,4
0,0,0,32899,11603,13735,11855,29479,4
0,0,0,32832,11603,13412,11855,29509,4
0,0,0,32765,11628,13315,11817,29568,4
0,0,0,32765,11603,13232,11830,29421,4
0,0,0,32732,11578,13232,11817,29391,4
0,0,0,32765,11603,13122,11779,29509,4
0,0,0,32799,11615,12649,11741,29627,4
0,0,0,32899,11578,12596,11741,29746,4
0,0,0,32899,11528,12543,11691,29597,4
0,0,0,32799,11515,12424,11728,29627,4
0,0,0,32832,11503,12424,11754,29538,4
0,0,0,32765,11503,12293,11716,29568,4
0,0,0,32732,11440,12034,11603,29274,4
0,0,0,32765,11440,12009,11565,29187,4
0,0,0,32866,11416,12009,11553,29216,4
0,0,0,33168,11379,11919,11528,29391,4
0,0,0,33371,11403,11779,11490,29568,4
0,0,0,33508,11366,11779,11465,29746,4
0,0,0,33783,11416,11766,11528,29955,4
0,0,0,33817,11304,11754,11503,29955,4
0,0,0,33852,11255,11603,11503,29627,4
0,0,0,33611,11255,11453,11490,29538,4
0,0,0,33645,11255,11403,11515,29450,4
0,0,0,33576,11255,11403,11490,29509,4
0,0,0,33576,11304,11403,11540,29479,4
0,0,0,33439,11317,11503,11540,29538,4
0,0,0,33303,11366,11716,11565,29686,4
0,0,0,33202,11403,11754,11603,29627,4
0,0,0,33269,11453,11817,11703,29865,4
0,0,0,33269,11465,12021,11754,29775,4
0,0,0,33168,11465,13315,11653,29865,4
0,0,0,33168,11503,14268,11615,29805,4
0,0,0,33100,11515,14982,11565,29895,4
0,0,0,33067,11565,14861,11615,29805,4
0,0,0,33067,11603,14741,11665,29775,4
0,0,0,33033,11615,14666,11553,29657,4
0,0,0,33067,11653,14444,11565,29925,4
0,0,0,32932,11615,14151,11615,29895,4
0,0,0,32932,11615,14079,11615,29984,4
0,0,0,32932,11653,14282,11703,29895,4
0,0,0,32999,11665,14370,11603,29865,4
0,0,0,32999,11716,14922,11728,29775,4
0,0,0,32966,11792,15663,11970,29805,4
0,0,0,32966,11855,15773,12215,29686,4
0,0,0,32899,11932,15647,12424,29657,4
0,0,0,32899,11906,15553,12372,29746,4
0,0,0,32899,11957,15459,12385,29686,4
0,0,0,32899,11957,15288,12385,29746,4
0,0,0,32899,11957,15089,12346,29686,4
0,0,0,32932,11957,14982,12451,29895,4
0,0,0,33033,11957,14922,12346,29984,4
0,0,0,33887,11944,14741,12320,30377,4
0,0,0,34482,11957,14503,12372,30622,4
0,0,0,34660,11919,14385,12372,30653,4
0,0,0,35199,11893,13964,12411,30469,4
0,0,0,35712,11766,13357,12477,30469,4
0,0,0,36272,11779,12703,12663,30469,4
0,0,0,36047,11754,12320,12703,30347,4
0,0,0,36010,11665,12060,12583,30105,4
0,0,0,35898,11653,11970,12636,29955,4
0,0,0,35787,11703,11970,12610,29925,4
0,0,0,35528,11653,11868,11957,29657,4
0,0,0,35309,11628,11741,11628,29509,4
0,0,0,35091,11653,11716,11515,29391,4
0,0,0,34767,11603,11716,11503,29686,4
0,0,0,34376,11453,11779,11553,29835,4
0,0,0,33991,11268,11716,11515,29925,4
0,0,0,33542,11084,11478,11329,29805,4
0,0,0,33439,11012,11317,11317,29716,4
0,0,0,33474,10927,11268,11268,29450,4
0,0,0,33508,10939,11243,11304,29333,4
0,0,0,33371,10879,11170,11219,29391,4
0,0,0,33337,10915,11182,11255,29274,4
0,0,0,33303,10915,11170,11255,29187,4
0,0,0,33371,10879,11157,11268,29158,4
0,0,0,33371,10915,11157,11354,29158,4
0,0,0,33405,10915,11157,11255,29042,4
0,0,0,33439,10927,11170,11255,29042,4
0,0,0,33439,10939,11157,11268,29071,4
0,0,0,33303,10963,11109,11206,29129,4
0,0,0,33508,10963,11109,11354,28869,4
0,0,0,33474,11170,11121,11219,28812,4
0,0,0,33611,10975,11121,11268,28927,4
0,0,0,33714,10927,11121,11206,29042,4
0,0,0,33852,10915,11121,11268,29100,4
0,0,0,33748,10891,11084,11157,28984,4
0,0,0,33887,10879,11072,11145,29216,4
0,0,0,33852,10843,11072,11157,29274,4
0,0,0,33748,10831,11036,11157,29304,4
0,0,0,33714,10879,11048,11170,29216,4
0,0,0,33748,10903,11060,11255,29333,4
0,0,0,33748,10879,11024,11121,29274,4
0,0,0,33748,10891,11024,11157,29274,4
0,0,0,33714,10891,11060,11133,29333,4
0,0,0,33714,10915,11133,11133,29333,4
0,0,0,33679,10963,11157,11268,29245,4
0,0,0,33542,10975,11145,11255,29071,4
0,0,0,33067,10963,11121,11182,28869,4
0,0,0,33202,10963,11133,11109,28927,4
0,0,0,33168,10975,11157,11206,28812,4
0,0,0,32932,10975,11145,11157,29013,4
0,0,0,32633,11060,11133,11255,29042,4
0,0,0,32566,10975,11170,11157,29187,4
0,0,0,32205,10987,11133,11157,28984,4
0,0,0,32140,10975,11072,11121,29245,4
0,0,0,31849,10987,11060,11182,29274,4
0,0,0,31624,10963,11012,11084,28869,4
0,0,0,31688,11194,11060,11121,28726,4
0,0,0,31656,10999,11024,11157,28812,4
0,0,0,31593,10975,11060,11133,28726,4
0,0,0,31656,11012,11060,11206,28869,4
0,0,0,31785,10963,11072,11157,29100,4
0,0,0,31688,10963,11121,11268,29042,4
0,0,0,31913,10963,11121,11170,28984,4
0,0,0,32402,10999,11121,11255,28754,4
0,0,0,32369,10963,11157,11206,28612,4
0,0,0,32633,10975,11109,11219,28498,4
0,0,0,33033,10987,11157,11354,28812,4
0,0,0,33337,10963,11133,11453,28955,4
0,0,0,33439,10963,11121,11465,28754,4
0,0,0,33714,10987,11157,11553,28726,4
0,0,0,33921,10975,11255,11665,28697,4
0,0,0,33991,11024,11528,11754,28697,4
0,0,0,33852,11024,11716,11868,28640,4
0,0,0,33714,11109,12163,12073,28555,4
0,0,0,33576,11206,12477,12424,28612,4
0,0,0,33474,11304,12851,12851,28612,4
0,0,0,33337,11465,13246,12797,28498,4
0,0,0,33202,11465,13287,12636,28583,4
0,0,0,33067,11503,13218,12451,28754,4
0,0,0,33033,11465,12918,12228,28754,4
0,0,0,32866,11366,12636,12021,28955,4
0,0,0,32566,11304,12385,11906,29245,4
0,0,0,32500,11304,12320,11919,29391,4
0,0,0,32435,11231,12267,11855,29479,4
0,0,0,32500,11206,12293,11830,29538,4
0,0,0,32500,11206,12346,11817,29568,4
0,0,0,32765,11206,12424,11855,29450,4
0,0,0,32899,11231,12797,11817,29304,4
0,0,0,33168,11157,12743,11766,29333,4
0,0,0,33474,11084,12810,11665,29187,4
0,0,0,33405,11060,12716,11603,29158,4
0,0,0,33439,11036,12570,11515,29158,4
0,0,0,33508,11012,12346,11465,29071,4
0,0,0,34026,10987,11957,11478,29216,4
0,0,0,34412,10951,11716,11515,29158,4
0,0,0,34306,10963,11703,11465,28927,4
0,0,0,34271,10975,11703,11503,28869,4
0,0,0,34165,10963,11703,11515,28840,4
0,0,0,34200,10987,11653,11515,28697,4
0,0,0,34130,11012,11653,11540,28754,4
0,0,0,33991,10963,11716,11453,28583,4
0,0,0,33921,10927,11528,11503,28329,4
0,0,0,33714,10915,11503,11453,28161,4
0,0,0,33887,10963,11503,11515,28077,4
0,0,0,34271,10975,11515,11590,28022,4
0,0,0,34341,10975,11528,11703,28133,4
0,0,0,33748,11231,11515,11804,27966,4
0,0,0,33100,11024,11515,12009,27472,4
0,0,0,32799,11012,11515,12073,27015,4
0,0,0,32336,11024,11528,12163,26305,4
0,0,0,31785,11060,11540,12150,25894,4
0,0,0,31244,11060,11503,12073,25142,4
0,0,0,30776,11060,11503,12073,24438,4
0,0,0,28812,11084,11503,12073,23499,4
0,0,0,28697,11036,11453,12073,23362,4
0,0,0,29391,11060,11354,11932,23203,4
0,0,0,29245,10987,11304,11842,23135,4
0,0,0,28133,10987,11304,11842,22709,4
0,0,0,27122,11012,11317,11766,22510,4
0,0,0,26176,10951,11354,11804,22576,4
0,0,0,25971,11024,11354,11728,22423,4
0,0,0,26228,10975,11329,11703,22621,4
0,0,0,26670,10963,11317,11628,22488,4
0,0,0,26961,10963,11317,11628,22754,4
0,0,0,27418,10975,11341,11565,23022,4
0,0,0,27527,10963,11317,11528,23112,4
0,0,0,27581,10975,11304,11416,23339,4
0,0,0,27718,11012,11292,11354,23499,4
0,0,0,27636,11012,11304,11268,23477,4
0,0,0,27883,11012,11304,11268,23522,4
0,0,0,28385,11012,11280,11268,23800,4
0,0,0,28726,11012,11231,11255,23684,4
0,0,0,28840,11012,11182,11304,23661,4
0,0,0,29158,11012,11109,11255,23592,4
0,0,0,29100,10963,11072,11255,23592,4
0,0,0,29158,10939,11060,11219,23431,4
0,0,0,29304,10939,11012,11231,23477,4
0,0,0,29304,10915,11012,11219,23615,4
0,0,0,29216,10963,10975,11231,23477,4
0,0,0,29304,10915,10963,11182,23431,4
0,0,0,29479,10915,10963,11182,23569,4
0,0,0,29450,10939,10915,11231,24486,4
0,0,0,29391,10915,10963,11219,25390,4
0,0,0,28927,10915,10999,11317,25540,4
0,0,0,28726,10915,11024,11317,25365,4
0,0,0,28697,10915,11012,11354,25118,4
0,0,0,28640,10915,10963,11354,24897,4
0,0,0,28726,11170,11255,11503,25019,4
0,0,0,28840,10975,11317,11603,24995,4
0,0,0,28955,10987,11465,11603,24897,4
0,0,0,28927,11024,12073,11728,24848,4
0,0,0,29013,11206,13343,11906,24702,4
0,0,0,29071,11304,13978,12306,24873,4
0,0,0,29071,11453,14195,12490,25019,4
0,0,0,29042,11403,14137,12477,24946,4
0,0,0,28927,11366,13906,12398,25044,4
0,0,0,28927,11354,13566,12241,25093,4
0,0,0,28984,11317,13205,12124,25291,4
0,0,0,28955,11231,12864,11957,25490,4
0,0,0,28869,11170,12583,11779,25415,4
0,0,0,28754,11206,12543,11665,26150,4
0,0,0,28612,11182,12543,11678,26670,4
0,0,0,28498,11182,12490,11703,26357,4
0,0,0,29333,11182,12424,11678,26935,4
0,0,0,30900,11182,12438,11665,27994,4
0,0,0,32566,11182,12385,11628,28898,4
0,0,0,33439,11109,12176,11665,29013,4
0,0,0,33405,11121,11970,11716,28984,4
0,0,0,32966,11060,11665,11716,28840,4
0,0,0,32140,11048,11428,11741,28955,4
0,0,0,31946,10975,11304,11716,28812,4
0,0,0,31785,10927,11304,11691,28754,4
0,0,0,31624,10939,11317,11703,28498,4
0,0,0,31593,10915,11317,11653,28301,4
0,0,0,31402,10891,11231,11678,28133,4
0,0,0,31370,10879,11255,11678,28022,4
0,0,0,31465,11133,11243,11653,28022,4
0,0,0,31593,10879,11255,11628,28049,4
0,0,0,31593,10927,11304,11653,27966,4
0,0,0,31688,10927,11354,11653,27609,4
0,0,0,31785,10927,11366,11678,27527,4
0,0,0,31785,10927,11366,11678,27445,4
0,0,0,31720,10939,11329,11640,27391,4
0,0,0,31978,10939,11317,11565,27202,4
0,0,0,32108,10963,11317,11465,26882,4
0,0,0,32369,10927,11231,11416,26461,4
0,0,0,32238,10927,11206,11366,26228,4
0,0,0,32140,10951,11194,11317,26150,4
0,0,0,32140,10927,11133,11329,25945,4
0,0,0,32173,10915,11109,11379,25666,4
0,0,0,32173,10867,11109,11379,25490,4
0,0,0,31817,10891,11072,11292,25390,4
0,0,0,31656,10879,11072,11268,25591,4
0,0,0,31497,10891,11060,11317,25490,4
0,0,0,31244,10927,11121,11304,25390,4
0,0,0,31307,10927,11048,11304,25216,4
0,0,0,31276,10903,11060,11268,25192,4
0,0,0,31339,10927,10987,11231,25118,4
0,0,0,31370,10927,10975,11170,24995,4
0,0,0,31181,10951,10999,11255,24873,4
0,0,0,31339,10975,11060,11231,24995,4
0,0,0,31402,10975,11206,11268,25044,4
0,0,0,31402,11060,11317,11304,24970,4
0,0,0,31339,11109,11391,11366,24824,4
0,0,0,31370,11109,11490,11379,24921,4
0,0,0,31529,11170,11528,11329,25044,4
0,0,0,31624,11268,12346,11354,25093,4
0,0,0,31497,11354,12596,11354,24995,4
0,0,0,31497,11317,12543,11366,25019,4
0,0,0,31624,11317,12424,11416,25142,4
0,0,0,31465,11317,12215,11428,25216,4
0,0,0,31434,11304,12124,11379,25142,4
0,0,0,31497,11268,12163,11478,25192,4
0,0,0,31593,11255,12112,11478,25192,4
0,0,0,31465,11219,12163,11453,25167,4
0,0,0,31402,11219,12124,11503,25167,4
0,0,0,31339,11206,12124,11478,25093,4
0,0,0,31213,11170,12112,11453,25019,4
0,0,0,31025,11170,12060,11503,25019,4
0,0,0,30931,11182,12099,11465,24946,4
0,0,0,30869,11170,12060,11465,25019,4
0,0,0,30869,11157,12073,11515,25068,4
0,0,0,30869,11170,12060,11453,24995,4
0,0,0,30869,11133,11830,11453,25093,4
0,0,0,30622,11121,11665,11403,25093,4
0,0,0,30776,11072,11503,11366,24995,4
0,0,0,30653,11060,11465,11329,24946,4
0,0,0,30715,11036,11465,11304,24897,4
0,0,0,30653,11024,11453,11268,25093,4
0,0,0,30684,11012,11354,11206,25241,4
0,0,0,30591,10975,11292,11170,25216,4
0,0,0,30591,10963,11182,11109,25341,4
0,0,0,30622,10915,11170,11060,25490,4
0,0,0,30591,10915,11109,11024,25996,4
0,0,0,30591,10879,11084,11024,26202,4
0,0,0,30591,10879,11109,11072,25616,4
0,0,0,30622,10915,11121,11109,25291,4
0,0,0,30745,10891,11231,11060,25440,4
0,0,0,31593,10903,11268,11084,25793,4
0,0,0,31785,10879,11317,11060,26022,4
0,0,0,31978,10879,11255,11084,26305,4
0,0,0,32173,10879,11255,11109,26513,4
0,0,0,32173,10927,11255,11109,26908,4
0,0,0,32173,10891,11243,11109,26882,4
0,0,0,32173,10879,11243,11121,26776,4
0,0,0,32369,10879,11231,11145,26566,4
0,0,0,32238,10819,11255,11157,26357,4
0,0,0,32500,10819,11268,11133,25945,4
0,0,0,32633,10783,11182,11109,25365,4
0,0,0,32633,10867,11121,11133,25044,4
0,0,0,32699,10819,10987,11096,24558,4
0,0,0,32966,10783,10975,11109,24318,4
0,0,0,32899,10783,10927,11109,24366,4
0,0,0,32500,10819,10927,11084,24534,4
0,0,0,32402,10867,10915,11109,24654,4
0,0,0,32238,10819,10987,11121,24630,4
0,0,0,32500,10867,10963,11255,24995,4
0,0,0,32566,10855,11012,11528,25093,4
0,0,0,32566,10867,11060,11640,25192,4
0,0,0,32500,10843,11060,11766,25216,4
0,0,0,32500,10879,11317,11830,25266,4
0,0,0,32533,10963,12009,11830,25341,4
0,0,0,32369,11157,12034,11779,25390,4
0,0,0,32369,11379,11919,11716,25515,4
0,0,0,32075,11503,11653,11665,25465,4
0,0,0,31785,11453,11478,11478,25440,4
0,0,0,31593,11428,11379,11416,25291,4
0,0,0,31434,11060,11268,11379,25192,4
0,0,0,31593,10939,11219,11379,25142,4
0,0,0,31529,10843,11219,11366,25068,4
0,0,0,31339,10843,11182,11354,25044,4
0,0,0,31213,10831,11121,11304,24775,4
0,0,0,31276,10843,11145,11280,24751,4
0,0,0,31213,10831,11109,11231,24824,4
0,0,0,31150,10843,11133,11170,24630,4
0,0,0,31119,10831,11121,11170,24678,4
0,0,0,31087,10819,11084,11157,24606,4
0,0,0,30962,10819,11109,11170,24414,4
0,0,0,30931,10855,11121,11157,24534,4
0,0,0,30962,10843,11133,11170,24271,4
0,0,0,30900,10843,11133,11182,24176,4
0,0,0,30807,10843,11109,11182,24129,4
0,0,0,30745,10879,11109,11157,23870,4
0,0,0,30776,10951,11145,11304,23870,4
0,0,0,30622,10963,11157,11317,23894,4
0,0,0,30591,10915,11109,11157,24152,4
0,0,0,30622,10903,11109,11206,24438,4
0,0,0,30684,10831,11109,11206,24606,4
0,0,0,30591,10855,11121,11206,24366,4
0,0,0,30561,10867,11096,11182,24414,4
0,0,0,30591,10867,11084,11182,24414,4
0,0,0,30591,10867,11133,11255,24318,4
0,0,0,30499,10879,11182,11231,24294,4
0,0,0,30530,10879,11219,11219,24486,4
0,0,0,30469,10915,11317,11280,24414,4
0,0,0,30499,10963,12112,11354,24438,4
0,0,0,30499,11012,13260,11453,24414,4
0,0,0,30286,11036,13218,11565,24438,4
0,0,0,30226,11012,12228,11515,24390,4
0,0,0,30165,10987,11868,11453,24318,4
0,0,0,30105,10963,11754,11416,24223,4
0,0,0,30165,10963,11830,11403,24247,4
0,0,0,30045,10951,11855,11366,25216,4
0,0,0,29042,10951,11855,11403,27554,4
0,0,0,28612,10951,11906,11366,28049,4
0,0,0,28470,10963,11970,11379,27828,4
0,0,0,28754,10951,12034,11366,27800,4
0,0,0,29042,10987,12112,11403,27609,4
0,0,0,29657,10987,12163,11416,27636,4
0,0,0,30256,10963,12320,11453,27663,4
0,0,0,30838,10963,12320,11503,27773,4
0,0,0,33508,10975,12293,11565,28498,4
0,0,0,33956,10987,12372,11653,28527,4
0,0,0,33576,11012,12060,11665,28077,4
0,0,0,32271,10963,11919,11716,27015,4
0,0,0,30530,10975,11703,11615,26855,4
0,0,0,31213,10975,11403,11565,26644,4
0,0,0,34376,10975,11428,11628,28301,4
0,0,0,35749,10963,11453,11528,29421,4
0,0,0,34982,10963,11354,11528,28869,4
0,0,0,34660,10891,11341,11453,28697,4
0,0,0,34518,10867,11268,11317,28697,4
0,0,0,34341,10867,11206,11304,28612,4
0,0,0,34341,10951,11317,11403,28726,4
0,0,0,34553,10939,11403,11403,28812,4
0,0,0,34553,10891,11304,11440,28984,4
0,0,0,34518,10867,11317,11453,28697,4
0,0,0,34553,10879,11304,11366,28385,4
0,0,0,34589,10867,11219,11403,28470,4
0,0,0,34271,10819,11206,11379,28470,4
0,0,0,34130,10831,11255,11403,28357,4
0,0,0,33921,10807,11206,11354,28245,4
0,0,0,34060,10831,11231,11391,28049,4
0,0,0,34130,10831,11255,11354,28022,4
0,0,0,33887,10831,11231,11366,28022,4
0,0,0,33887,10855,11206,11329,28022,4
0,0,0,34130,10879,11170,11304,27828,4
0,0,0,34271,10867,11109,11268,27691,4
0,0,0,34341,11157,11072,11329,27636,4
0,0,0,33921,10879,11012,11206,27718,4
0,0,0,33645,10879,11036,11255,28022,4
0,0,0,33439,10915,10975,11170,28077,4
0,0,0,33439,10915,10963,11157,28105,4
0,0,0,33100,10927,10915,11170,27911,4
0,0,0,33236,10891,10951,11170,28189,4
0,0,0,33783,10891,10999,11182,28927,4
0,0,0,33576,10879,10963,11194,28869,4
0,0,0,33474,10831,10951,11121,28927,4
0,0,0,33337,10867,10987,11121,29158,4
0,0,0,33576,10855,10999,11121,28955,4
0,0,0,33542,10819,10987,11121,28840,4
0,0,0,33508,10867,10975,11084,28840,4
0,0,0,33474,10879,11012,11109,28812,4
0,0,0,33508,10891,11012,11109,28726,4
0,0,0,33542,10879,11060,11157,28697,4
0,0,0,33202,10891,11036,11121,28955,4
0,0,0,33067,10879,11084,11109,28869,4
0,0,0,33067,10879,11060,11121,28840,4
0,0,0,33067,10879,11060,11133,28869,4
0,0,0,33033,10879,11096,11109,28927,4
0,0,0,33033,10915,11109,11109,29071,4
0,0,0,32899,10879,11145,11133,28840,4
0,0,0,32932,10891,11157,11084,28783,4
0,0,0,32666,10915,11133,11157,28754,4
0,0,0,32566,10879,11145,11133,28697,4
0,0,0,32666,10879,11255,11109,28583,4
0,0,0,32599,10927,11578,11157,28470,4
0,0,0,32533,10915,11565,11206,28301,4
0,0,0,32108,10927,11453,11354,27911,4
0,0,0,32238,10963,11354,11565,27527,4
0,0,0,32205,10927,11304,11453,27337,4
0,0,0,32303,10915,11255,11317,27175,4
0,0,0,32765,10879,11206,11329,26882,4
0,0,0,32866,10927,11182,11329,26908,4
0,0,0,32699,10915,11145,11317,26749,4
0,0,0,32799,10867,11109,11268,26697,4
0,0,0,32765,10819,11096,11280,26618,4
0,0,0,32435,10843,11084,11280,26618,4
0,0,0,32500,10843,11109,11317,26539,4
0,0,0,32566,10867,11109,11317,26513,4
0,0,0,32633,10819,11060,11280,26644,4
0,0,0,32633,10831,11121,11304,26566,4
0,0,0,32500,10831,11084,11255,26618,4
0,0,0,32500,10855,11109,11304,26644,4
0,0,0,32500,10867,11109,11304,26592,4
0,0,0,32402,10831,11121,11304,26513,4
0,0,0,32566,10855,11109,11280,26435,4
0,0,0,32402,10879,11121,11317,26383,4
0,0,0,32369,10867,11133,11304,26305,4
0,0,0,32500,10879,11157,11304,26305,4
0,0,0,32799,10891,11280,11366,26331,4
0,0,0,32932,10903,11304,11354,26305,4
0,0,0,32832,10867,11428,11416,26305,4
0,0,0,32533,10963,12009,11403,26618,4
0,0,0,32303,11060,12346,11440,26618,4
0,0,0,32043,11231,14079,11453,27095,4
0,0,0,31913,11354,16336,11653,27229,4
0,0,0,31913,11379,16352,11703,27911,4
0,0,0,31497,11182,15211,11665,28357,4
0,0,0,31213,11072,14592,11653,28245,4
0,0,0,30962,11036,14195,11603,28329,4
0,0,0,31025,11060,13992,11553,28273,4
0,0,0,30994,11036,13792,11565,28161,4
0,0,0,30869,11024,13287,11465,27828,4
0,0,0,30838,11012,12891,11416,27828,4
0,0,0,30869,11012,12743,11403,27745,4
0,0,0,30869,11012,12690,11403,27966,4
0,0,0,30931,10975,12490,11366,28049,4
0,0,0,30962,10975,12596,11403,27745,4
0,0,0,30776,10927,12543,11416,27691,4
0,0,0,30622,10843,12267,11366,27527,4
0,0,0,30962,10867,12009,11280,27041,4
0,0,0,31150,10867,11957,11268,26749,4
0,0,0,31339,10867,11804,11231,26566,4
0,0,0,31370,10819,11754,11231,26435,4
0,0,0,31402,11121,11565,11219,26357,4
0,0,0,31370,10831,11255,11255,26383,4
0,0,0,31339,10855,11206,11243,26228,4
0,0,0,31244,10843,11170,11231,26099,4
0,0,0,31339,10843,11231,11255,26047,4
0,0,0,31213,10879,11255,11255,26099,4
0,0,0,31213,10879,11341,11255,26099,4
0,0,0,31849,10975,11268,11255,25894,4
0,0,0,32402,10879,11121,11170,25742,4
0,0,0,32402,10831,11036,11157,25641,4
0,0,0,32205,10819,11012,11121,25616,4
0,0,0,32140,10819,10951,11072,25415,4
0,0,0,31946,10831,10963,11109,25390,4
0,0,0,31913,10783,10951,11072,25540,4
0,0,0,32140,10819,10963,11060,25616,4
0,0,0,32238,10819,10987,11072,25591,4
0,0,0,31785,10783,10975,11060,25996,4
0,0,0,31624,10831,11012,11024,26305,4
0,0,0,31593,10819,11060,11024,26435,4
0,0,0,31720,10819,11084,11060,26253,4
0,0,0,32238,10819,11121,11060,26409,4
0,0,0,31946,11084,11121,11084,26331,4
0,0,0,31849,10831,11121,11072,26331,4
0,0,0,31785,10843,11133,11060,26253,4
0,0,0,31946,10819,11121,11072,26435,4
0,0,0,32238,11109,11194,11060,26882,4
0,0,0,33033,11109,11170,11170,27691,4
0,0,0,33303,10831,11145,11219,27911,4
0,0,0,33439,10843,11133,11219,27828,4
0,0,0,33439,10831,11157,11243,27911,4
0,0,0,33303,11133,11182,11219,27691,4
0,0,0,33405,10867,11170,11255,27663,4
0,0,0,33645,10867,11206,11243,27636,4
0,0,0,33645,10855,11182,11255,27554,4
0,0,0,33439,10831,11206,11280,27499,4
0,0,0,33371,10891,11182,11268,27391,4
0,0,0,33236,10879,11255,11206,27283,4
0,0,0,32999,10867,11170,11231,27229,4
0,0,0,32899,10867,11157,11182,27256,4
0,0,0,32932,10891,11182,11255,27175,4
0,0,0,32832,10879,11109,11231,27148,4
0,0,0,32765,10915,11133,11182,27148,4
0,0,0,32500,10915,11072,11182,27095,4
0,0,0,32238,10867,11060,11157,27122,4
0,0,0,31497,10867,11036,11206,27445,4
0,0,0,31119,10831,11060,11133,27636,4
0,0,0,30994,10843,11036,11194,28301,4
0,0,0,30838,10867,11060,11157,28812,4
0,0,0,30499,10843,11048,11109,29100,4
0,0,0,30347,10783,11072,11109,28984,4
0,0,0,30317,10783,11012,11121,28869,4
0,0,0,30286,10819,11012,11109,28812,4
0,0,0,30347,10819,11024,11109,28754,4
0,0,0,30347,10831,11036,11109,28640,4
0,0,0,30347,10795,11060,11109,28640,4
0,0,0,30347,10831,11060,11121,28555,4
0,0,0,30469,10831,11024,11109,28527,4
0,0,0,30408,10819,11060,11133,28470,4
0,0,0,30869,10867,11121,11170,28245,4
0,0,0,31087,10879,11170,11206,28133,4
0,0,0,31465,10843,11219,11206,27256,4
0,0,0,30715,10819,11157,11170,26435,4
0,0,0,30931,10819,11072,11157,26150,4
0,0,0,31434,10819,11012,11157,26022,4
0,0,0,31529,10819,10975,11109,26047,4
0,0,0,31497,10795,10939,11145,25996,4
0,0,0,31497,10819,10975,11121,25869,4
0,0,0,31465,10819,10963,11084,25894,4
0,0,0,31593,10783,10963,11096,25894,4
0,0,0,31978,10831,10975,11109,25945,4
0,0,0,32238,10891,10999,11121,26202,4
0,0,0,31913,10891,10987,11096,26357,4
0,0,0,31881,10879,10963,11072,26776,4
0,0,0,31529,10843,11012,11084,27581,4
0,0,0,31307,10819,11036,11060,27911,4
0,0,0,31465,10831,11048,11036,27691,4
0,0,0,31213,10831,11060,11036,28022,4
0,0,0,31244,10843,11243,11060,28245,4
0,0,0,31497,10843,11553,11096,28414,4
0,0,0,31402,10855,11703,11060,28357,4
0,0,0,31497,10867,11957,11109,28245,4
0,0,0,31849,10879,11804,11133,28049,4
0,0,0,31561,10879,11855,11109,28049,4
0,0,0,31370,10879,11881,11133,28022,4
0,0,0,31370,10879,11919,11121,27718,4
0,0,0,31434,10879,11919,11157,27745,4
0,0,0,31593,10903,11804,11170,27472,4
0,0,0,31656,10831,11553,11182,27418,4
0,0,0,31402,10819,11490,11157,27148,4
0,0,0,31276,10807,11354,11170,27095,4
0,0,0,31339,10771,11304,11157,26829,4
0,0,0,31402,10771,11255,11170,26618,4
0,0,0,31276,10795,11379,11206,26539,4
0,0,0,31339,10819,12034,11440,26618,4
0,0,0,31276,10843,12215,11503,26513,4
0,0,0,31213,10843,11868,11453,26513,4
0,0,0,31213,10831,11855,11354,26566,4
0,0,0,31276,10819,12176,11317,26487,4
0,0,0,31276,10831,13081,11304,26435,4
0,0,0,31276,10819,12959,11255,26409,4
0,0,0,31244,10831,12596,11255,26409,4