GyroX,GyroY,GyroZ,Thumb,Index,Middle,Ring,Pinky,Gesture
1,24,22,17220,11465,28245,26331,25490,2
-8,-3,7,17220,11503,28301,26305,25540,2
6,30,14,17220,11465,28301,26305,25540,2
-2,-6,2,17220,11478,28217,26228,25490,2
2,5,-7,17220,11503,28217,26253,25515,2
2,-10,4,17203,11503,28245,26253,25490,2
9,-6,-1,17220,11465,28245,26279,25490,2
17,-3,0,17220,11478,28217,26253,25490,2
-9,11,15,17254,11478,28245,26253,25465,2
3,-17,26,17272,11465,28245,26202,25490,2
30,24,45,17289,11465,28161,26253,25490,2
1,-68,12,17289,11453,28217,26253,25540,2
-19,-25,19,17289,11453,28161,26228,25591,2
-60,-70,57,17374,11428,28189,26228,25515,2
135,-80,-1,17409,11366,28161,26202,25490,2
23,-103,12,17340,11379,28329,26228,25291,2
-4,-13,30,17323,11379,28357,26150,25093,2
19,-61,-2,17254,11366,28357,26202,24921,2
-11,0,-6,17203,11379,28357,26099,24199,2
-13,-31,-31,17118,11366,28189,25996,24152,2
43,-33,-45,17220,11354,27911,25869,24294,2
-69,-1,-4,17289,11354,27663,25641,24342,2
-75,44,-16,17289,11354,27499,25515,24294,2
-194,-41,17,17220,11354,27472,25490,25142,2
-179,-54,-52,17152,11354,27472,25490,25216,2
-150,-15,22,17016,11354,27472,25591,25869,2
-56,-39,-25,16915,11354,27472,25591,26022,2
-54,-50,-9,16882,11366,27499,25691,26228,2
5,-27,-23,16781,11366,27581,25691,26150,2
96,-90,-31,16615,11366,27636,25691,26150,2
103,-144,7,16549,11354,27609,25717,26099,2
43,-189,66,16532,11366,27691,25793,26202,2
62,-138,45,16368,11366,27718,25920,26383,2
67,-27,-37,16303,11366,27691,25945,26357,2
45,14,8,16287,11366,27609,25894,26150,2
-74,13,-43,16189,11379,27691,25767,25894,2
83,13,-92,16483,11379,27445,25641,25540,2
49,11,-23,16681,11391,27337,25616,25365,2
-24,-10,-2,16715,11403,27256,25540,25142,2
-20,35,-11,16748,11391,27256,25515,25044,2
-6,33,-19,16681,11366,27256,25540,25068,2
7,40,-29,16665,11366,27229,25515,25019,2
19,26,-48,16698,11354,27364,25540,25044,2
-5,34,-25,16715,11329,27472,25515,25019,2
-29,28,-33,16715,11304,27745,25540,25019,2
-35,85,-63,16681,11304,27939,25540,25044,2
-6,27,-17,16748,11268,28049,25565,25019,2
9,-10,-3,16715,11280,28049,25591,25044,2
2,5,-2,16748,11268,28022,25591,25044,2
-6,14,-9,16765,11268,28022,25565,25093,2
12,-9,0,16748,11255,28022,25540,25019,2
-17,15,6,16748,11243,28022,25565,25019,2
10,16,-12,16731,11219,27911,25490,25019,2
-9,115,-39,16698,11219,27966,25515,25019,2
-2,52,-12,16748,11206,28161,25490,25019,2
-34,91,13,16698,11206,28470,25465,25019,2
-9,6,-4,16681,11206,28442,25490,25019,2
-18,3,-3,16665,11170,28357,25490,24995,2
-19,6,-10,16565,11206,28329,25490,24995,2
31,-24,-8,16615,11170,28133,25365,24946,2
33,-88,5,16565,11170,27966,25291,24799,2
-95,-41,25,16516,11182,27883,25216,24727,2
-159,-30,54,16516,11182,27800,25216,24678,2
-71,-22,15,16499,11182,27800,25192,24630,2
-49,-16,10,16516,11157,27800,25192,24678,2
-10,2,-42,16516,11170,27718,25192,24654,2
-23,17,-4,16565,11170,27773,25192,24606,2
-40,34,22,16648,11170,27745,25192,24702,2
-47,68,8,16648,11170,27718,25192,24630,2
-290,178,22,16615,11182,27691,25192,24630,2
-156,21,65,16549,11170,27745,25192,24606,2
-49,18,24,16483,11182,27691,25167,24630,2
-41,11,57,16549,11255,27718,25192,24630,2
-72,26,65,16549,11268,27718,25192,24630,2
7,-32,29,16549,11268,27691,25192,24606,2
391,-200,-170,16549,11268,27691,25167,24606,2
460,-175,-206,16598,11304,27636,25192,24606,2
158,-41,-32,16582,11280,27636,25192,24630,2
160,11,-64,16582,11268,27691,25167,24630,2
-88,23,23,16549,11268,27472,25192,24606,2
24,-44,93,16516,11268,27472,25192,24630,2
19,5,15,16565,11280,27418,25142,24606,2
36,17,-3,16549,11280,27527,25216,24630,2
-17,-20,71,16483,11268,27994,25291,24727,2
39,-45,-27,16665,11292,28161,25341,24751,2
45,2,58,16615,11292,28245,25390,24799,2
87,17,73,16781,11317,28301,25591,24873,2
9,-27,67,17016,11366,28189,25540,24921,2
-41,-14,62,16983,11354,27939,25515,24848,2
-1,-54,86,16831,11366,27966,25515,24848,2
72,27,74,16715,11366,27883,25490,24873,2
86,157,168,16499,11565,27828,25440,24799,2
94,121,284,16303,11603,27856,25440,24799,2
74,59,153,15980,12086,27883,25440,24751,2
78,31,12,15647,12293,28077,25490,24727,2
-21,83,46,15350,11528,29538,25920,24824,2
7,46,-7,15181,11503,30622,26829,25515,2
175,20,18,15412,11503,31434,27337,25945,2
85,79,36,15615,11465,32765,28189,26279,2
241,13,-46,15773,11503,33887,28984,26644,2
334,-72,4,16615,11804,34165,29304,26988,2
214,-15,-1,18654,12333,34341,29509,26644,2
-6,84,7,19306,12280,34696,29865,26618,2
-86,0,26,19401,12163,34589,30226,27800,2
-68,17,31,19401,12756,34874,30226,28927,2
32,64,14,19231,12530,35272,30045,29538,2
27,47,28,18453,12464,34803,29746,29895,2
36,20,-3,17634,11703,34696,29421,30591,2
37,-20,26,17169,11653,34660,30715,31720,2
2,-1,11,16966,11653,34946,31213,32402,2
-23,-5,-16,16882,11653,35639,31150,32435,2
18,-5,-1,17016,11653,35861,31087,32369,2
39,23,-19,17016,11678,35824,31025,32205,2
107,-50,33,17016,11678,35602,31213,34447,2
-55,-70,8,16983,11653,35163,30994,34482,2
47,-36,-4,16781,11678,34767,30745,34060,2
24,-22,10,16698,11653,34412,30622,33887,2
62,-14,7,16748,11628,34200,30499,33474,2
6,-46,26,16831,11653,33576,30561,33033,2
-18,-29,-11,16882,11830,32832,30776,32238,2
-4,41,10,16815,12228,32666,30622,32075,2
-26,24,4,16781,12770,32533,30591,32108,2
-15,31,-10,16715,12530,32533,30530,32010,2
-39,83,0,16632,12477,32732,30377,31978,2
15,3,8,16632,12504,32666,30286,31978,2
-21,-2,16,16582,12504,32633,30256,31978,2
-10,18,6,16549,12504,32832,30165,31881,2
11,-24,11,16368,12477,32699,29984,31881,2
-5,8,7,16238,12504,32765,29835,31785,2
-30,0,12,16157,12543,32566,29686,31720,2
-33,-15,13,15964,12556,32369,30408,31497,2
-35,1,22,15521,11603,32108,30838,31402,2
-29,11,12,14982,11603,31817,30715,31402,2
-39,-10,1,14801,11565,31752,30653,31402,2
-108,-7,16,14967,13935,31720,30684,31339,2
-37,-22,32,14861,11653,31752,30591,31244,2
-66,-34,10,14621,12293,31624,30499,31244,2
-50,26,2,14621,11628,31624,30530,31213,2
-25,32,4,14636,11653,31624,30469,31213,2
-22,8,7,14876,13764,31656,30469,31150,2
-42,-18,25,14982,11855,31752,30469,31087,2
-40,2,-10,15181,11893,31752,30469,31056,2
-85,-29,19,14801,14341,31720,30408,31025,2
-140,14,-38,14756,11665,31752,30377,30994,2
-51,39,1,14681,13205,31624,30347,30994,2
-73,32,-37,14696,11653,31849,30347,30931,2
-38,30,-6,14621,11919,32043,30347,30931,2
-38,-24,-6,14503,24921,31529,30347,30931,2
-38,-16,-12,14458,11665,32303,30377,30900,2
0,-46,-27,14399,11754,32369,30347,30869,2
-11,-10,-36,14444,11932,32303,30347,30869,2
25,11,-5,14429,11653,32303,30377,30869,2
-10,-11,-11,14488,11779,32238,30317,30776,2
-13,-27,-23,14681,11665,32238,30256,30684,2
12,-52,-36,15150,12451,32369,30226,30653,2
-3,-68,-43,15537,20879,32303,30165,30530,2
-100,-45,-30,15428,11754,32435,30165,30591,2
-174,-81,-25,15412,12636,32303,30165,30499,2
-160,-9,36,15459,12636,32303,30105,30408,2
-133,1,4,15459,12596,32303,30165,30469,2
-98,-20,-12,15443,11728,32303,30165,30469,2
-90,25,-10,15475,11703,32271,30135,30469,2
-57,64,-69,15521,11919,32238,30135,30438,2
-33,53,8,15537,12009,32238,30105,30377,2
-43,34,-21,15615,14021,32303,30165,30377,2
-96,23,-21,15900,11578,32435,30105,30408,2
-81,39,-13,16109,11553,32435,30135,30408,2
-91,53,-36,16157,11515,32402,30105,30377,2
-148,78,-72,15964,22053,31688,30105,30408,2
-107,51,32,16109,22776,31688,30105,30438,2
-130,45,12,16303,11403,32369,30105,30377,2
-129,-44,87,16483,11403,32369,30105,30347,2
-211,-43,59,16434,12034,32369,29984,30165,2
-218,-94,96,16222,11919,32271,29686,29746,2
-82,-132,54,15837,12073,32043,29216,28812,2
-795,-16,248,15600,12047,31946,29100,28555,2
-497,-119,224,15350,11317,31593,28927,28357,2
45,-215,65,15028,11329,31339,28640,28133,2
63,-179,76,14982,11366,31119,28612,28022,2
-68,-29,95,15028,11354,31025,28583,27966,2
-129,-44,67,15104,11366,30838,28555,27883,2
27,-25,-22,15089,11590,30807,28470,27636,2
-23,1,-21,15150,11754,30347,28357,27581,2
39,-20,-64,15058,11741,30347,28301,27499,2
-38,-28,-101,14922,11754,30469,28245,27445,2
-67,-118,-101,14816,11754,30347,28245,27391,2
-102,-82,-78,14846,11603,30286,28217,27445,2
-33,-33,-77,14741,11615,30256,28161,27472,2
-12,-19,-2,14681,11716,30226,28189,27472,2
-83,-3,50,14696,11754,30256,28161,27445,2
-31,-17,7,14756,12254,30286,28217,27472,2
-63,65,48,14756,12320,30226,28189,27391,2
12,115,74,14741,11403,30226,28161,27391,2
5,105,94,14681,11440,30226,28161,27364,2
8,28,40,14666,11578,30165,28161,27364,2
27,-51,-2,14636,11503,30135,28161,27391,2
34,-23,14,14681,11428,30165,28133,27391,2
41,-35,15,14681,11354,30165,28161,27364,2
25,29,-11,14696,11329,30165,28133,27418,2
10,16,13,14741,11341,30165,28161,27391,2
5,4,3,14726,11341,30165,28133,27472,2
-14,25,11,14726,11366,30165,28077,27418,2
-18,53,20,14726,11354,30075,28133,27418,2
-34,58,37,14741,11403,30105,28133,27391,2
-37,28,42,14756,12543,30105,28133,27364,2
-33,43,-4,14846,23754,29509,28105,27418,2
50,68,8,14711,28470,29450,28077,27445,2
12,-48,-5,14666,17033,29835,28022,27283,2
-1,-21,-7,14982,11628,29925,28077,27337,2
28,12,-7,15043,12690,29865,28022,27256,2
-11,-6,11,15058,22665,29129,28049,27175,2
-16,-17,-27,14982,11453,29775,28049,27256,2
-15,-24,-16,14907,11416,29746,28049,27202,2
-9,31,1,14861,11403,29686,28022,27229,2
-22,8,-2,14801,11403,29746,27994,27229,2
-1,5,-17,14846,11428,29686,28022,27175,2
2,-11,15,14846,11416,29746,27994,27229,2
-4,7,-1,14816,11403,29686,27966,27148,2
-4,-22,17,14846,11403,29716,27966,27229,2
-32,-31,8,15074,11428,29716,27966,27175,2
5,15,2,15089,11440,29746,27939,27041,2
1,6,7,15043,11416,29657,27883,27041,2
-18,6,2,15028,11440,29657,27911,27041,2
28,-21,-17,15058,11428,29686,27856,27041,2
9,-15,-14,15089,11453,29686,27856,26988,2
8,-16,-1,15150,11428,29686,27856,26961,2
-59,-1,-1,15397,11440,29746,27828,26882,2
-17,-17,-1,15964,11503,29746,27800,26776,2
-61,-3,8,16189,11465,29805,27800,26592,2
-20,11,-15,16352,11478,29657,27609,26228,2
-1,-6,-7,16238,11465,29450,27364,25717,2
-21,24,5,16206,11503,29391,27310,25717,2
3,-14,-27,16271,11478,29391,27202,25415,2
17,4,-33,16287,11478,29304,27041,25167,2
35,-7,5,16060,11465,29304,26961,25093,2
136,-98,23,15789,11490,29187,26935,25415,2
110,-227,-24,15521,11515,29568,27015,25894,2
230,-27,-103,15273,11628,30377,27148,25818,2
152,-49,-77,15150,11703,30499,27095,25465,2
56,34,-54,15043,11855,30931,27202,25291,2
22,46,5,14922,11957,30838,27122,25068,2
0,100,11,14756,11983,30962,27095,24921,2
77,58,-46,14982,11983,30931,27122,24946,2
164,16,-30,15196,11983,30745,27175,25142,2
37,82,42,15196,11855,30684,27148,25118,2
102,57,13,15150,11817,30715,27148,25142,2
174,31,-37,15196,11804,30745,27202,25216,2
67,71,-24,15181,11804,30776,27256,25616,2
-88,122,-42,15366,11728,30838,27364,25793,2
-60,85,16,15397,11881,30900,27364,25742,2
55,76,12,15335,11603,30931,27364,25691,2
-45,215,-3,15350,11565,30931,27364,25666,2
176,-38,-107,15397,11615,31087,27391,25616,2
76,-50,-40,15490,11565,31181,27499,25666,2
84,-63,-29,15584,11565,31244,27581,25818,2
-24,28,-18,15789,11578,31244,27581,25894,2
62,57,-46,15773,11565,31150,27527,25818,2
12,62,-75,15773,11553,31119,27527,25767,2
13,63,-35,15694,11553,31087,27472,25793,2
80,-28,-62,15710,11528,31087,27472,25767,2
116,-62,-60,15741,11528,31056,27499,25818,2
-106,24,-7,15868,11578,30900,27499,26124,2
-176,-83,122,16012,16516,30838,27581,26618,2
-32,-107,12,15964,11565,30469,27691,27472,2
357,-27,-94,15631,11603,30591,28077,28022,2
348,57,-25,15227,11804,31752,28357,27994,2
230,155,43,15288,11855,32699,28357,27095,2
122,90,50,15273,12372,33991,28697,26882,2
51,24,-13,15119,13906,34696,29421,27418,2
80,-44,3,15135,12228,35492,30256,28301,2
133,-68,-8,15181,12280,35455,30286,28357,2
88,-90,-11,15288,12280,35272,30226,28470,2
37,-20,-22,15350,12228,35712,30653,28869,2
-6,-29,21,15288,12333,36310,31025,29042,2
11,-1,1,15211,12254,36160,30962,28927,2
1,-38,-3,15165,12280,36272,31056,29071,2
71,-42,-26,15211,12267,36499,31213,29216,2
140,-34,14,15335,12477,36690,31434,29333,2
-9,-24,3,15459,12490,36959,31656,29686,2
76,-46,-4,15600,12690,37308,31946,29746,2
156,-60,-18,15868,12972,38503,33168,29391,2
220,-13,-3,16028,12743,38544,33474,29421,2
122,-36,30,16125,12636,38463,33921,30591,2
98,-53,38,16109,12490,38463,34306,32010,2
108,-28,35,15996,12451,38341,34839,34306,2
77,-47,18,15980,12583,38180,34553,33714,2
118,-2,4,15980,12504,38100,34839,33991,2
72,11,15,15996,12163,38180,35309,34200,2
54,-18,6,16028,12060,38912,35639,34200,2
102,-36,14,15980,12021,38995,35455,34060,2
112,35,-13,15884,12009,38912,35345,33887,2
92,-21,-9,15773,12163,38912,35199,33852,2
90,25,-6,16450,12009,39036,34982,33645,2
62,15,2,17272,11944,38748,34518,33337,2
-18,-28,34,18022,11970,38707,34200,33168,2
24,0,10,18093,11766,38382,33852,33033,2
69,-2,13,18129,12385,38422,33748,32932,2
110,4,7,18129,15150,38503,33714,32932,2
16,-28,41,17722,12385,38666,34060,32799,2
-12,8,2,16898,14195,37940,34095,32533,2
-76,-17,23,17016,11779,37741,34341,32173,2
14,-7,-6,17016,12009,37781,34518,32010,2
74,-31,5,16831,11728,37701,34447,31817,2
22,-1,30,16698,12189,37504,34341,31720,2
-60,43,35,16665,11855,37426,34271,31529,2
-72,50,3,16681,12215,37347,34235,31465,2
-13,20,5,16815,12851,37308,34306,31276,2
-61,18,13,16999,13040,37308,34341,31244,2
-39,23,13,17152,11678,37308,34341,31244,2
-4,3,6,17169,11615,37308,34341,31181,2
-19,35,9,17254,11603,37347,34341,31150,2
-16,27,-32,17254,11603,37386,34341,31181,2
-9,50,-27,17272,11716,37386,34271,31119,2
-51,40,1,17220,11515,37308,34271,31087,2
-107,6,32,17220,16865,37152,34200,30994,2
-117,-13,-31,17101,11628,37152,34095,30962,2
-125,31,-16,17101,11653,36767,33991,30745,2
-358,34,-60,17101,11906,36614,33679,30591,2
-540,-51,-98,17033,11478,36499,33576,30377,2
-463,-111,-139,17220,12918,36386,33474,30226,2
-371,-71,-180,17289,11932,36010,33303,30015,2
-161,-11,-223,17374,11317,35824,33168,29865,2
-144,107,-59,17357,11292,35309,33168,29775,2
46,24,-55,17289,11304,35272,32999,29657,2
88,18,-74,17169,11268,35455,32966,29597,2
-66,47,-72,17033,11366,35492,32932,29509,2
-246,48,-17,16949,11804,35455,32899,29479,2
-136,1,47,16898,11255,35345,32799,29304,2
-317,-24,86,16831,11255,34839,32633,28840,2
-267,-151,6,16781,15366,34731,32467,28442,2
-170,-87,-129,16882,11465,34839,32435,28245,2
-173,128,134,16898,14786,34731,32369,28161,2
240,215,-185,17050,12034,34130,32108,27883,2
95,35,-42,17374,11416,33202,31370,27310,2
134,101,-142,17220,12099,32666,31025,26961,2
73,197,-132,17101,11354,32435,31056,26776,2
75,66,-61,16949,11354,32271,30962,26776,2
46,67,-88,16831,11354,32075,30931,26697,2
37,55,-75,16815,11416,31881,30900,26644,2
100,2,-157,16765,11329,31307,30715,26022,2
86,62,-198,16748,11453,30715,30165,25142,2
89,146,-47,16665,11453,30469,29984,25068,2
81,102,-91,16483,11366,30530,29925,25019,2
6,84,-57,16417,11354,30530,29984,24995,2
137,-43,-123,16499,11354,30347,29805,25019,2
-2,14,-69,16368,11354,29984,29627,24873,2
144,50,-104,16254,11366,29775,29479,24727,2
42,55,-53,16109,11354,29362,29304,24606,2
-52,114,-81,15868,11515,29100,29158,24366,2
7,83,-62,15678,11428,29013,29071,24223,2
54,77,-40,15521,11553,28955,29129,24247,2
-16,20,-7,15335,11366,28927,29042,24271,2
3,21,4,15104,11379,28984,29071,24271,2
-38,8,1,14967,11416,29216,29158,24366,2
-41,19,12,14861,12610,29362,29274,24414,2
16,17,44,14846,11403,29421,29333,24438,2
-50,58,16,14846,11403,29391,29304,24438,2
-13,-28,33,14846,11403,29421,29391,24606,2
-76,-10,22,14846,11403,29391,29627,24873,2
20,12,72,14816,11403,29538,29775,25192,2
18,52,-2,14756,11379,29925,29865,25390,2
2,47,-25,14726,11379,29775,29895,25390,2
11,39,44,14666,11366,29597,29746,25192,2
21,77,-58,14681,11354,29509,29597,25068,2
-14,-1,39,14741,11366,29362,29538,24799,2
-19,14,29,14726,11804,29274,29391,24558,2
-27,-27,10,14681,11842,29216,29333,24462,2
-36,-19,1,14666,11855,29216,29304,24462,2
-17,-42,9,14621,11855,29274,29274,24414,2
-22,6,4,14621,11842,29245,29304,24414,2
-15,20,-17,14651,11970,29245,29274,24366,2
-23,17,1,14666,11996,29245,29274,24414,2
-15,28,-4,14621,12021,29216,29304,24414,2
20,21,-5,14592,12676,29274,29216,24342,2
5,12,-7,14562,13027,29187,29274,24390,2
-50,62,-7,14547,13177,29158,29274,24342,2
9,-4,-2,14532,13357,29100,29274,24366,2
23,-14,-8,14518,13329,29129,29245,24366,2
-71,69,-21,14429,13260,29100,29274,24390,2
-18,-10,-4,14311,13260,29158,29216,24318,2
-10,39,3,14224,13191,29100,29187,24294,2
-2,25,-1,14195,13191,29071,29187,24318,2
-4,5,0,14151,13122,29071,29216,24342,2
-8,31,-20,14108,13177,29071,29216,24318,2
-18,13,-8,14108,13177,29042,29216,24271,2
9,5,-17,14079,13068,29071,29216,24271,2
-1,7,-21,14050,13301,29042,29187,24318,2
-20,19,-2,14021,13232,29042,29187,24223,2
10,9,-2,13978,13357,29013,29216,24271,2
-9,2,-12,13964,13398,29042,29216,24318,2
-15,-6,-3,13964,13454,29042,29158,24271,2
-42,-53,43,13935,13566,29100,29274,24318,2
-38,-26,30,13906,13468,29158,29333,24318,2
-4,-11,22,13863,13580,29304,29479,24366,2
26,33,12,13835,13524,29746,29775,24702,2
7,34,38,13792,13580,30469,30015,25241,2
3,11,17,13764,13580,30962,30165,25490,2
19,5,29,13792,13538,31244,30377,25793,2
-34,-9,21,13749,13566,31244,30408,25996,2
30,-24,13,13707,13538,31213,30530,26513,2
-2,-5,1,13707,13510,31119,30591,26961,2
14,6,1,13693,13538,31119,30591,27499,2
-14,-9,7,13679,13538,30994,30499,27418,2
34,-2,21,13693,13721,30776,30469,27337,2
38,5,-8,13764,13863,30684,30377,27015,2
98,-30,20,13964,13849,30715,30347,26882,2
134,-53,118,14209,13749,30622,30226,26829,2
49,9,15,14429,13849,30499,30165,26723,2
93,-39,-31,14532,16060,30469,30165,26513,2
110,-11,-17,14547,16206,30438,30256,26357,2
57,-18,-4,14488,15773,30195,30317,26124,2
-42,-20,6,14297,15710,30105,30105,25996,2
-25,-34,26,13935,15459,30015,29895,25818,2
-25,-19,2,13679,15710,29955,29805,25641,2
-45,-21,15,13412,15726,29805,29538,25490,2
-31,1,7,13177,15821,29746,29042,25390,2
-10,45,-9,13013,15459,29657,28697,25365,2
-21,11,10,12905,15397,29657,28612,25316,2
-4,53,19,12824,15211,29805,28612,25316,2
-2,-1,7,12756,15304,30105,28583,25390,2
10,-8,11,12703,15335,30045,28527,25291,2
-37,-7,14,12610,14108,30075,28470,25291,2
-4,15,18,12438,15884,30015,28385,25291,2
-11,-4,11,12676,11280,30226,28301,25241,2
20,5,10,13081,11304,30105,28245,25118,2
108,-13,4,15043,11329,30165,28161,25093,2
31,-72,29,17880,11453,30195,28189,25044,2
30,-29,-19,21043,11603,30045,28161,25019,2
42,-93,29,22401,11766,30377,28245,25044,2
163,-9,6,22798,12073,30286,28245,25068,2
76,6,3,22776,17669,29805,28161,24995,2
188,-15,-7,23294,15475,29627,28133,25142,2
74,-33,2,24034,15726,29129,28077,25241,2
133,-37,1,24606,15837,28840,28049,25291,2
336,6,-19,24582,17513,28840,28105,25515,2
517,-59,-38,24921,13027,29304,28245,25945,2
332,80,-2,25019,18164,28812,28189,26099,2
133,40,52,25540,13482,29421,28697,26882,2
170,-3,77,25691,14488,30165,29746,28385,2
244,0,-6,25767,13622,30075,30286,28697,2
121,12,-31,25390,13426,30165,30962,29538,2
480,-22,-58,25291,13468,29984,31119,29746,2
199,-103,-22,25591,13468,30226,30869,29042,2
-92,-38,37,25341,19689,30838,30869,28357,2
-61,8,36,25142,27068,30195,30715,28022,2
-17,14,31,25490,27041,30931,30745,27856,2
-163,27,11,25894,13468,32633,30499,27283,2
-69,15,-23,25641,14137,33134,29895,26279,2
12,24,35,25241,14666,33337,29274,25641,2
-42,57,-13,25341,14891,33542,28583,25142,2
84,2,45,25717,15150,33748,27911,24390,2
-8,16,61,25641,15028,34447,27283,23569,2
34,5,55,25691,15058,34341,27499,23454,2
166,1,88,25415,14907,33852,27856,24390,2
99,17,104,24873,14458,33100,27911,25019,2
123,57,66,24848,14268,32633,28133,25742,2
81,26,86,24606,14036,32369,28583,26592,2
223,13,60,24897,14036,32500,28640,26829,2
216,-95,201,25093,13482,32205,28612,26855,2
278,-58,65,25341,13510,31881,28357,26935,2
587,-17,-15,24897,13454,31785,28245,27148,2
347,31,-7,24921,13482,31785,28189,26988,2
247,47,17,24678,13482,31913,28189,26670,2
191,28,8,24366,13468,31720,28022,26566,2
-98,66,39,24176,13454,31752,27994,26435,2
-31,77,-35,23940,13329,31593,27745,26305,2
-32,124,-55,23987,13136,31213,27499,25945,2
18,129,-75,23964,13054,30530,27175,25515,2
143,111,-64,23917,13027,30377,26988,25291,2
448,28,-47,23940,12972,29775,26723,25068,2
164,-6,37,23522,12918,29627,26723,24946,2
10,49,-8,23022,12864,29450,26566,24727,2
-63,-8,22,22576,12797,29274,26461,24654,2
28,-15,13,22444,12783,29071,26409,24558,2
-31,63,-18,22357,12703,29042,26279,24414,2
104,-4,-21,22096,12596,28927,26202,24271,2
-1,29,-20,21967,12385,28783,26150,24271,2
-17,6,-33,21669,12215,28697,26099,24176,2
41,53,-30,21229,12009,28470,25996,24034,2
31,32,-6,20757,11804,28414,25691,23800,2
-6,12,1,20335,11703,28301,25591,23569,2
3,-11,12,20216,11615,28022,25490,23431,2
-35,66,-12,19999,11565,27609,25390,23408,2
-23,5,6,19921,11540,27499,25291,23294,2
-16,44,-4,19921,11528,27391,25216,23203,2
-24,16,-14,19805,11503,27391,25192,23180,2
-16,30,-12,19631,11453,27337,25118,23135,2
-47,30,-14,19099,11403,27283,25044,23022,2
-8,75,-15,18672,11354,27310,24995,22999,2
-1,118,-54,18290,11317,27472,24995,22999,2
-199,53,-2,18147,11268,29071,25415,23203,2
8,-55,49,18004,11206,29216,25415,23271,2
-74,14,10,17915,11194,29627,25616,23316,2
22,-43,-12,17669,11157,29746,25591,23316,2
-20,4,10,17617,11145,29657,25540,23339,2
-8,29,-9,17530,11157,29568,25515,23294,2
-25,-26,2,17461,11121,29509,25490,23316,2
-37,25,-14,17374,11133,29274,25440,23248,2
-69,56,-12,17409,11157,29042,25341,23203,2
-102,157,-3,17220,11157,28612,25291,23203,2
-4,24,15,16966,11157,28414,25044,23067,2
21,85,3,16598,11170,28022,24848,22932,2
-32,60,-15,16319,11170,27691,24654,22754,2
107,-40,72,16173,11182,27202,24438,22665,2
274,-176,300,16044,11170,27095,24366,22665,2
463,-244,78,16271,11194,27175,24318,22621,2
671,-147,28,16109,11219,27337,24176,22466,2
621,-227,121,16565,11206,27499,24152,22401,2
805,-391,69,16949,11206,27581,24176,22466,2
1195,-333,38,16966,11219,27581,24176,22554,2
1141,-182,-73,17374,11268,27554,24247,22621,2
684,-95,-81,17652,22887,27256,24342,22665,2
447,-12,-72,17809,23339,27636,24510,22776,2
104,89,-68,17669,11268,28442,24462,22754,2
-68,113,-73,17547,11268,28555,24366,22576,2
-33,76,-18,17880,11268,29042,24510,22554,2
-40,79,-33,19043,11317,30105,24848,22665,2
-2,98,-53,19080,11329,30226,24897,22665,2
46,-46,-13,18894,11366,30165,24946,22687,2
174,44,-7,19005,11403,30317,25241,22887,2
184,-18,24,20196,11540,30900,25945,23385,2
13,-18,-21,20696,11565,31087,26228,23661,2
29,55,-22,20595,11603,31087,26228,23684,2
-7,20,-12,20798,11628,31150,26228,23615,2
-53,16,1,21043,11703,31402,26176,23477,2
10,47,-9,21563,11716,31370,25894,23362,2
24,8,6,21924,11766,31370,25793,23316,2
2,-22,16,22599,11855,31529,25793,23431,2
3,18,0,22599,11868,31465,25818,23615,2
-49,29,-29,22444,12060,31244,25793,23684,2
30,8,-16,22357,12060,31087,25717,24129,2
30,-3,-15,22532,12124,31213,25717,24606,2
-83,54,-40,21924,12228,30962,25691,24654,2
-89,41,-34,19960,11957,30105,25515,24414,2
-75,80,-19,19766,11855,30075,25390,24081,2
-168,84,-25,20375,11754,30561,25591,24105,2
4,-90,0,20019,11754,31752,26305,24510,2
-60,38,-22,19401,11741,31624,26357,24534,2
13,23,-32,19921,11728,31593,26357,24438,2
-13,28,-13,21375,11868,31978,26723,24606,2
-47,-23,-6,23022,12228,32010,27364,24606,2
27,-46,15,23847,12543,31849,27691,24582,2
-20,30,-18,24558,13122,31593,27773,24510,2
-22,31,7,24510,13150,31402,27609,24462,2
31,24,-6,24223,13122,31213,27527,24294,2
93,15,-20,23824,12438,30807,27229,24081,2
81,-12,12,23499,12385,30499,26988,23894,2
79,13,8,23294,12359,30347,26829,23777,2
20,-19,27,23316,12359,30347,26882,23592,2
25,-66,36,24105,12649,30622,27148,23477,2
38,-88,22,25490,13246,31087,27554,23477,2
-4,-36,25,25641,13454,31025,27527,23477,2
-29,3,-19,25490,13608,30900,27472,23477,2
27,-10,-1,25515,13636,30838,27472,23431,2
58,36,-22,25291,13412,30776,27418,23477,2
54,33,-18,24946,13287,30653,27256,23431,2
46,87,-39,26331,13778,31624,27609,23431,2
48,-15,2,27015,14355,32043,27718,23754,2
-59,72,-76,26357,14166,31593,27391,23592,2
-51,16,-1,25515,13764,31025,27095,23431,2
-64,20,1,24970,13566,30715,26908,23385,2
-32,-15,9,24824,13566,30561,26855,23362,2
0,-22,7,24799,13566,30530,26802,23339,2
-22,-42,1,25390,13608,30900,26855,23362,2
23,48,-26,26150,13749,31150,26908,23339,2
-13,-2,4,26461,13721,31276,26935,23385,2
9,31,2,26908,13806,31720,27015,23431,2
5,15,-8,27310,13806,31978,27068,23431,2
1,3,13,26961,13778,32010,27068,23477,2
9,-24,-7,26802,13693,31849,26988,23431,2
-57,22,-12,26099,13371,31339,26776,23362,2
-17,47,-2,25490,12986,30994,26618,23294,2
-43,40,-13,25019,12703,30807,26487,23203,2
-34,72,-25,24582,12477,30622,26435,23225,2
-133,49,-7,23964,12320,30715,26409,23294,2
-51,65,-13,23022,11855,30438,26150,23294,2
-60,20,-2,22270,11553,30045,25894,23203,2
-3,35,-15,21395,11416,29509,25565,23067,2
9,-42,5,21229,11403,29421,25490,23044,2
18,-65,-26,21084,11366,29450,25490,23022,2
-4,-35,0,20777,11366,29304,25415,22999,2
16,-96,-28,20475,11366,29245,25341,22932,2
-378,-4,-73,20137,11354,29158,25192,22887,2
-1033,-10,-125,19921,11329,29013,25093,22820,2
-3103,-141,-266,19843,11329,28840,25019,22687,2
-1227,-57,-195,19573,11341,28414,24799,22510,2
-832,-131,-168,19136,11317,28161,24654,22313,2
-731,-122,-142,19325,11329,27883,24462,22248,2
-583,-101,-127,19005,11329,27636,24390,22118,2
-106,-79,-136,18764,11317,27445,24271,21967,2
-42,60,-9,18417,11304,27337,24129,21903,2
357,8,-45,17986,11317,27202,24034,21903,2
124,58,-45,17600,11304,27122,23964,21839,2
6,4,-10,17323,11304,27068,23847,21733,2
-135,21,-1,17152,11304,26988,23824,21733,2
-19,-21,41,16949,11280,27015,23777,21711,2
53,19,10,16781,11268,26988,23707,21733,2
36,14,-7,16648,11255,26961,23707,21733,2
-40,59,-12,16748,11255,27175,23754,21733,2
7,20,20,16748,11268,27527,23800,21733,2
-14,23,15,16615,11255,27472,23754,21733,2
-45,-4,0,16565,11255,27527,23800,21711,2
39,-1,-4,16499,11231,27636,23754,21711,2
37,-7,20,16368,11206,27718,23800,21796,2
-1,-6,12,16271,11219,27800,23777,21775,2
-25,9,14,16303,11206,27911,23800,21775,2
17,10,11,16303,11268,27966,23800,21754,2
8,4,0,16222,11255,27911,23800,21754,2
0,-3,-1,16189,11243,27911,23800,21796,2
-54,30,8,16222,11255,27911,23800,21754,2
-24,-53,26,16303,11304,28161,23917,21796,2
17,12,-10,16417,11317,28245,23940,21796,2
12,0,3,16368,11366,28189,23940,21796,2
29,2,-9,16368,11416,28161,23940,21796,2
18,-10,10,16352,11416,28161,23894,21818,2
17,-4,6,16319,11403,28133,23917,21818,2
35,-7,-19,16352,11329,28049,23894,21775,2
-26,22,10,16499,11304,28022,23894,21733,2
-9,-6,25,16516,11268,27966,23870,21796,2
8,4,8,16549,11268,27911,23917,21754,2
1302,-36,-114,16648,11255,27966,23917,21796,2
3231,-119,8,17306,11206,28133,23940,21775,2
1596,180,171,18057,11182,28245,24034,21796,2
925,187,265,18635,11170,28301,24129,21839,2
1015,73,260,18838,11170,28189,24058,21839,2
999,-267,227,19231,11121,28217,24129,21818,2
536,-176,73,19477,11121,28245,24129,21839,2
104,49,-27,19631,11145,28301,24152,21818,2
102,10,2,19592,11121,28301,24176,21882,2
577,170,-52,19708,11133,28273,24129,21860,2
1131,55,-45,19843,11145,28161,24129,21818,2
-170,53,-47,19941,11121,28133,24152,21860,2
-591,-168,5,19843,11133,28217,24247,21882,2
-63,-123,76,20019,11133,28301,24318,21796,2
-170,-21,-3,20137,11109,28414,24510,21818,2
-157,-115,43,19497,11133,28783,24678,21860,2
-79,117,-3,18654,11145,30045,25192,22887,2
-78,178,-20,18599,11121,30408,25540,23987,2
27,198,-7,18093,11121,30561,25440,24510,2
106,138,16,17374,11121,30653,25717,24995,2
23,80,19,16815,11109,30591,25996,25591,2
-66,61,6,16450,11072,30745,25996,25465,2
-79,62,0,16336,11109,31720,26618,25616,2
-10,86,-25,16287,11084,33067,27911,26305,2
86,63,-21,16189,11072,33168,27939,26202,2
52,134,-21,16157,11072,33236,28049,26047,2
-102,208,0,16303,11072,34306,28612,25742,2
-316,55,-38,17016,11072,33783,29391,25717,2
-306,-96,-62,16681,11072,33134,28869,25691,2
-504,-75,-52,16173,11096,32467,28245,25390,2
-94,49,-51,16336,11084,31913,27745,24946,2
-177,56,-14,16615,11072,31213,26829,24152,2
-178,-8,-18,17084,11096,31119,26935,24034,2
-541,-70,-49,17084,11084,30622,26802,23847,2
-357,-59,-44,17392,11084,30622,27041,23800,2
-8,-26,-5,17565,11072,30653,27068,23870,2
-93,-29,19,17443,11072,30469,26961,23754,2
126,-13,-8,17357,11109,30195,26723,23684,2
176,-67,-25,17186,11060,29835,26383,23408,2
124,6,-38,17084,11072,29421,26099,23090,2
-71,48,-22,17016,11060,29187,25996,22955,2
52,25,-9,16949,11036,29216,25920,22955,2
64,48,-3,16949,11036,29042,25818,22887,2
18,112,-4,16898,11060,29013,25767,22932,2
-4,163,-18,16949,11036,28955,25691,22887,2
29,111,-9,16932,11060,28955,25666,22865,2
58,105,-12,16983,11060,29071,25691,22887,2
35,144,-52,16932,11048,29042,25691,22910,2
22,45,-80,16815,11060,29216,25742,22932,2
-32,55,46,16831,11060,29568,25996,23203,2
112,-36,25,16966,11060,30075,26357,23638,2
36,39,75,16815,11060,29805,26279,23569,2
160,-31,63,16731,11060,29597,26099,23316,2
61,-28,69,16748,11072,29450,26073,23248,2
94,-19,-9,16715,11084,29450,26073,23203,2
91,-24,18,16748,11096,29362,26124,23157,2
31,-43,28,16882,11109,29450,26331,23135,2
39,-4,4,17152,11157,29450,26618,23112,2
119,24,40,17461,11206,29333,26776,23090,2
7,3,-14,17323,11182,29129,26618,22932,2
-21,-60,2,17084,11206,28726,26357,22621,2
-22,28,-4,17272,11243,28640,26409,22532,2
-218,-23,-16,17152,11255,29042,26228,22599,2
-27,-22,-28,16499,11206,29042,26022,22665,2
130,12,18,16549,11194,28840,25945,22621,2
83,-23,28,17118,11255,28527,26047,22423,2
-9,11,-13,17443,11255,28357,26047,22335,2
-1,-3,5,17220,11255,28245,25920,22270,2
29,17,-9,17186,11231,28161,25793,22270,2
13,-22,-54,17220,11255,28161,25742,22226,2
-30,25,30,17152,11231,28077,25666,22226,2
19,-27,-25,17101,11231,28105,25641,22183,2
-3,-19,9,17101,11231,28133,25616,22248,2
-15,-33,17,17084,11231,28133,25616,22205,2
-33,-83,15,17306,11231,28217,25717,22226,2
-20,-24,34,17565,11255,28442,25996,22532,2
45,-5,10,17809,11255,28840,26202,22932,2
-22,-42,27,18022,11268,29100,26383,23316,2
-22,-37,34,18344,11280,29071,26566,23894,2
60,16,-11,18635,11268,29274,26882,25118,2
-23,19,-21,18727,11292,29274,26935,25818,2
-37,-15,-6,18783,11268,29333,27202,26618,2
-36,14,-6,18764,11304,29391,27283,27745,2
-62,-7,-10,18727,11317,29333,27175,27691,2
-5,-23,19,18709,11317,29216,27148,26331,2
-45,-24,8,18746,11304,29042,26935,25742,2
-75,-47,31,18709,11354,28812,26829,25192,2
-296,-77,13,18746,11354,28612,26670,24438,2
-376,-133,-88,18672,11354,28357,26409,23940,2
-109,-137,-43,18562,11329,27800,26047,23522,2
32,-66,-16,18489,11304,27581,25894,23248,2
-239,-45,-20,18489,11304,27472,25793,23157,2
-716,-125,-20,18435,11317,27472,25767,23067,2
-659,-83,39,18417,11292,27472,25793,22932,2
38,-68,-23,18399,11280,27364,25793,22665,2
21,62,-14,18254,11280,26855,25540,22466,2
27,58,-41,18093,11268,26618,25390,22270,2
-20,98,-52,17845,11268,26855,25291,22226,2
9,61,-21,17722,11255,26776,25216,22248,2
30,81,-43,17582,11255,26802,25142,22161,2
-7,-7,14,17409,11219,26935,25167,22118,2
-13,9,12,17118,11206,27391,25167,22118,2
13,-13,11,17050,11206,27148,25216,22075,2
-100,33,35,17323,11206,27800,25390,21989,2
19,-30,17,17323,11206,27745,25415,21967,2
-1,-10,9,17169,11206,28077,25717,22226,2
6,38,-1,17118,11206,28022,25616,22205,2
-15,28,0,17084,11206,28077,25616,22053,2
-36,38,-14,17289,11206,28869,25742,21711,2
-63,-31,5,17220,11206,28812,25920,21818,2
19,37,-9,17084,11206,28927,26331,22599,2
5,15,-14,17118,11194,28783,26357,22776,2
9,28,-16,17169,11206,28955,26513,22955,2
-24,27,-13,17461,11219,28812,26487,22955,2
-26,-7,-7,17634,11219,28669,26357,22910,2
-13,23,19,17704,11231,28385,26228,22776,2
-1,-28,12,17722,11255,28357,26253,22709,2
-5,12,11,17845,11231,28329,26047,22621,2
99,-60,26,17374,11206,28301,25742,22576,2
35,-13,30,16582,11219,28273,25216,22599,2
40,-12,14,15900,11206,28245,25044,22510,2
16,-17,8,15490,11219,28869,25266,22576,2
-10,2,22,15211,11219,29391,25641,22887,2
0,11,0,14982,11206,29657,25691,22955,2
4,40,17,14429,11206,29216,25515,22776,2
40,-19,1,13792,11206,29187,25440,22731,2
23,-32,0,13440,11219,29775,25818,23022,2
-7,-45,-2,13594,11219,30165,26305,23615,2
-17,-64,-18,15647,11219,30591,26331,23592,2
57,-38,23,17272,11219,30408,26022,23431,2
-27,21,-20,17739,11219,30015,25793,23271,2
-25,78,1,17845,11206,29775,25616,23022,2
-3,79,-21,17617,11206,29746,25465,22843,2
8,-12,4,17547,11219,29657,25341,22754,2
-29,29,2,17443,11206,29421,25216,22665,2
-100,0,-2,17374,11206,29274,25142,22665,2
-54,9,21,17220,11206,29216,25118,22576,2
-88,12,0,16949,11182,29100,25093,22532,2
-90,-66,17,16765,11182,29071,25019,22488,2
-35,-162,2,16598,11170,29013,24995,22466,2
-26,-130,22,16434,11170,28955,24995,22510,2
38,-68,6,16352,11170,28840,24995,22423,2
6,-96,51,16434,11170,28726,24897,22423,2
-133,-107,66,16698,11170,28217,24630,22248,2
-112,-78,0,16748,11157,27911,24438,22140,2
-117,9,6,16882,11157,27636,24176,21967,2
-153,-26,0,16615,11157,27175,23894,21775,2
-47,-4,3,16549,11157,26776,23730,21542,2
-33,56,-45,16516,11157,26513,23615,21458,2
25,68,-54,16385,11157,26461,23569,21395,2
-36,45,-41,16271,11133,26461,23522,21375,2
-83,31,-5,16254,11145,26513,23522,21375,2
-96,-50,-8,16173,11121,26776,23592,21312,2
-47,-8,7,16109,11157,26802,23569,21333,2
-74,24,17,16287,11157,27256,23684,21375,2
-22,-30,11,16467,11157,27939,24034,21542,2
86,-116,-77,16352,11133,28161,24129,21669,2
-94,-129,26,16157,11157,28049,24129,21733,2
-43,-33,-12,16028,11157,28049,24366,22075,2
-129,38,-8,16141,11157,28077,24510,22248,2
-113,18,-19,15948,11157,28077,24414,22161,2
-143,13,-34,15773,11157,28077,24247,21967,2
-39,-36,-3,15647,11157,28077,24294,21903,2
-53,-72,-14,15521,11157,28077,24414,21946,2
-82,5,25,15506,11157,28022,24462,21946,2
-21,8,-5,15335,11157,28077,24630,22183,2
-1,-55,7,15211,11157,28133,24630,22205,2
41,13,12,15104,11157,28161,24630,22313,2
29,4,-28,15058,11157,28189,24751,22510,2
50,-50,-34,14907,11145,28217,24946,22932,2
35,-33,-20,14786,11157,28133,25093,23569,2
-7,14,-9,14696,11157,28133,25291,24223,2
30,5,-66,14636,11157,28161,25490,24727,2
26,-24,-15,14621,11157,28161,25440,24606,2
-25,-90,22,14607,11157,28161,25341,24271,2
-95,-80,9,14666,11157,28161,25216,24058,2
90,-36,-10,15227,11170,28442,25093,23847,2
-79,-2,14,15335,11157,28583,25118,23800,2
-342,-26,72,15104,11157,28357,24970,23661,2
116,-29,-35,14922,11157,28189,24727,23339,2
-39,107,-44,14756,11157,28077,24654,23339,2
-4,-19,-54,14801,11157,28077,24654,23225,2
-43,-9,19,14846,11170,28357,24654,23203,2
-24,-67,-15,15028,11182,28385,24678,23203,2
-28,78,-6,15150,11170,28385,24702,23112,2
37,46,26,15211,11170,28470,24654,23112,2
-5,41,1,15211,11170,28470,24654,23112,2
-26,10,-54,15335,11157,28555,24654,23022,2
-29,-30,43,15837,11194,28498,24630,22977,2
-9,13,-12,16060,11219,28583,24678,23022,2
199,34,-3,15335,11231,28927,24897,23316,2
-20,-13,48,14816,11219,29274,25390,23754,2
52,26,6,14577,11268,29538,25894,24152,2
-14,-52,-12,14547,11317,29391,25717,23894,2
-34,-94,26,14846,11329,28984,25341,23569,2
-67,-70,23,15584,11304,28385,24630,23044,2
-14,2,-16,16044,11329,27966,24342,22621,2
45,70,-3,15789,11354,28414,24462,22709,2
75,-10,28,15227,11379,29100,25142,23316,2
14,-23,-3,14967,11453,29568,25616,23661,2
16,3,12,14846,11503,29627,25843,23800,2
-11,-56,13,14861,11528,29158,25440,23431,2
-46,-22,-18,15397,11528,28726,24897,22955,2
-62,-14,21,15964,11528,28555,24727,22887,2
-55,-26,9,16565,11515,28697,24510,22423,2
33,23,44,16368,11528,28669,24534,22226,2
165,-107,26,15710,11515,29071,24946,22687,2
51,-135,29,15196,11515,29421,25341,23090,2
65,-18,47,14696,11503,29568,25591,23203,2
43,31,-52,14786,11379,29479,25540,23157,2
-12,58,3,14922,11304,28869,25365,23044,2
1,96,-20,14937,11255,28498,25142,22887,2
28,53,-3,14801,11206,28385,25044,22843,2
99,36,-38,14801,11206,28498,25068,22843,2
80,31,-13,14876,11170,28527,25068,22776,2
39,18,-24,14816,11133,28470,25019,22776,2
35,7,-25,14666,11109,28612,24995,22754,2
-13,24,14,14666,11096,28697,24995,22754,2
41,-38,-21,14621,11072,28583,24995,22709,2
14,67,-23,14621,11084,28583,24970,22709,2
-126,111,-47,14666,11060,28583,24995,22731,2
-81,-41,-43,14666,11072,28583,24995,22731,2
-1,-28,34,14666,11060,28527,24970,22731,2
-47,16,-9,14681,11060,28414,24995,22754,2
-28,3,9,14726,11072,28414,24995,22754,2
-53,-8,-9,14711,11060,28385,24995,22665,2
11,-33,-61,14666,11072,28357,25019,22687,2
-7,75,41,14621,11072,28498,24995,22665,2
17,58,71,14726,11072,28498,25019,22665,2
82,35,-47,14786,11060,28133,24824,22357,2
-24,50,-52,14861,11072,27663,24702,22248,2
-36,12,-2,14756,11048,27636,24654,22226,2
-48,4,21,14726,11060,27636,24654,22226,2
-82,69,26,14666,11072,27691,24678,22270,2
188,84,-36,14786,11060,27828,24799,22096,2
-102,-52,41,15043,11060,28217,24678,21839,2
106,-58,13,15150,11060,28133,24606,21967,2
152,29,-13,15089,11060,28133,24606,22053,2
259,-36,-17,15181,11060,27883,24702,22075,2
37,24,-15,15288,11060,28077,24630,22096,2
8,47,4,15490,11072,28161,24654,22226,2
7,39,-4,15710,11072,28161,24630,22270,2
39,32,-5,15868,11109,28161,24606,22248,2
-14,52,8,16189,11084,28049,24630,22313,2
-28,73,8,16966,11109,26776,24946,22444,2
-24,-29,13,16949,11109,26461,24995,22532,2
-42,-8,10,16983,11109,26305,24995,22444,2
-41,73,-1,16848,11133,26202,24848,22183,2
-112,-1,20,17357,11133,25894,24702,21989,2
1,26,-4,17652,11145,25717,24630,21882,2
11,25,7,17530,11170,25666,24414,21542,2
73,54,-15,17600,11170,25341,24342,21458,2
37,56,7,17634,11170,25167,24271,21458,2
-65,39,30,17809,11182,25044,24129,21146,2
-69,39,38,17739,11170,24873,23661,20555,2
-91,32,31,17845,11170,24630,23431,20236,2
-11,33,15,17915,11157,24366,23203,19921,2
-55,12,17,17880,11170,24271,23203,19785,2
-101,42,11,18147,11170,24223,23067,19650,2
4,-7,14,18857,11170,23847,22754,19231,2
-13,-15,26,19325,11206,23385,22248,18727,2
3,21,3,19746,11231,22599,21437,18164,2
-27,2,8,19921,11255,22401,21333,18039,2
8,-27,7,20078,11304,22096,21146,17898,2
7,-73,8,19708,11317,22466,21187,18417,2
26,-31,-1,19099,11280,22776,21416,19960,2
74,-45,6,18489,11268,22843,21395,20196,2
-32,-23,-5,18218,11304,22423,21064,19631,2
-38,8,-22,18838,11354,22096,20636,18453,2
27,4,-8,19080,11366,21903,20636,18129,2
48,24,-5,19099,11354,21818,20676,18236,2
-19,8,0,19024,11329,21796,20716,18200,2
-29,0,15,18857,11317,21796,20716,18200,2
-28,-3,2,18746,11341,21924,20737,18200,2
-9,-12,-7,18526,11329,21924,20716,18236,2
11,-6,16,18562,11317,21924,20798,18290,2
21,7,-4,18581,11317,21903,20798,18272,2
23,6,-2,18562,11354,21882,20798,18236,2
-1,-1,3,18526,11341,21882,20798,18272,2
14,-11,-4,18508,11329,21903,20798,18254,2
6,8,-8,18489,11317,21903,20818,18272,2
14,16,-7,18435,11329,21924,20798,18272,2
1,-23,8,18435,11354,21967,20818,18290,2
7,7,-2,18417,11341,22313,20859,18581,2
11,-12,11,18435,11341,22226,20981,20355,2
-15,4,4,18453,11354,22292,21229,21627,2
22,3,14,18435,11354,22379,21375,21648,2
29,-36,5,18544,11317,22401,21563,21924,2
-35,-42,-17,18272,11329,22313,21903,22599,2
-91,27,11,18380,11317,21924,23067,23431,2
-42,-14,-5,18489,11329,21839,23022,23112,2
-52,-32,13,18489,11366,21606,22955,23067,2
10,14,4,18453,11354,21521,22865,23022,2
56,50,-15,18435,11317,22379,22709,22999,2
402,14,-37,18709,11317,22270,22621,22532,2
185,44,15,18838,11317,22401,22665,22140,2
385,174,42,19231,11268,22118,22532,21967,2
781,195,-26,19420,11255,21989,22754,21946,2
545,137,14,19477,11255,21967,22665,21882,2
13,176,-6,18987,11219,22776,22665,21882,2
157,0,-18,18746,11255,23157,22843,21946,2
120,104,-17,18581,11304,23044,22887,22140,2
-115,55,-13,18508,11304,23294,23203,23112,2
-124,18,-28,18471,11304,23754,23339,23592,2
-55,1,-28,18417,11304,23870,23385,23431,2
-142,24,-1,18380,11304,23847,23431,23316,2
-85,20,-5,18344,11304,23777,23294,22955,2
-84,39,-9,18344,11304,23684,23203,22754,2
-45,0,-7,18326,11317,23684,23157,22532,2
-33,3,-9,18344,11341,23615,23067,22444,2
-52,21,-19,18362,11354,23569,23090,22313,2
-47,-2,-12,18344,11354,23569,23022,22248,2
-2,-37,12,18344,11354,23569,23044,22248,2
59,-46,-18,18308,11354,23569,23022,22270,2
47,-10,15,18308,11329,23684,23044,22313,2
42,42,-22,18417,11341,24342,23203,22075,2
-40,-6,11,18691,11329,24318,23203,21967,2
-9,28,-3,18635,11341,24199,23180,21967,2
-6,46,-19,18581,11354,24129,23157,21903,2
2,-5,7,18544,11366,24058,23112,21882,2
1,-2,2,18562,11354,24081,23135,21903,2
29,25,-14,18526,11366,24034,23112,21882,2
-10,-10,12,18599,11354,23894,23112,21860,2
-3,-3,-9,18508,11366,23847,23112,21882,2
-5,-11,-1,18489,11366,23847,23112,21903,2
2,29,-8,18489,11366,23800,23067,21818,2
-15,-14,3,18489,11366,23800,23067,21882,2
-6,12,-16,18435,11391,23800,23090,21882,2
5,-9,0,18417,11379,23777,23090,21882,2
-3,-2,-2,18417,11379,23800,23044,21839,2
1,-14,-6,18435,11403,23847,23112,21882,2
-30,20,-1,18435,11366,23824,23067,21882,2
23,22,-17,18471,11379,23847,23067,21818,2
6,12,-45,19099,11416,25093,23339,21818,2
-36,126,-39,19497,11453,25540,23661,21903,2
21,174,-56,19477,11515,25591,23847,21924,2
192,57,-91,19231,11503,25591,23824,21882,2
185,-73,12,19099,11428,25316,23661,21839,2
172,-19,14,19174,11428,24751,23385,21796,2
137,-9,18,19174,11416,24342,23225,21711,2
63,10,30,19005,11403,24342,23203,21542,2
46,-10,33,18820,11416,24366,23135,21437,2
9,27,-12,18746,11403,24342,23044,21125,2
58,-14,5,18746,11440,24129,22932,20737,2
-70,1,21,18727,11528,24176,22843,20455,2
-130,-73,20,18838,11515,24223,22754,19766,2
-36,24,4,18857,11540,23964,22820,19785,2
-59,9,2,18857,11565,23940,22776,19785,2
-94,65,11,18838,11578,23987,22955,19843,2
9,47,13,18727,11565,24129,22932,19766,2
-92,50,3,18931,11565,24534,22776,19497,2
-160,53,-22,18949,11565,24606,22599,19306,2
11,40,-9,18949,11578,24995,22183,19155,2
7,25,-8,18968,11603,25192,21796,19174,2
1,14,-6,18931,11665,25316,21250,18672,2
-44,-18,7,19005,11653,25316,21084,18489,2
-7,-8,37,19024,11678,25241,21022,18344,2
93,-52,48,18968,11804,24946,21064,18581,2
94,13,29,19005,11779,24824,21064,19174,2
-43,-19,15,19080,11766,24414,20879,18801,2
24,1,9,19080,11741,24223,20798,18654,2
67,45,-16,19005,11703,24081,20676,18326,2
37,8,27,18931,11703,23940,20475,17530,2
66,-6,11,18875,11703,23870,20435,17357,2
13,14,17,18857,11716,23987,20475,17461,2
33,-6,15,18801,11716,23546,20475,17547,2
2,-5,7,18875,11766,23271,20435,18129,2
18,20,7,18727,11779,23067,20495,18508,2
55,26,8,18635,11766,23022,20475,18617,2
23,4,8,18635,11830,22932,20395,18344,2
60,-16,13,18599,11868,22910,20236,18182,2
-43,4,9,18599,11983,23022,20216,18200,2
61,7,1,18801,12073,23044,20196,18129,2
-17,-12,21,19155,12163,23022,20137,17915,2
29,6,23,19231,12176,23022,20078,17880,2
3,16,-1,19554,12280,23044,20078,17809,2
23,2,12,20275,12504,23112,20098,17915,2
81,19,8,20395,12530,23067,20216,18057,2
16,25,-8,20335,12530,22999,20117,17986,2
82,7,-4,20555,12504,22887,20039,17757,2
26,41,-10,20555,12398,22754,19960,17652,2
17,55,-16,20455,12398,22687,19921,17600,2
98,8,7,20435,12372,22665,19902,17495,2
114,21,-13,20395,12280,22621,19863,17461,2
256,85,17,20315,12176,22576,19785,17426,2
36,38,-20,20196,12163,22423,19766,17409,2
7,-4,2,19960,12150,22423,19689,17357,2
4,-28,-4,19843,12137,22379,19689,17357,2
-26,1,-14,19746,12137,22532,19766,17409,2
-6,41,-7,19689,12137,22621,19785,17443,2
-20,16,-1,19573,12163,22709,19727,17426,2
-7,6,6,19439,12124,22731,19766,17426,2
-4,5,3,18949,12112,22932,19766,17443,2
-18,4,13,18801,12112,22999,19785,17495,2
-44,15,0,18672,12086,23294,19843,17495,2
-18,11,18,18489,12086,23477,19921,17634,2
6,11,17,18272,12086,23754,20137,17757,2
12,11,6,18272,12086,23684,20117,17774,2
-4,14,6,18272,12112,23684,20098,17722,2
-52,-6,-7,18344,12112,23754,20098,17774,2
-98,10,-15,18453,12073,23870,20157,17757,2
-23,26,-37,18508,12073,24129,20196,17774,2
-79,6,-10,18362,12073,24438,20256,17774,2
-89,24,-8,18380,12086,24390,20236,17774,2
-36,7,-13,18362,12073,24462,20275,17774,2
-18,11,-20,19650,12372,24582,20415,17845,2
-33,-57,-31,20335,12411,24630,20475,17880,2
-6,30,7,20879,12398,24534,20495,17915,2
96,-19,1,21105,12385,24510,20495,17986,2
-52,-28,-25,20757,12398,24558,20515,17986,2
40,-47,-19,22932,12690,24799,20676,18075,2
4,-44,0,25490,13163,25118,20981,18236,2
4,30,7,25266,13177,25390,21146,18308,2
33,17,6,24534,13150,26513,21796,18617,2
24,-52,6,24271,13191,26961,22226,18635,2
28,-10,-1,24606,13287,27718,22820,18987,2
-20,5,-8,25742,13524,28812,23684,19401,2
60,35,-20,27310,13921,29100,23847,19497,2
-13,-17,5,27939,14108,29509,24105,19727,2
-33,17,-19,27800,13992,29805,24438,20058,2
-21,5,-8,26935,13835,30347,24873,20395,2
9,6,15,26566,13835,30838,25142,20696,2
-5,24,-9,26461,13835,30715,25093,20636,2
-19,26,-17,26357,13821,30715,24946,20395,2
-63,3,-5,26513,13806,30715,24897,20315,2
-16,-15,7,27718,14093,30530,24678,20157,2
-83,-38,-38,30499,14861,29865,24129,19516,2
-11,-49,-9,32866,15631,28357,23294,18968,2
-47,-46,16,33067,15964,27691,22798,18562,2
28,-67,9,33611,16287,27581,22754,18562,2
21,-18,32,33887,16615,27445,22709,18544,2
-7,59,17,33714,16681,27122,22576,18453,2
137,173,-8,33508,16549,27310,22643,18453,2
-25,74,27,32699,16287,27202,22621,18417,2
8,4,6,32173,16157,27202,22709,18435,2
36,50,-2,32173,16109,27148,22687,18435,2
13,-17,9,32108,16093,27095,22709,18489,2
-2,9,5,31913,15615,27041,22687,18489,2
12,20,26,31720,15043,26829,22643,18435,2
3,45,5,31402,14577,26723,22621,18508,2
21,27,6,31213,14341,26776,22576,18435,2
-7,28,-13,30838,14079,26829,22599,18453,2
64,76,7,28927,12905,26099,22423,18362,2
83,77,-17,26435,11754,25440,22270,18272,2
52,42,-35,25440,11553,25316,22205,18254,2
-27,42,-27,25118,11503,25044,22183,18236,2
14,5,-4,25044,11465,24946,22140,18164,2
13,22,-10,25093,11465,24995,22140,18200,2
3,22,-23,24995,11416,24824,22140,18200,2
-12,89,-19,24799,11354,24775,22075,18147,2
-71,30,12,24775,11317,24751,22096,18093,2
-23,1,5,24678,11304,24751,21989,18308,2
3,-13,-19,24606,11255,24751,22053,18093,2
-30,-3,-7,24534,11255,24727,22053,18093,2
-59,59,-26,24510,11219,24678,22053,18093,2
-1,43,-20,24318,11219,24606,22053,18093,2
58,55,-25,24199,11206,24582,22053,18147,2
34,64,-28,23754,11194,24318,21989,18290,2
59,60,-21,22843,11206,23777,21924,18308,2
60,8,5,22510,11194,23707,21903,18326,2
4,-4,-5,22599,11219,23684,21924,18344,2
-7,20,-4,22887,11231,23894,21989,18290,2
23,-31,1,23067,11231,23964,21989,18344,2
2,65,-26,20636,11243,25490,22532,18200,2
20,-60,-11,19573,11255,26618,23248,18508,2
18,-122,9,19401,11255,26670,23499,18857,2
36,-8,-2,18075,11219,27527,24366,19155,2
-32,-19,-21,17827,11219,27310,24247,19118,2
-2,-10,-6,17915,11219,27175,24223,19118,2
8,-29,-2,18182,11231,26988,23987,19024,2
-7,-37,16,18129,11219,26802,23754,18875,2
-110,1,-16,18057,11243,26776,23754,18857,2
-58,56,-41,17986,11231,26829,23684,18727,2
9,-5,15,17968,11231,26776,23661,18672,2
14,12,-2,18004,11243,26776,23661,18727,2
13,28,5,18129,11243,26723,23661,18709,2
-19,19,1,18236,11231,26723,23661,18709,2
-15,14,14,18236,11243,26697,23615,18709,2
-5,1,2,18147,11231,26670,23569,18691,2
-1,12,7,18093,11219,26670,23615,18635,2
25,2,0,18093,11243,26644,23615,18709,2
11,3,4,18057,11231,26618,23569,18635,2
15,17,-7,18057,11219,26644,23569,18654,2
-13,4,3,18057,11231,26644,23569,18672,2
3,4,-11,18075,11243,26618,23592,18672,2
-10,9,-16,18111,11231,26618,23569,18672,2
