GyroX,GyroY,GyroZ,Thumb,Index,Middle,Ring,Pinky,Gesture
0.0,0.0,0.0,16698,13693,10987,11855,29568,4
0.0,0.0,0.0,16681,14151,11024,11919,29597,4
0.0,0.0,0.0,16681,14108,11206,12034,29627,4
0.0,0.0,0.0,16698,13964,11503,12124,29627,4
0.0,0.0,0.0,16681,13821,11716,12163,29627,4
0.0,0.0,0.0,16698,13806,11754,12241,29746,4
0.0,0.0,0.0,16748,13878,11855,12267,29657,4
0.0,0.0,0.0,16731,13935,11881,12241,29627,4
0.0,0.0,0.0,16748,13935,11855,12202,29657,4
0.0,0.0,0.0,16748,14079,11830,12163,29627,4
0.0,0.0,0.0,16698,14311,11804,12112,29627,4
0.0,0.0,0.0,16681,14326,11804,12163,29627,4
0.0,0.0,0.0,16681,14282,11766,12112,29627,4
0.0,0.0,0.0,16681,14195,11754,12099,29538,4
0.0,0.0,0.0,16648,14195,11766,12112,29538,4
0.0,0.0,0.0,16648,14166,11716,12112,29538,4
0.0,0.0,0.0,16632,14151,11728,12073,29479,4
0.0,0.0,0.0,16681,14137,11754,12099,29509,4
0.0,0.0,0.0,16648,14137,11703,12099,29509,4
0.0,0.0,0.0,16681,14122,11703,12099,29479,4
0.0,0.0,0.0,16632,14108,11703,12086,29509,4
0.0,0.0,0.0,16681,14079,11653,12086,29538,4
0.0,0.0,0.0,16615,14079,11628,12060,29509,4
0.0,0.0,0.0,16648,14079,11640,12073,29538,4
0.0,0.0,0.0,16665,14050,11603,12060,29479,4
0.0,0.0,0.0,16665,14050,11578,12060,29597,4
0.0,0.0,0.0,16681,14108,11603,12060,29568,4
0.0,0.0,0.0,16681,14064,11565,12060,29568,4
0.0,0.0,0.0,16648,14050,11590,12060,29538,4
0.0,0.0,0.0,16648,14079,11553,12073,29538,4
0.0,0.0,0.0,16648,14079,11578,12060,29538,4
0.0,0.0,0.0,16681,14079,11578,12034,29568,4
0.0,0.0,0.0,16715,14064,11565,12060,29627,4
0.0,0.0,0.0,16681,14036,11565,12034,29509,4
0.0,0.0,0.0,16715,14079,11578,12060,29538,4
0.0,0.0,0.0,16715,14064,11553,12034,29509,4
0.0,0.0,0.0,16698,14036,11553,12021,29538,4
0.0,0.0,0.0,16681,14021,11553,12047,29509,4
0.0,0.0,0.0,16681,14036,11553,12021,29538,4
0.0,0.0,0.0,16681,14050,11553,12009,29538,4
0.0,0.0,0.0,16715,14151,11553,12009,29568,4
0.0,0.0,0.0,16715,14253,11528,12009,29597,4
0.0,0.0,0.0,16698,14282,11515,12034,29627,4
0.0,0.0,0.0,16748,14341,11453,12060,29627,4
0.0,0.0,0.0,16748,14458,11403,12073,29627,4
0.0,0.0,0.0,16781,14473,11403,12215,29627,4
0.0,0.0,0.0,16781,14429,11366,12320,29746,4
0.0,0.0,0.0,16815,14341,11366,12372,29775,4
0.0,0.0,0.0,16831,14253,11416,12424,29775,4
0.0,0.0,0.0,16831,14195,11453,12504,29865,4
0.0,0.0,0.0,16865,14195,11603,12596,29805,4
0.0,0.0,0.0,16882,14137,11665,12636,29925,4
0.0,0.0,0.0,16831,14108,11653,12610,29865,4
0.0,0.0,0.0,16831,14122,11640,12636,29835,4
0.0,0.0,0.0,16831,14137,11703,12636,29865,4
0.0,0.0,0.0,16831,14166,11703,12636,29865,4
0.0,0.0,0.0,16831,14166,11754,12663,29865,4
0.0,0.0,0.0,16865,14151,11703,12636,29895,4
0.0,0.0,0.0,16831,14195,11678,12636,29835,4
0.0,0.0,0.0,16882,14458,11653,12636,29865,4
0.0,0.0,0.0,16882,14801,11628,12636,29746,4
0.0,0.0,0.0,16848,14967,11603,12596,29746,4
0.0,0.0,0.0,16831,15165,11528,12530,29686,4
0.0,0.0,0.0,16815,15150,11453,12477,29686,4
0.0,0.0,0.0,16815,15150,11428,12490,29686,4
0.0,0.0,0.0,16831,15165,11465,12517,29686,4
0.0,0.0,0.0,16831,15211,11590,12583,29746,4
0.0,0.0,0.0,16831,15397,11804,12797,29865,4
0.0,0.0,0.0,16831,15459,11804,12770,29805,4
0.0,0.0,0.0,16781,15615,11830,12797,29895,4
0.0,0.0,0.0,16815,15647,11804,12770,29805,4
0.0,0.0,0.0,16748,15710,11754,12743,29805,4
0.0,0.0,0.0,16748,15647,11653,12649,29805,4
0.0,0.0,0.0,16748,15600,11603,12636,29835,4
0.0,0.0,0.0,16748,15397,11565,12610,29805,4
0.0,0.0,0.0,16748,15273,11603,12636,29746,4
0.0,0.0,0.0,16765,15013,11603,12690,29775,4
0.0,0.0,0.0,16765,14711,11665,12716,29775,4
0.0,0.0,0.0,16781,14636,11754,12932,29895,4
0.0,0.0,0.0,16781,14636,11766,13122,29955,4
0.0,0.0,0.0,16815,14607,11741,13122,30045,4
0.0,0.0,0.0,16781,14562,11678,13040,29984,4
0.0,0.0,0.0,16815,14547,11653,12972,29865,4
0.0,0.0,0.0,16781,14547,11578,12878,29805,4
0.0,0.0,0.0,16748,14562,11553,12824,29716,4
0.0,0.0,0.0,16748,14547,11515,12743,29805,4
0.0,0.0,0.0,16698,14696,11503,12703,29746,4
0.0,0.0,0.0,16715,14876,11465,12649,29746,4
0.0,0.0,0.0,16681,14846,11453,12636,29746,4
0.0,0.0,0.0,16681,14907,11416,12610,29746,4
0.0,0.0,0.0,16715,14922,11403,12596,29746,4
0.0,0.0,0.0,16698,14907,11391,12583,29657,4
0.0,0.0,0.0,16715,14666,11354,12636,29627,4
0.0,0.0,0.0,16748,14370,11416,12690,29657,4
0.0,0.0,0.0,16781,14282,11515,12797,29686,4
0.0,0.0,0.0,16781,14268,11515,12797,29686,4
0.0,0.0,0.0,16765,14224,11553,12824,29746,4
0.0,0.0,0.0,16748,14224,11615,12824,29746,4
0.0,0.0,0.0,16748,14209,11565,12810,29746,4
0.0,0.0,0.0,16748,14209,11653,12824,29657,4
0.0,0.0,0.0,16748,14195,11653,12851,29716,4
0.0,0.0,0.0,16748,14209,11779,12878,29716,4
0.0,0.0,0.0,16748,14166,11804,12905,29686,4
0.0,0.0,0.0,16781,14209,11817,12932,29627,4
0.0,0.0,0.0,16781,14166,11830,12918,29686,4
0.0,0.0,0.0,16748,14166,11817,12932,29657,4
0.0,0.0,0.0,16748,14166,11830,12945,29627,4
0.0,0.0,0.0,16765,14137,11830,12972,29627,4
0.0,0.0,0.0,16765,14151,11830,12972,29627,4
0.0,0.0,0.0,16765,14151,11804,12959,29509,4
0.0,0.0,0.0,16781,14151,11804,12959,29627,4
0.0,0.0,0.0,16815,14137,11830,12959,29568,4
0.0,0.0,0.0,16781,14166,11804,12972,29538,4
0.0,0.0,0.0,16815,14137,11804,12972,29627,4
0.0,0.0,0.0,16831,14166,11817,13013,29568,4
0.0,0.0,0.0,16815,14137,11855,12986,29509,4
0.0,0.0,0.0,16831,14108,11804,12959,29538,4
0.0,0.0,0.0,16831,14108,11804,12959,29538,4
0.0,0.0,0.0,16831,14108,11804,12945,29538,4
0.0,0.0,0.0,16831,14137,11817,12959,29509,4
0.0,0.0,0.0,16831,14137,11817,12959,29509,4
0.0,0.0,0.0,16815,14137,11804,12945,29538,4
0.0,0.0,0.0,16831,14137,11804,12918,29479,4
0.0,0.0,0.0,16882,14151,11804,12918,29509,4
0.0,0.0,0.0,16882,14137,11792,12918,29479,4
0.0,0.0,0.0,16882,14108,11779,12918,29509,4
0.0,0.0,0.0,16831,14137,11779,12905,29509,4
0.0,0.0,0.0,16848,14166,11779,12878,29509,4
0.0,0.0,0.0,16898,14180,11754,12878,29538,4
0.0,0.0,0.0,16831,14224,11653,12797,29509,4
0.0,0.0,0.0,16831,14195,11603,12756,29391,4
0.0,0.0,0.0,16848,14108,11553,12690,29509,4
0.0,0.0,0.0,16815,14079,11528,12676,29391,4
0.0,0.0,0.0,16882,14108,11528,12649,29450,4
0.0,0.0,0.0,16949,14050,11503,12663,29627,4
0.0,0.0,0.0,17016,14050,11503,12636,29657,4
0.0,0.0,0.0,17152,14021,11503,12636,29775,4
0.0,0.0,0.0,17152,13978,11453,12543,29805,4
0.0,0.0,0.0,17152,13935,11416,12477,29805,4
0.0,0.0,0.0,17152,13906,11416,12477,29746,4
0.0,0.0,0.0,17169,13764,11391,12424,29865,4
0.0,0.0,0.0,17220,13679,11391,12346,29865,4
0.0,0.0,0.0,17186,13566,11366,12320,29746,4
0.0,0.0,0.0,17220,13510,11354,12346,29746,4
0.0,0.0,0.0,17186,13510,11366,12320,29746,4
0.0,0.0,0.0,17220,13510,11354,12346,29716,4
0.0,0.0,0.0,17237,13496,11317,12306,29746,4
0.0,0.0,0.0,17237,13510,11255,12306,29657,4
0.0,0.0,0.0,17220,13482,11145,12306,29686,4
0.0,0.0,0.0,17220,13496,11133,12306,29746,4
0.0,0.0,0.0,17186,13510,11157,12320,29686,4
0.0,0.0,0.0,17186,13510,11157,12372,29686,4
0.0,0.0,0.0,17169,13524,11182,12398,29627,4
0.0,0.0,0.0,17169,13510,11206,12398,29686,4
0.0,0.0,0.0,17203,13482,11268,12398,29627,4
0.0,0.0,0.0,17254,13454,11317,12424,29686,4
0.0,0.0,0.0,17289,13371,11354,12424,29746,4
0.0,0.0,0.0,17306,13371,11317,12438,29746,4
0.0,0.0,0.0,17357,13343,11354,12424,29746,4
0.0,0.0,0.0,17289,13371,11329,12451,29775,4
0.0,0.0,0.0,17306,13412,11341,12477,29746,4
0.0,0.0,0.0,17323,13398,11304,12424,29657,4
0.0,0.0,0.0,17289,13398,11329,12438,29686,4
0.0,0.0,0.0,17289,13357,11317,12424,29686,4
0.0,0.0,0.0,17289,13398,11304,12424,29657,4
0.0,0.0,0.0,17254,13343,11280,12411,29686,4
0.0,0.0,0.0,17254,13357,11231,12372,29627,4
0.0,0.0,0.0,17254,13315,11206,12372,29746,4
0.0,0.0,0.0,17220,13315,11182,12346,29775,4
0.0,0.0,0.0,17220,13260,11157,12346,29746,4
0.0,0.0,0.0,17186,13232,11109,12320,29686,4
0.0,0.0,0.0,17186,13232,11084,12306,29746,4
0.0,0.0,0.0,17152,13232,11060,12280,29746,4
0.0,0.0,0.0,17169,13205,11036,12267,29775,4
0.0,0.0,0.0,17135,13205,11024,12241,29746,4
0.0,0.0,0.0,17050,13191,10987,12163,29835,4
0.0,0.0,0.0,17016,13177,10915,12112,29775,4
0.0,0.0,0.0,16966,13177,10879,12073,29865,4
0.0,0.0,0.0,16983,13177,10867,12073,29835,4
0.0,0.0,0.0,16966,13177,10867,12047,29865,4
0.0,0.0,0.0,16949,13150,10867,12047,29925,4
0.0,0.0,0.0,16966,13150,10831,12009,29895,4
0.0,0.0,0.0,16949,13122,10819,11983,29984,4
0.0,0.0,0.0,16898,13068,10783,11983,29895,4
0.0,0.0,0.0,16932,13040,10771,11957,29984,4
0.0,0.0,0.0,16898,12999,10748,11906,29895,4
0.0,0.0,0.0,16815,12959,10712,11906,29984,4
0.0,0.0,0.0,16898,12959,10724,11906,29984,4
0.0,0.0,0.0,16882,12945,10724,11906,29895,4
0.0,0.0,0.0,16848,12918,10748,11906,29865,4
0.0,0.0,0.0,16848,12959,10712,11881,29925,4
0.0,0.0,0.0,16848,12918,10724,11906,29865,4
0.0,0.0,0.0,16949,12932,10724,11893,29865,4
0.0,0.0,0.0,16915,12932,10724,11906,29775,4
0.0,0.0,0.0,16915,12932,10724,11906,29865,4
0.0,0.0,0.0,16915,12905,10724,11919,29775,4
0.0,0.0,0.0,16915,12932,10724,11906,29895,4
0.0,0.0,0.0,16915,12918,10748,11906,29775,4
0.0,0.0,0.0,16882,12918,10724,11906,29865,4
0.0,0.0,0.0,16898,12932,10724,11906,29805,4
0.0,0.0,0.0,16865,12918,10724,11906,29775,4
0.0,0.0,0.0,16882,12918,10724,11906,29835,4
0.0,0.0,0.0,16898,12918,10724,11906,29775,4
0.0,0.0,0.0,16898,12932,10724,11906,29775,4
0.0,0.0,0.0,16882,12932,10712,11906,29775,4
0.0,0.0,0.0,16898,12918,10724,11906,29865,4
0.0,0.0,0.0,16915,12959,10724,11957,29835,4
0.0,0.0,0.0,16882,13013,10700,11957,29805,4
0.0,0.0,0.0,16882,13013,10688,11944,29835,4
0.0,0.0,0.0,16915,13013,10688,11970,29925,4
0.0,0.0,0.0,16882,13013,10700,11957,29865,4
0.0,0.0,0.0,16882,13013,10688,11957,29865,4
0.0,0.0,0.0,16932,13013,10688,11957,29865,4
0.0,0.0,0.0,16898,12999,10688,11957,29865,4
0.0,0.0,0.0,16898,12986,10688,11957,29805,4
0.0,0.0,0.0,16915,12986,10688,11944,29835,4
0.0,0.0,0.0,16932,13013,10712,11957,29835,4
0.0,0.0,0.0,16898,12986,10688,11932,29805,4
0.0,0.0,0.0,16898,12986,10688,11957,29835,4
0.0,0.0,0.0,16898,12986,10700,11932,29805,4
0.0,0.0,0.0,16898,13013,10688,11932,29865,4
0.0,0.0,0.0,16882,12972,10688,11932,29775,4
0.0,0.0,0.0,16882,13013,10700,11932,29746,4
0.0,0.0,0.0,16865,12972,10688,11957,29775,4
0.0,0.0,0.0,16831,13013,10688,11932,29805,4
0.0,0.0,0.0,16882,12972,10688,11957,29775,4
0.0,0.0,0.0,16831,13013,10700,11957,29835,4
0.0,0.0,0.0,16882,13013,10700,11957,29775,4
0.0,0.0,0.0,16882,13013,10688,11919,29805,4
0.0,0.0,0.0,16848,13013,10688,11932,29805,4
0.0,0.0,0.0,16865,13013,10688,11932,29686,4
0.0,0.0,0.0,16848,13013,10688,11906,29805,4
0.0,0.0,0.0,16848,13013,10700,11957,29686,4
0.0,0.0,0.0,16882,12986,10676,11957,29746,4
0.0,0.0,0.0,16831,12986,10676,11932,29686,4
0.0,0.0,0.0,16831,12986,10676,11957,29686,4
0.0,0.0,0.0,16848,12972,10712,11932,29746,4
0.0,0.0,0.0,16831,13027,10688,11932,29686,4
0.0,0.0,0.0,16815,12999,10676,11957,29627,4
0.0,0.0,0.0,16831,12972,10688,11957,29686,4
0.0,0.0,0.0,16831,12972,10700,11957,29627,4
0.0,0.0,0.0,16831,13013,10688,11932,29657,4
0.0,0.0,0.0,16831,13027,10688,11919,29686,4
0.0,0.0,0.0,16865,12986,10700,11932,29627,4
0.0,0.0,0.0,16831,13013,10688,11957,29657,4
0.0,0.0,0.0,16831,13013,10688,11932,29627,4
0.0,0.0,0.0,16831,13013,10712,11919,29627,4
0.0,0.0,0.0,16831,13013,10688,11919,29568,4
0.0,0.0,0.0,16831,12972,10688,11944,29627,4
0.0,0.0,0.0,16831,12972,10676,11957,29657,4
0.0,0.0,0.0,16865,13013,10700,11932,29627,4
0.0,0.0,0.0,16882,13013,10688,11957,29568,4
0.0,0.0,0.0,16831,12999,10688,11932,29568,4
0.0,0.0,0.0,16831,13013,10688,11932,29686,4
0.0,0.0,0.0,16831,13027,10700,11932,29627,4
0.0,0.0,0.0,16882,13013,10676,11932,29568,4
0.0,0.0,0.0,16831,13013,10700,11957,29597,4
0.0,0.0,0.0,16915,12999,10688,11932,29568,4
0.0,0.0,0.0,16882,12986,10688,11944,29627,4
0.0,0.0,0.0,16882,12972,10688,11932,29686,4
0.0,0.0,0.0,16882,12986,10700,11957,29627,4
0.0,0.0,0.0,16848,12972,10676,11932,29568,4
0.0,0.0,0.0,16831,12972,10688,11957,29538,4
0.0,0.0,0.0,16848,12986,10688,11957,29627,4
0.0,0.0,0.0,16882,12959,10688,11957,29627,4
0.0,0.0,0.0,16865,12999,10676,11944,29597,4
0.0,0.0,0.0,16882,12945,10688,11957,29568,4
0.0,0.0,0.0,16882,12959,10676,11957,29627,4
0.0,0.0,0.0,16865,12959,10676,11919,29568,4
0.0,0.0,0.0,16831,12986,10700,11957,29627,4
0.0,0.0,0.0,16882,12986,10700,11957,29568,4
0.0,0.0,0.0,16882,12972,10688,11983,29597,4
0.0,0.0,0.0,16882,12972,10676,11983,29657,4
0.0,0.0,0.0,16831,12986,10688,11983,29627,4
0.0,0.0,0.0,16882,12972,10676,11970,29627,4
0.0,0.0,0.0,16882,12986,10676,11970,29568,4
0.0,0.0,0.0,16831,12986,10700,11957,29597,4
0.0,0.0,0.0,16848,12986,10724,11957,29568,4
0.0,0.0,0.0,16831,12972,10676,11970,29627,4
0.0,0.0,0.0,16831,12959,10700,11983,29597,4
0.0,0.0,0.0,16831,12959,10676,11983,29627,4
0.0,0.0,0.0,16831,12972,10700,11983,29597,4
0.0,0.0,0.0,16831,12959,10688,11957,29627,4
0.0,0.0,0.0,16815,12986,10676,11957,29627,4
0.0,0.0,0.0,16831,12972,10700,11983,29568,4
0.0,0.0,0.0,16831,12986,10676,11970,29538,4
0.0,0.0,0.0,16831,12972,10700,12009,29538,4
0.0,0.0,0.0,16848,12999,10688,11983,29597,4
0.0,0.0,0.0,16882,13013,10700,11957,29538,4
0.0,0.0,0.0,16882,12972,10676,11983,29538,4
0.0,0.0,0.0,16831,13013,10676,11970,29479,4
0.0,0.0,0.0,16815,12986,10700,11983,29509,4
0.0,0.0,0.0,16815,12972,10676,11957,29509,4
0.0,0.0,0.0,16831,12986,10688,11957,29479,4
0.0,0.0,0.0,16882,13013,10700,11957,29509,4
0.0,0.0,0.0,16831,12986,10676,11957,29509,4
0.0,0.0,0.0,16831,13013,10676,11957,29568,4
0.0,0.0,0.0,16815,12986,10688,11957,29509,4
0.0,0.0,0.0,16815,13013,10700,11957,29509,4
0.0,0.0,0.0,16831,13013,10712,11957,29479,4
0.0,0.0,0.0,16831,12972,10700,11957,29421,4
0.0,0.0,0.0,16831,13013,10688,11957,29450,4
0.0,0.0,0.0,16831,12986,10700,11957,29450,4
0.0,0.0,0.0,16831,13013,10688,12021,29450,4
0.0,0.0,0.0,16831,13013,10700,11957,29509,4
0.0,0.0,0.0,16831,12972,10676,11957,29509,4
0.0,0.0,0.0,16831,13013,10700,11957,29450,4
0.0,0.0,0.0,16831,13013,10676,11957,29479,4
0.0,0.0,0.0,16831,13013,10676,11957,29450,4
0.0,0.0,0.0,16815,12972,10676,11957,29450,4
0.0,0.0,0.0,16831,13013,10688,11957,29479,4
0.0,0.0,0.0,16815,13013,10676,11957,29479,4
0.0,0.0,0.0,16848,13013,10700,11957,29509,4
0.0,0.0,0.0,16831,13013,10700,11957,29568,4
0.0,0.0,0.0,16831,12972,10688,11957,29450,4
0.0,0.0,0.0,16815,13013,10676,11957,29450,4
0.0,0.0,0.0,16831,13027,10688,11957,29509,4
0.0,0.0,0.0,16815,13040,10688,11957,29509,4
0.0,0.0,0.0,16831,13122,10688,11957,29450,4
0.0,0.0,0.0,16831,13177,10676,11970,29421,4
0.0,0.0,0.0,16882,13246,10688,11983,29391,4
0.0,0.0,0.0,16831,13454,10724,12060,29479,4
0.0,0.0,0.0,16898,13636,10724,12112,29509,4
0.0,0.0,0.0,16915,14666,10771,12189,29479,4
0.0,0.0,0.0,16898,14786,10771,12241,29509,4
0.0,0.0,0.0,16932,14399,11072,12346,29509,4
0.0,0.0,0.0,16966,14036,11182,12372,29450,4
0.0,0.0,0.0,16983,14021,11403,12543,29538,4
0.0,0.0,0.0,17016,13906,11478,12690,29568,4
0.0,0.0,0.0,17084,13863,11490,13594,29627,4
0.0,0.0,0.0,17186,13849,11403,14021,29509,4
0.0,0.0,0.0,17152,13764,11317,13935,29627,4
0.0,0.0,0.0,17152,13707,11255,13679,29450,4
0.0,0.0,0.0,17152,13707,11231,13426,29274,4
0.0,0.0,0.0,17152,13707,11280,13343,29245,4
0.0,0.0,0.0,17152,13679,11255,13260,29245,4
0.0,0.0,0.0,17084,13693,11280,13260,29158,4
0.0,0.0,0.0,17084,13735,11304,13246,29216,4
0.0,0.0,0.0,17084,13679,11280,13205,29158,4
0.0,0.0,0.0,17033,13650,11231,13177,29158,4
0.0,0.0,0.0,17067,13650,11219,13136,29071,4
0.0,0.0,0.0,17050,13650,11206,13095,29100,4
0.0,0.0,0.0,17033,13650,11182,13068,29100,4
0.0,0.0,0.0,17050,13650,11182,13054,29042,4
0.0,0.0,0.0,17016,13622,11182,13040,29013,4
0.0,0.0,0.0,17033,13622,11157,13013,29042,4
0.0,0.0,0.0,17016,13594,11157,13013,28955,4
0.0,0.0,0.0,17016,13622,11157,12986,28927,4
0.0,0.0,0.0,17016,13594,11157,12972,28898,4
0.0,0.0,0.0,17033,13622,11157,12972,28898,4
0.0,0.0,0.0,17033,13622,11157,12972,28927,4
0.0,0.0,0.0,17050,13622,11157,12972,28927,4
0.0,0.0,0.0,17033,13580,11157,12986,28984,4
0.0,0.0,0.0,16983,13594,11133,12972,28927,4
0.0,0.0,0.0,16983,13608,11157,12959,28927,4
0.0,0.0,0.0,17016,13594,11157,12959,28955,4
0.0,0.0,0.0,17016,13580,11121,12945,28984,4
0.0,0.0,0.0,17016,13594,11109,12932,28898,4
0.0,0.0,0.0,16999,13608,11121,12959,28927,4
0.0,0.0,0.0,17016,13580,11109,12959,28869,4
0.0,0.0,0.0,17016,13679,11109,12959,28898,4
0.0,0.0,0.0,17016,13608,11084,12932,28927,4
0.0,0.0,0.0,16983,13594,11109,12959,28927,4
0.0,0.0,0.0,17016,13566,11084,12959,28984,4
0.0,0.0,0.0,17016,13566,11060,12986,28927,4
0.0,0.0,0.0,17016,13594,11060,12959,28984,4
0.0,0.0,0.0,17016,13566,11060,12959,28984,4
0.0,0.0,0.0,16999,13566,11036,12959,28869,4
0.0,0.0,0.0,17016,13566,11024,12932,28984,4
0.0,0.0,0.0,16983,13566,11048,12945,29042,4
0.0,0.0,0.0,16966,13566,11012,12959,28927,4
0.0,0.0,0.0,16983,13566,11012,12905,28927,4
0.0,0.0,0.0,16966,13538,11012,12864,28927,4
0.0,0.0,0.0,16999,13566,10987,12864,28955,4
0.0,0.0,0.0,16999,13538,10987,12837,28984,4
0.0,0.0,0.0,16949,13524,10963,12770,28955,4
0.0,0.0,0.0,16949,13566,10939,12743,29013,4
0.0,0.0,0.0,16949,13524,10939,12716,28955,4
0.0,0.0,0.0,16966,13524,10927,12703,28955,4
0.0,0.0,0.0,16983,13510,10915,12703,28927,4
0.0,0.0,0.0,16949,13510,10915,12716,28927,4
0.0,0.0,0.0,16966,13524,10927,12703,28955,4
0.0,0.0,0.0,16949,13454,10915,12690,28984,4
0.0,0.0,0.0,16966,13468,10915,12676,28955,4
0.0,0.0,0.0,17016,13398,10891,12663,28927,4
0.0,0.0,0.0,17016,13343,10867,12610,28927,4
0.0,0.0,0.0,17016,13287,10819,12556,28984,4
0.0,0.0,0.0,16999,13260,10819,12530,28927,4
0.0,0.0,0.0,17016,13287,10807,12504,28984,4
0.0,0.0,0.0,17016,13246,10819,12530,28984,4
0.0,0.0,0.0,17016,13274,10795,12504,28955,4
0.0,0.0,0.0,17050,13260,10795,12477,28955,4
0.0,0.0,0.0,17033,13232,10783,12438,28927,4
0.0,0.0,0.0,17033,13246,10795,12424,29042,4
0.0,0.0,0.0,17016,13260,10771,12424,29042,4
0.0,0.0,0.0,17033,13232,10771,12424,29042,4
0.0,0.0,0.0,17033,13260,10771,12424,29013,4
0.0,0.0,0.0,17016,13232,10795,12398,28955,4
0.0,0.0,0.0,17016,13218,10771,12398,28898,4
0.0,0.0,0.0,17033,13232,10783,12398,28927,4
0.0,0.0,0.0,17016,13205,10771,12385,28955,4
0.0,0.0,0.0,17050,13232,10771,12385,28869,4
0.0,0.0,0.0,16983,13246,10771,12398,28927,4
0.0,0.0,0.0,16999,13232,10771,12372,28984,4
0.0,0.0,0.0,16999,13205,10771,12372,28955,4
0.0,0.0,0.0,17016,13232,10771,12385,28955,4
0.0,0.0,0.0,17016,13232,10771,12372,28955,4
0.0,0.0,0.0,16999,13232,10771,12385,28927,4
0.0,0.0,0.0,16949,13246,10771,12372,28869,4
0.0,0.0,0.0,17016,13232,10771,12372,28927,4
0.0,0.0,0.0,16983,13218,10771,12372,28927,4
0.0,0.0,0.0,16966,13177,10759,12372,28927,4
0.0,0.0,0.0,16983,13122,10771,12372,28927,4
0.0,0.0,0.0,17016,12905,10783,12346,28955,4
0.0,0.0,0.0,17016,12797,10795,12398,28955,4
0.0,0.0,0.0,16999,12797,10867,12464,28955,4
0.0,0.0,0.0,17033,12851,10891,12504,28927,4
0.0,0.0,0.0,17084,12905,11060,12583,28955,4
0.0,0.0,0.0,17067,13054,11036,12596,28955,4
0.0,0.0,0.0,17101,13315,11304,12596,28869,4
0.0,0.0,0.0,17135,13524,11354,12583,28898,4
0.0,0.0,0.0,17152,13622,11428,12583,28927,4
0.0,0.0,0.0,17152,13608,11403,12438,28869,4
0.0,0.0,0.0,17254,13426,11304,12398,28927,4
0.0,0.0,0.0,17220,13343,11157,12346,28927,4
0.0,0.0,0.0,17220,13218,11060,12267,28869,4
0.0,0.0,0.0,17169,13068,11036,12228,28984,4
0.0,0.0,0.0,17152,12959,11036,12267,29071,4
0.0,0.0,0.0,17152,13232,11109,12267,29013,4
0.0,0.0,0.0,17118,13978,11121,12306,29042,4
0.0,0.0,0.0,17067,14079,11072,12267,28927,4
0.0,0.0,0.0,17101,13566,10963,12215,29042,4
0.0,0.0,0.0,17101,12986,10915,12215,29274,4
0.0,0.0,0.0,17084,12730,10891,12202,29158,4
0.0,0.0,0.0,17220,12583,10987,12320,29274,4
0.0,0.0,0.0,17186,12583,11024,12372,29274,4
0.0,0.0,0.0,17220,12556,11036,12372,29333,4
0.0,0.0,0.0,17289,12570,11024,12398,29274,4
0.0,0.0,0.0,17306,12583,11084,12424,29333,4
0.0,0.0,0.0,17289,12663,11084,12451,29158,4
0.0,0.0,0.0,17254,12690,11060,12477,29158,4
0.0,0.0,0.0,17289,12703,11012,12451,29100,4
0.0,0.0,0.0,17220,12716,10963,12424,29071,4
0.0,0.0,0.0,17220,12690,10927,12372,29274,4
0.0,0.0,0.0,17220,12690,10915,12267,29333,4
0.0,0.0,0.0,17220,12703,10915,12215,29304,4
0.0,0.0,0.0,17186,12703,10891,12189,29421,4
0.0,0.0,0.0,17169,12716,10915,12215,29304,4
0.0,0.0,0.0,17186,12756,10891,12176,29362,4
0.0,0.0,0.0,17220,12797,10891,12176,29274,4
0.0,0.0,0.0,17237,12810,10891,12137,29274,4
0.0,0.0,0.0,17220,12824,10879,12124,29274,4
0.0,0.0,0.0,17220,12878,10867,12086,29245,4
0.0,0.0,0.0,17186,12824,10843,12099,29216,4
0.0,0.0,0.0,17186,12851,10819,12060,29158,4
0.0,0.0,0.0,17152,12851,10819,12021,29158,4
0.0,0.0,0.0,17152,12837,10819,12021,29274,4
0.0,0.0,0.0,17169,12824,10795,12021,29274,4
0.0,0.0,0.0,17118,12824,10795,12009,29216,4
0.0,0.0,0.0,17152,12851,10795,11983,29274,4
0.0,0.0,0.0,17152,12864,10771,11970,29333,4
0.0,0.0,0.0,17152,13081,10748,11983,29333,4
0.0,0.0,0.0,17152,13068,10724,12009,29304,4
0.0,0.0,0.0,17118,13150,10748,12021,29391,4
0.0,0.0,0.0,17169,13081,10748,12124,29479,4
0.0,0.0,0.0,17152,13122,10759,12189,29538,4
0.0,0.0,0.0,17152,13122,10771,12346,29627,4
0.0,0.0,0.0,17152,13122,10783,12530,29716,4
0.0,0.0,0.0,17169,13150,11060,12743,29746,4
0.0,0.0,0.0,17152,13163,11329,12690,29657,4
0.0,0.0,0.0,17186,13232,11503,12663,29627,4
0.0,0.0,0.0,17152,13329,11528,12636,29657,4
0.0,0.0,0.0,17152,13650,11565,12690,29627,4
0.0,0.0,0.0,17118,13992,11603,12636,29538,4
0.0,0.0,0.0,17084,14503,11578,12583,29450,4
0.0,0.0,0.0,17084,14607,11553,12543,29479,4
0.0,0.0,0.0,17084,14209,11453,12451,29391,4
0.0,0.0,0.0,17067,13906,11268,12424,29333,4
0.0,0.0,0.0,17050,13580,11157,12398,29391,4
0.0,0.0,0.0,17050,13426,11072,12372,29421,4
0.0,0.0,0.0,17050,13287,11060,12385,29391,4
0.0,0.0,0.0,17033,13246,11012,12372,29391,4
0.0,0.0,0.0,17050,13177,10987,12346,29391,4
0.0,0.0,0.0,17050,13136,10963,12346,29391,4
0.0,0.0,0.0,17016,13150,10927,12346,29362,4
0.0,0.0,0.0,17033,13150,10927,12320,29333,4
0.0,0.0,0.0,17033,13150,10915,12320,29391,4
0.0,0.0,0.0,17050,13150,10915,12306,29274,4
0.0,0.0,0.0,17016,13163,10903,12320,29391,4
0.0,0.0,0.0,17050,13177,10891,12320,29274,4
0.0,0.0,0.0,17033,13150,10915,12320,29304,4
0.0,0.0,0.0,17033,13150,10915,12320,29274,4
0.0,0.0,0.0,17067,13177,10915,12320,29274,4
0.0,0.0,0.0,17016,13177,10915,12320,29304,4
0.0,0.0,0.0,17016,13150,10891,12320,29333,4
0.0,0.0,0.0,17016,13150,10915,12320,29304,4
0.0,0.0,0.0,17016,13150,10915,12333,29274,4
0.0,0.0,0.0,17050,13150,10891,12320,29245,4
0.0,0.0,0.0,17016,13150,10915,12320,29274,4
0.0,0.0,0.0,17016,13177,10891,12293,29274,4
0.0,0.0,0.0,17050,13136,10915,12320,29216,4
0.0,0.0,0.0,17033,13150,10903,12306,29245,4
0.0,0.0,0.0,17050,13177,10915,12333,29216,4
0.0,0.0,0.0,17050,13177,10915,12320,29274,4
0.0,0.0,0.0,17050,13205,10891,12320,29304,4
0.0,0.0,0.0,17033,13524,10903,12372,29274,4
0.0,0.0,0.0,17016,13650,10963,12424,29216,4
0.0,0.0,0.0,17033,13650,11024,12490,29187,4
0.0,0.0,0.0,17016,13622,11024,12504,29216,4
0.0,0.0,0.0,17016,13594,11036,12517,29216,4
0.0,0.0,0.0,17016,13566,11072,12517,29187,4
0.0,0.0,0.0,17016,13538,11109,12583,29216,4
0.0,0.0,0.0,17033,13510,11157,12596,29216,4
0.0,0.0,0.0,17050,13524,11182,12610,29216,4
0.0,0.0,0.0,17050,13510,11182,12583,29216,4
0.0,0.0,0.0,17050,13510,11157,12596,29100,4
0.0,0.0,0.0,17050,13510,11157,12583,29129,4
0.0,0.0,0.0,17016,13510,11170,12583,29100,4
0.0,0.0,0.0,17016,13454,11157,12583,29158,4
0.0,0.0,0.0,17016,13524,11157,12583,29216,4
0.0,0.0,0.0,17033,13468,11157,12583,29187,4
0.0,0.0,0.0,17050,13496,11157,12583,29158,4
0.0,0.0,0.0,17050,13636,11206,12583,29274,4
0.0,0.0,0.0,17016,13707,11304,12610,29158,4
0.0,0.0,0.0,17084,13764,11503,12690,29274,4
0.0,0.0,0.0,17084,13679,11540,12716,29158,4
0.0,0.0,0.0,17084,13566,11503,12676,29274,4
0.0,0.0,0.0,17101,13468,11528,12797,29362,4
0.0,0.0,0.0,17169,13357,11453,13054,29450,4
0.0,0.0,0.0,17152,13260,11354,13068,29391,4
0.0,0.0,0.0,17152,13232,11304,12986,29391,4
0.0,0.0,0.0,17152,13246,11280,12905,29274,4
0.0,0.0,0.0,17152,13232,11255,12810,29216,4
0.0,0.0,0.0,17152,13218,11231,12743,29187,4
0.0,0.0,0.0,17118,13232,11206,12730,29187,4
0.0,0.0,0.0,17118,13260,11182,12690,29158,4
0.0,0.0,0.0,17118,13343,11182,12690,29013,4
0.0,0.0,0.0,17084,13343,11206,12649,29071,4
0.0,0.0,0.0,17118,13398,11206,12649,28927,4
0.0,0.0,0.0,17118,13384,11206,12649,29013,4
0.0,0.0,0.0,17084,13343,11206,12636,28984,4
0.0,0.0,0.0,17101,13343,11182,12610,28955,4
0.0,0.0,0.0,17084,13301,11133,12556,29071,4
0.0,0.0,0.0,17084,13260,11060,12424,28984,4
0.0,0.0,0.0,17118,13232,11012,12398,28955,4
0.0,0.0,0.0,17084,13205,11012,12424,28927,4
0.0,0.0,0.0,17084,13191,11012,12398,28984,4
0.0,0.0,0.0,17084,13205,11012,12372,29042,4
0.0,0.0,0.0,17118,13232,10987,12385,28984,4
0.0,0.0,0.0,17084,13205,11012,12398,28955,4
0.0,0.0,0.0,17067,13177,10987,12398,28927,4
0.0,0.0,0.0,17050,13191,11012,12398,28955,4
0.0,0.0,0.0,17084,13205,11012,12398,28984,4
0.0,0.0,0.0,17101,13232,11012,12372,28898,4
0.0,0.0,0.0,17033,13191,11012,12385,28955,4
0.0,0.0,0.0,17084,13205,10987,12372,28955,4
0.0,0.0,0.0,17084,13260,10975,12372,28955,4
0.0,0.0,0.0,17101,13287,10843,12372,29042,4
0.0,0.0,0.0,17067,13232,10795,12293,29100,4
0.0,0.0,0.0,17050,13177,10771,12320,29042,4
0.0,0.0,0.0,17084,13177,10771,12346,29042,4
0.0,0.0,0.0,17084,13177,10795,12346,29042,4
0.0,0.0,0.0,17050,13095,10795,12372,29100,4
0.0,0.0,0.0,16966,13068,10783,12398,29129,4
0.0,0.0,0.0,17033,13095,10783,12372,29100,4
0.0,0.0,0.0,17050,13109,10783,12320,29158,4
0.0,0.0,0.0,17050,13095,10783,12372,29042,4
0.0,0.0,0.0,17101,13068,10819,12398,29100,4
0.0,0.0,0.0,17118,13081,10891,12583,29158,4
0.0,0.0,0.0,17152,13122,10891,12636,29274,4
0.0,0.0,0.0,17169,13150,10963,12636,29391,4
0.0,0.0,0.0,17118,13246,11060,12636,29509,4
0.0,0.0,0.0,17084,13398,11170,12610,29568,4
0.0,0.0,0.0,17033,13454,11206,12636,29775,4
0.0,0.0,0.0,17118,13650,11403,12610,29865,4
0.0,0.0,0.0,17152,13636,11403,12610,30045,4
0.0,0.0,0.0,17135,13510,11280,12490,30226,4
0.0,0.0,0.0,17101,13454,11206,12477,30165,4
0.0,0.0,0.0,17101,13398,11182,12424,30135,4
0.0,0.0,0.0,17152,13426,11157,12398,30045,4
0.0,0.0,0.0,17220,13454,11157,12372,29925,4
0.0,0.0,0.0,17220,13371,11157,12372,29865,4
0.0,0.0,0.0,17237,13398,11157,12372,29895,4
0.0,0.0,0.0,17169,13371,11133,12385,29865,4
0.0,0.0,0.0,17152,13343,11133,12372,29805,4
0.0,0.0,0.0,17169,13371,11133,12372,29805,4
0.0,0.0,0.0,17203,13371,11133,12372,29865,4
0.0,0.0,0.0,17169,13329,11133,12346,29746,4
0.0,0.0,0.0,17152,13315,11072,12320,29865,4
0.0,0.0,0.0,17135,13315,11109,12320,29686,4
0.0,0.0,0.0,17169,13315,11096,12320,29746,4
0.0,0.0,0.0,17152,13287,11084,12320,29686,4
0.0,0.0,0.0,17152,13287,11072,12320,29686,4
0.0,0.0,0.0,17152,13287,11060,12306,29686,4
0.0,0.0,0.0,17152,13287,11060,12320,29627,4
0.0,0.0,0.0,17152,13287,11060,12320,29716,4
0.0,0.0,0.0,17152,13274,11060,12320,29746,4
0.0,0.0,0.0,17118,13287,11036,12293,29716,4
0.0,0.0,0.0,17084,13260,11060,12320,29657,4
0.0,0.0,0.0,17084,13260,11036,12333,29657,4
0.0,0.0,0.0,17101,13232,11036,12320,29716,4
0.0,0.0,0.0,17169,13246,11060,12320,29657,4
0.0,0.0,0.0,17118,13260,11024,12320,29775,4
0.0,0.0,0.0,17169,13205,11036,12320,29775,4
0.0,0.0,0.0,17152,13191,11012,12293,29746,4
0.0,0.0,0.0,17340,13013,11024,12215,29391,4
0.0,0.0,0.0,17495,12797,11036,12451,29421,4
0.0,0.0,0.0,17374,12851,11024,12583,29479,4
0.0,0.0,0.0,17340,13122,11231,12703,29450,4
0.0,0.0,0.0,17289,13232,11317,12690,29450,4
0.0,0.0,0.0,17426,13679,11653,12797,29568,4
0.0,0.0,0.0,17357,13594,11615,12756,29686,4
0.0,0.0,0.0,17392,13821,11703,12797,29509,4
0.0,0.0,0.0,17357,13849,11703,12716,29450,4
0.0,0.0,0.0,17306,14050,11628,12690,29391,4
0.0,0.0,0.0,17289,14846,11280,12477,29450,4
0.0,0.0,0.0,17220,14982,11109,12504,29391,4
0.0,0.0,0.0,17254,13964,10987,12797,29568,4
0.0,0.0,0.0,17254,13821,11060,13357,29746,4
0.0,0.0,0.0,17220,13764,11133,13849,29775,4
0.0,0.0,0.0,17306,13679,11255,14711,29895,4
0.0,0.0,0.0,17306,13679,11304,15288,29955,4
0.0,0.0,0.0,17357,13707,11379,15428,29925,4
0.0,0.0,0.0,17323,13707,11379,14726,29746,4
0.0,0.0,0.0,17254,13749,11453,13935,29509,4
0.0,0.0,0.0,17220,14050,11628,13398,29362,4
0.0,0.0,0.0,17169,14021,11653,13260,29362,4
0.0,0.0,0.0,17169,14195,11716,13260,29245,4
0.0,0.0,0.0,17186,14195,11754,13191,29245,4
0.0,0.0,0.0,17186,14195,11779,13136,29187,4
0.0,0.0,0.0,17186,14209,11804,13040,29158,4
0.0,0.0,0.0,17152,14195,11716,13040,29216,4
0.0,0.0,0.0,17220,13935,11628,12959,29158,4
0.0,0.0,0.0,17186,13792,11528,12905,29216,4
0.0,0.0,0.0,17220,13735,11478,12797,29100,4
0.0,0.0,0.0,17186,13580,11453,12797,29158,4
0.0,0.0,0.0,17203,13454,11366,12770,29129,4
0.0,0.0,0.0,17152,13454,11317,12703,29071,4
0.0,0.0,0.0,17186,13468,11304,12676,29071,4
0.0,0.0,0.0,17152,13454,11280,12703,29071,4
0.0,0.0,0.0,17152,13426,11255,12636,28984,4
0.0,0.0,0.0,17152,13398,11255,12636,29042,4
0.0,0.0,0.0,17152,13398,11231,12649,29071,4
0.0,0.0,0.0,17118,13343,11194,12636,29013,4
0.0,0.0,0.0,17101,13371,11157,12596,29100,4
0.0,0.0,0.0,17050,13343,11182,12556,29100,4
0.0,0.0,0.0,17084,13315,11121,12570,29042,4
0.0,0.0,0.0,17101,13315,11157,12530,29071,4
0.0,0.0,0.0,17084,13287,11145,12530,29042,4
0.0,0.0,0.0,17084,13287,11133,12530,29013,4
0.0,0.0,0.0,17084,13232,11133,12530,29013,4
0.0,0.0,0.0,17067,13232,11145,12530,29042,4
0.0,0.0,0.0,17050,13122,11157,12517,28955,4
0.0,0.0,0.0,17084,13301,11109,12530,29042,4
0.0,0.0,0.0,17101,13246,11133,12530,28927,4
0.0,0.0,0.0,17101,13232,11157,12530,28984,4
0.0,0.0,0.0,17084,13260,11157,12490,28927,4
0.0,0.0,0.0,17084,13260,11157,12490,28840,4
0.0,0.0,0.0,17118,13260,11133,12477,28869,4
0.0,0.0,0.0,17084,13260,11133,12477,28869,4
0.0,0.0,0.0,17033,13260,11133,12504,28898,4
0.0,0.0,0.0,17084,13260,11121,12530,28869,4
0.0,0.0,0.0,17118,13218,11109,12690,28927,4
0.0,0.0,0.0,17152,13287,11170,12824,28927,4
0.0,0.0,0.0,17306,13398,11403,13136,28927,4
0.0,0.0,0.0,17306,13735,11503,13232,28840,4
0.0,0.0,0.0,17272,14666,11453,13095,28697,4
0.0,0.0,0.0,17237,14636,11280,12905,28697,4
0.0,0.0,0.0,17220,14253,11219,12851,28527,4
0.0,0.0,0.0,17220,14166,11206,12864,28555,4
0.0,0.0,0.0,17237,14021,11219,12891,28640,4
0.0,0.0,0.0,17254,13693,11354,12959,28583,4
0.0,0.0,0.0,17237,13679,11553,13177,28697,4
0.0,0.0,0.0,17237,13735,11528,13232,28697,4
0.0,0.0,0.0,17220,13735,11453,13232,28754,4
0.0,0.0,0.0,17186,13707,11428,13343,28697,4
0.0,0.0,0.0,17220,13735,11428,13357,28754,4
0.0,0.0,0.0,17203,13764,11391,13287,28640,4
0.0,0.0,0.0,17152,13849,11255,13163,28612,4
0.0,0.0,0.0,17152,13806,11219,13122,28697,4
0.0,0.0,0.0,17152,13806,11157,13081,28612,4
0.0,0.0,0.0,17186,13806,11157,13068,28583,4
0.0,0.0,0.0,17152,13849,11170,13068,28583,4
0.0,0.0,0.0,17186,13821,11182,13068,28640,4
0.0,0.0,0.0,17203,13792,11170,13040,28697,4
0.0,0.0,0.0,17220,13749,11157,13068,28697,4
0.0,0.0,0.0,17237,13749,11170,13013,28583,4
0.0,0.0,0.0,17186,13792,11170,13040,28640,4
0.0,0.0,0.0,17186,13792,11157,13013,28583,4
0.0,0.0,0.0,17220,13821,11157,12986,28583,4
0.0,0.0,0.0,17152,13778,11170,13027,28583,4
0.0,0.0,0.0,17186,13792,11182,13027,28640,4
0.0,0.0,0.0,17152,13806,11170,13040,28640,4
0.0,0.0,0.0,17152,13821,11182,13013,28583,4
0.0,0.0,0.0,17152,13792,11170,13040,28583,4
0.0,0.0,0.0,17135,13906,11194,13068,28697,4
0.0,0.0,0.0,17152,14355,11206,13068,28640,4
0.0,0.0,0.0,17101,14488,11182,13013,28640,4
0.0,0.0,0.0,17135,14503,11157,12972,28697,4
0.0,0.0,0.0,17152,14209,11084,12959,28697,4
0.0,0.0,0.0,17135,14079,11060,12972,28812,4
0.0,0.0,0.0,17152,14079,11060,13013,28869,4
0.0,0.0,0.0,17118,14050,11072,12972,28812,4
0.0,0.0,0.0,17084,13978,11048,13013,28812,4
0.0,0.0,0.0,17101,14021,11060,12986,28840,4
0.0,0.0,0.0,17101,14166,11060,12959,28812,4
0.0,0.0,0.0,17118,14385,10963,12797,28783,4
0.0,0.0,0.0,17152,14195,10903,12716,28783,4
0.0,0.0,0.0,17118,13849,10843,12770,28869,4
0.0,0.0,0.0,17084,13792,10831,12864,29042,4
0.0,0.0,0.0,17084,13778,10843,12851,29071,4
0.0,0.0,0.0,17067,13749,10867,12851,29013,4
0.0,0.0,0.0,17033,13735,10867,12810,29042,4
0.0,0.0,0.0,17050,13764,10867,12851,29042,4
0.0,0.0,0.0,17050,13764,10915,12851,29042,4
0.0,0.0,0.0,17050,13749,10963,12878,28955,4
0.0,0.0,0.0,17067,13792,10963,12905,28984,4
0.0,0.0,0.0,17050,13821,10999,12905,28955,4
0.0,0.0,0.0,17067,13863,11182,12986,29071,4
0.0,0.0,0.0,17084,13849,11182,12959,28927,4
0.0,0.0,0.0,17084,13849,11255,12972,28869,4
0.0,0.0,0.0,17084,13821,11255,12959,28955,4
0.0,0.0,0.0,17067,13821,11503,12972,28955,4
0.0,0.0,0.0,17101,13792,11453,12972,28927,4
0.0,0.0,0.0,17084,13735,11379,12905,28812,4
0.0,0.0,0.0,17084,13735,11354,12905,28869,4
0.0,0.0,0.0,17033,13735,11354,12891,28927,4
0.0,0.0,0.0,17050,13735,11354,12905,28812,4
0.0,0.0,0.0,17084,13735,11354,12905,28869,4
0.0,0.0,0.0,17084,13735,11354,12905,28898,4
0.0,0.0,0.0,17016,13679,11304,12905,28840,4
0.0,0.0,0.0,17033,13735,11280,12878,28840,4
0.0,0.0,0.0,17016,13821,11182,12837,28927,4
0.0,0.0,0.0,17050,13849,11133,12824,28812,4
0.0,0.0,0.0,17050,13835,11109,12824,28869,4
0.0,0.0,0.0,17033,13849,11109,12824,28840,4
0.0,0.0,0.0,17033,13849,11109,12810,28840,4
0.0,0.0,0.0,17016,13835,11084,12824,28840,4
0.0,0.0,0.0,17016,13835,11109,12810,28927,4
0.0,0.0,0.0,17033,13821,11109,12851,28812,4
0.0,0.0,0.0,17033,13835,11096,12824,28840,4
0.0,0.0,0.0,17033,13849,11109,12810,28840,4
0.0,0.0,0.0,17016,13849,11084,12810,28812,4
0.0,0.0,0.0,17050,13835,11109,12824,28927,4
0.0,0.0,0.0,17033,13849,11145,12851,28869,4
0.0,0.0,0.0,17033,13821,11109,12851,28783,4
0.0,0.0,0.0,17050,13849,11109,12851,28869,4
0.0,0.0,0.0,17050,13835,11072,12824,28840,4
0.0,0.0,0.0,17067,13849,11109,12824,28869,4
0.0,0.0,0.0,17033,13863,11109,12810,28754,4
0.0,0.0,0.0,17016,13863,11109,12851,28869,4
0.0,0.0,0.0,17050,13849,11109,12851,28812,4
0.0,0.0,0.0,17084,13863,11096,12824,28812,4
0.0,0.0,0.0,17067,13849,11109,12851,28812,4
0.0,0.0,0.0,17050,13849,11109,12851,28840,4
0.0,0.0,0.0,17050,13849,11133,12851,28754,4
0.0,0.0,0.0,17084,13878,11084,12837,28812,4
0.0,0.0,0.0,17050,13849,11109,12851,28840,4
0.0,0.0,0.0,17084,13849,11109,12810,28840,4
0.0,0.0,0.0,17084,13849,11133,12932,28754,4
0.0,0.0,0.0,17152,13921,11157,13580,28869,4
0.0,0.0,0.0,17152,13935,11157,13580,28812,4
0.0,0.0,0.0,17152,13906,11133,13412,28812,4
0.0,0.0,0.0,17152,14079,11109,13150,28812,4
0.0,0.0,0.0,17152,14079,11096,13068,28754,4
0.0,0.0,0.0,17118,13992,11060,13027,28754,4
0.0,0.0,0.0,17152,13792,11036,13027,28812,4
0.0,0.0,0.0,17186,13566,11024,12972,28927,4
0.0,0.0,0.0,17169,13454,11036,12972,28812,4
0.0,0.0,0.0,17118,13454,11024,12999,28869,4
0.0,0.0,0.0,17152,13482,11024,12959,28726,4
0.0,0.0,0.0,17169,13482,11012,12959,28812,4
0.0,0.0,0.0,17118,13482,11012,12959,28812,4
0.0,0.0,0.0,17118,13510,11012,12959,28754,4
0.0,0.0,0.0,17101,13496,11012,12959,28754,4
0.0,0.0,0.0,17118,13538,11012,12959,28754,4
0.0,0.0,0.0,17152,13510,11012,12959,28783,4
0.0,0.0,0.0,17152,13524,11024,12959,28697,4
0.0,0.0,0.0,17135,13566,11012,12959,28697,4
0.0,0.0,0.0,17152,13566,10999,12972,28783,4
0.0,0.0,0.0,17118,13538,11012,12972,28754,4
0.0,0.0,0.0,17152,13566,11012,13122,28812,4
0.0,0.0,0.0,17118,13468,10987,13177,28955,4
0.0,0.0,0.0,17101,13510,11072,13205,28927,4
0.0,0.0,0.0,17101,13482,11133,13232,28927,4
0.0,0.0,0.0,17152,13482,11157,13232,28812,4
0.0,0.0,0.0,17101,13454,11255,13371,28927,4
0.0,0.0,0.0,17118,13482,11231,13566,28927,4
0.0,0.0,0.0,17135,13510,11219,13594,28984,4
0.0,0.0,0.0,17152,13482,11133,13510,28927,4
0.0,0.0,0.0,17152,13482,11109,13426,28927,4
0.0,0.0,0.0,17118,13468,11060,13343,28840,4
0.0,0.0,0.0,17101,13454,11060,13274,28812,4
0.0,0.0,0.0,17084,13440,11012,13205,28754,4
0.0,0.0,0.0,17067,13412,11012,13177,28697,4
0.0,0.0,0.0,17050,13426,11012,13109,28726,4
0.0,0.0,0.0,17050,13398,10987,13081,28669,4
0.0,0.0,0.0,17050,13412,10987,13081,28726,4
0.0,0.0,0.0,17033,13398,10963,13040,28697,4
0.0,0.0,0.0,17016,13412,10963,13013,28583,4
0.0,0.0,0.0,17033,13384,10963,13013,28640,4
0.0,0.0,0.0,17016,13426,10975,13013,28640,4
0.0,0.0,0.0,16999,13398,10963,13013,28640,4
0.0,0.0,0.0,16983,13412,10963,13013,28697,4
0.0,0.0,0.0,17016,13454,10963,13013,28612,4
0.0,0.0,0.0,17016,13426,10963,13040,28640,4
0.0,0.0,0.0,17016,13454,10975,13040,28640,4
0.0,0.0,0.0,17016,13468,10963,13068,28583,4
0.0,0.0,0.0,17016,13468,10975,13068,28697,4
0.0,0.0,0.0,17050,13510,10987,13081,28697,4
0.0,0.0,0.0,16983,13524,10975,13081,28697,4
0.0,0.0,0.0,17033,13538,10975,13068,28583,4
0.0,0.0,0.0,17016,13482,10987,13081,28612,4
0.0,0.0,0.0,17016,13538,10963,13095,28697,4
0.0,0.0,0.0,16966,13566,10963,13095,28726,4
0.0,0.0,0.0,17033,13566,10975,13122,28669,4
0.0,0.0,0.0,17016,13538,11012,13122,28697,4
0.0,0.0,0.0,17016,13566,11012,13081,28669,4
0.0,0.0,0.0,17050,13566,10987,13109,28640,4
0.0,0.0,0.0,17050,13538,10987,13095,28669,4
0.0,0.0,0.0,17016,13566,10963,13068,28583,4
0.0,0.0,0.0,17050,13622,10927,13027,28583,4
0.0,0.0,0.0,17033,13594,10915,13013,28583,4
0.0,0.0,0.0,17050,13580,10915,13054,28640,4
0.0,0.0,0.0,17067,13538,10915,13027,28697,4
0.0,0.0,0.0,17050,13538,10915,13068,28583,4
0.0,0.0,0.0,17033,13566,10915,13040,28555,4
0.0,0.0,0.0,17050,13566,10915,13040,28612,4
0.0,0.0,0.0,17016,13566,10927,13068,28583,4
0.0,0.0,0.0,17016,13510,10915,13027,28555,4
0.0,0.0,0.0,17050,13538,10915,13068,28555,4
0.0,0.0,0.0,17050,13566,10915,13040,28527,4
0.0,0.0,0.0,17084,13566,10927,13068,28555,4
0.0,0.0,0.0,17033,13524,10915,13054,28498,4
0.0,0.0,0.0,17033,13524,10915,13040,28527,4
0.0,0.0,0.0,17050,13538,10915,13068,28527,4
0.0,0.0,0.0,17084,13566,10915,13068,28640,4
0.0,0.0,0.0,17118,13608,10915,13068,28640,4
0.0,0.0,0.0,17067,13594,10915,13081,28583,4
0.0,0.0,0.0,17084,13580,10915,13068,28583,4
0.0,0.0,0.0,17084,13552,10915,13177,28583,4
0.0,0.0,0.0,17118,13552,10915,13301,28640,4
0.0,0.0,0.0,17118,13566,10915,13552,28640,4
0.0,0.0,0.0,17118,13566,10927,13679,28697,4
0.0,0.0,0.0,17135,13552,10915,13679,28640,4
0.0,0.0,0.0,17152,13566,10927,13636,28640,4
0.0,0.0,0.0,17084,13566,10927,13594,28697,4
0.0,0.0,0.0,17101,13524,10915,13566,28726,4
0.0,0.0,0.0,17118,13566,10915,13566,28669,4
0.0,0.0,0.0,17118,13510,10927,13566,28697,4
0.0,0.0,0.0,17118,13524,10915,13538,28697,4
0.0,0.0,0.0,17084,13566,10927,13510,28640,4
0.0,0.0,0.0,17084,13566,10915,13510,28640,4
0.0,0.0,0.0,17084,13510,10915,13482,28640,4
0.0,0.0,0.0,17101,13552,10915,13468,28583,4
0.0,0.0,0.0,17084,13538,10927,13468,28583,4
0.0,0.0,0.0,17101,13510,10927,13482,28583,4
0.0,0.0,0.0,17118,13524,10915,13454,28583,4
0.0,0.0,0.0,17050,13538,10927,13482,28583,4
0.0,0.0,0.0,17084,13524,10915,13482,28640,4
0.0,0.0,0.0,17084,13538,10915,13454,28583,4
0.0,0.0,0.0,17118,13524,10915,13468,28583,4
0.0,0.0,0.0,17101,13524,10915,13468,28612,4
0.0,0.0,0.0,17084,13538,10927,13454,28527,4
0.0,0.0,0.0,17101,13566,10915,13454,28583,4
0.0,0.0,0.0,17084,13524,10927,13468,28583,4
0.0,0.0,0.0,17101,13552,10915,13454,28527,4
0.0,0.0,0.0,17084,13510,10915,13468,28612,4
0.0,0.0,0.0,17101,13552,10915,13454,28583,4
0.0,0.0,0.0,17101,13524,10927,13468,28583,4
0.0,0.0,0.0,17084,13510,10927,13482,28583,4
0.0,0.0,0.0,17118,13594,10915,13454,28583,4
0.0,0.0,0.0,17084,13524,10915,13482,28640,4
0.0,0.0,0.0,17101,13524,10915,13468,28555,4
0.0,0.0,0.0,17101,13552,10915,13468,28527,4
0.0,0.0,0.0,17101,13566,10927,13468,28555,4
0.0,0.0,0.0,17084,13524,10915,13468,28583,4
0.0,0.0,0.0,17084,13510,10927,13454,28640,4
0.0,0.0,0.0,17084,13566,10927,13482,28527,4
0.0,0.0,0.0,17135,13566,10915,13468,28583,4
0.0,0.0,0.0,17101,13538,10915,13454,28640,4
0.0,0.0,0.0,17084,13538,10915,13482,28640,4
0.0,0.0,0.0,17084,13510,10915,13398,28612,4
0.0,0.0,0.0,17084,13538,10891,13343,28498,4
0.0,0.0,0.0,17016,13524,10903,13260,28498,4
0.0,0.0,0.0,17084,13524,10903,13246,28527,4
0.0,0.0,0.0,17067,13524,10915,13260,28527,4
0.0,0.0,0.0,17084,13510,10915,13246,28527,4
0.0,0.0,0.0,17084,13510,10915,13246,28498,4
0.0,0.0,0.0,17084,13510,10915,13232,28470,4
0.0,0.0,0.0,17033,13510,10891,13232,28498,4
0.0,0.0,0.0,17084,13510,10915,13232,28442,4
0.0,0.0,0.0,17050,13510,10903,13246,28470,4
0.0,0.0,0.0,17084,13510,10915,13218,28470,4
0.0,0.0,0.0,17084,13538,10891,13260,28527,4
0.0,0.0,0.0,17067,13566,10915,13232,28470,4
0.0,0.0,0.0,17084,13538,10915,13232,28470,4
0.0,0.0,0.0,17084,13566,10927,13232,28498,4
0.0,0.0,0.0,17067,13538,10903,13260,28527,4
0.0,0.0,0.0,17101,13594,10915,13232,28470,4
0.0,0.0,0.0,17084,13622,10915,13246,28470,4
0.0,0.0,0.0,17084,13608,10915,13246,28498,4
0.0,0.0,0.0,17084,13580,10915,13274,28498,4
0.0,0.0,0.0,17084,13580,10915,13287,28470,4
0.0,0.0,0.0,17084,13594,10915,13260,28498,4
0.0,0.0,0.0,17084,13566,10915,13260,28470,4
0.0,0.0,0.0,17084,13566,10915,13232,28498,4
0.0,0.0,0.0,17084,13594,10915,13232,28385,4
0.0,0.0,0.0,17084,13580,10903,13260,28527,4
0.0,0.0,0.0,17118,13566,10915,13246,28470,4
0.0,0.0,0.0,17084,13566,10915,13232,28414,4
0.0,0.0,0.0,17084,13580,10915,13260,28414,4
0.0,0.0,0.0,17084,13580,10915,13260,28414,4
0.0,0.0,0.0,17084,13566,10915,13260,28470,4
0.0,0.0,0.0,17084,13594,10915,13260,28414,4
0.0,0.0,0.0,17084,13566,10915,13287,28527,4
0.0,0.0,0.0,17101,13594,10915,13246,28498,4
0.0,0.0,0.0,17084,13552,10915,13274,28470,4
0.0,0.0,0.0,17101,13580,10891,13232,28498,4
0.0,0.0,0.0,17084,13580,10915,13260,28470,4
0.0,0.0,0.0,17084,13566,10915,13260,28527,4
0.0,0.0,0.0,17118,13566,10915,13232,28470,4
0.0,0.0,0.0,17084,13594,10915,13246,28470,4
0.0,0.0,0.0,17084,13580,10903,13232,28470,4
0.0,0.0,0.0,17084,13566,10915,13260,28470,4
0.0,0.0,0.0,17084,13566,10915,13246,28414,4
0.0,0.0,0.0,17101,13594,10915,13246,28414,4
0.0,0.0,0.0,17084,13566,10891,13287,28470,4
0.0,0.0,0.0,17084,13566,10915,13260,28470,4
0.0,0.0,0.0,17101,13566,10915,13287,28498,4
0.0,0.0,0.0,17101,13566,10915,13260,28470,4
0.0,0.0,0.0,17118,13566,10915,13205,28470,4
0.0,0.0,0.0,17101,13580,10915,13260,28442,4
0.0,0.0,0.0,17169,13580,10891,13260,28470,4
0.0,0.0,0.0,17084,13594,10915,13246,28470,4
0.0,0.0,0.0,17084,13622,10915,13260,28470,4
0.0,0.0,0.0,17101,13566,10915,13260,28414,4
0.0,0.0,0.0,17101,13566,10915,13274,28414,4
0.0,0.0,0.0,17135,13566,10915,13260,28385,4
0.0,0.0,0.0,17101,13580,10915,13260,28527,4
0.0,0.0,0.0,17118,13566,10915,13260,28385,4
0.0,0.0,0.0,17118,13580,10915,13287,28470,4
0.0,0.0,0.0,17118,13566,10915,13287,28470,4
0.0,0.0,0.0,17101,13594,10915,13287,28470,4
0.0,0.0,0.0,17152,13566,10915,13260,28470,4
0.0,0.0,0.0,17118,13566,10915,13232,28470,4
0.0,0.0,0.0,17186,13566,10915,13301,28470,4
0.0,0.0,0.0,17220,13566,10915,13426,28527,4
0.0,0.0,0.0,17220,13580,10915,13454,28498,4
0.0,0.0,0.0,17237,13566,10915,13454,28527,4
0.0,0.0,0.0,17220,13566,10915,13566,28527,4
0.0,0.0,0.0,17237,13552,10915,13863,28583,4
0.0,0.0,0.0,17254,13510,10915,13863,28470,4
0.0,0.0,0.0,17220,13524,10915,13792,28555,4
0.0,0.0,0.0,17237,13468,10891,13566,28470,4
0.0,0.0,0.0,17152,13454,10891,13287,28498,4
0.0,0.0,0.0,17152,13454,10915,13095,28498,4
0.0,0.0,0.0,17135,13426,10903,13040,28555,4
0.0,0.0,0.0,17152,13412,10891,12986,28583,4
0.0,0.0,0.0,17152,13412,10915,12932,28612,4
0.0,0.0,0.0,17118,13398,10879,12905,28612,4
0.0,0.0,0.0,17084,13343,10891,12905,28583,4
0.0,0.0,0.0,17152,13384,10879,12864,28527,4
0.0,0.0,0.0,17118,13398,10891,12851,28583,4
0.0,0.0,0.0,17101,13371,10879,12851,28498,4
0.0,0.0,0.0,17118,13398,10867,12824,28527,4
0.0,0.0,0.0,17084,13398,10903,12824,28527,4
0.0,0.0,0.0,17118,13426,10891,12797,28583,4
0.0,0.0,0.0,17101,13412,10879,12810,28583,4
0.0,0.0,0.0,17118,13398,10891,12810,28498,4
0.0,0.0,0.0,17084,13398,10891,12797,28470,4
0.0,0.0,0.0,17101,13384,10879,12810,28527,4
0.0,0.0,0.0,17084,13398,10879,12810,28470,4
0.0,0.0,0.0,17084,13398,10891,12770,28498,4
0.0,0.0,0.0,17118,13398,10891,12797,28470,4
0.0,0.0,0.0,17101,13398,10879,12797,28470,4
0.0,0.0,0.0,17101,13398,10879,12783,28470,4
0.0,0.0,0.0,17152,13398,10867,12797,28470,4
0.0,0.0,0.0,17033,13412,10879,12797,28470,4
0.0,0.0,0.0,17101,13412,10879,12810,28414,4
0.0,0.0,0.0,17084,13398,10915,12770,28414,4
0.0,0.0,0.0,17084,13426,10891,12770,28498,4
0.0,0.0,0.0,17084,13398,10879,12797,28470,4
0.0,0.0,0.0,17084,13384,10879,12797,28470,4
0.0,0.0,0.0,17084,13398,10891,12797,28527,4
0.0,0.0,0.0,17084,13398,10891,12810,28527,4
0.0,0.0,0.0,17033,13412,10879,12824,28498,4
0.0,0.0,0.0,17118,13398,10891,12797,28470,4
0.0,0.0,0.0,17118,13426,10915,12797,28470,4
0.0,0.0,0.0,17084,13412,10879,12810,28442,4
0.0,0.0,0.0,17101,13398,10879,12824,28414,4
0.0,0.0,0.0,17118,13357,10891,12797,28442,4
0.0,0.0,0.0,17101,13454,10891,12797,28498,4
0.0,0.0,0.0,17084,13468,10891,12851,28555,4
0.0,0.0,0.0,17101,13454,10891,12851,28498,4
0.0,0.0,0.0,17101,13454,10891,12824,28470,4
0.0,0.0,0.0,17084,13454,10891,12824,28414,4
0.0,0.0,0.0,17084,13454,10867,12810,28470,4
0.0,0.0,0.0,17118,13454,10891,12810,28470,4
0.0,0.0,0.0,17084,13454,10891,12824,28470,4
0.0,0.0,0.0,17101,13468,10903,12824,28498,4
0.0,0.0,0.0,17101,13482,10903,12824,28470,4
0.0,0.0,0.0,17101,13454,10915,12851,28498,4
0.0,0.0,0.0,17101,13468,10891,12824,28583,4
0.0,0.0,0.0,17084,13496,10879,12864,28555,4
0.0,0.0,0.0,17152,13468,10891,12851,28470,4
0.0,0.0,0.0,17118,13482,10915,12837,28527,4
0.0,0.0,0.0,17118,13510,10891,12851,28442,4
0.0,0.0,0.0,17101,13482,10903,12851,28470,4
0.0,0.0,0.0,17152,13482,10891,12851,28470,4
0.0,0.0,0.0,17152,13482,10879,12864,28498,4
0.0,0.0,0.0,17135,13482,10879,12851,28470,4
0.0,0.0,0.0,17101,13496,10879,12824,28442,4
0.0,0.0,0.0,17152,13496,10879,12851,28470,4
0.0,0.0,0.0,17152,13468,10879,12851,28470,4
0.0,0.0,0.0,17186,13482,10879,12824,28498,4
0.0,0.0,0.0,17169,13468,10879,12810,28414,4
0.0,0.0,0.0,17169,13510,10867,12824,28498,4
0.0,0.0,0.0,17169,13454,10891,12824,28470,4
0.0,0.0,0.0,17186,13510,10879,12837,28470,4
0.0,0.0,0.0,17186,13964,10927,12851,28470,4
0.0,0.0,0.0,17186,13992,10939,12851,28498,4
0.0,0.0,0.0,17220,14021,11012,12810,28414,4
0.0,0.0,0.0,17220,14021,11012,12797,28414,4
0.0,0.0,0.0,17254,14079,11109,12770,28527,4
0.0,0.0,0.0,17254,13964,11121,12756,28527,4
0.0,0.0,0.0,17254,13863,11157,12770,28470,4
0.0,0.0,0.0,17289,13835,11170,12797,28498,4
0.0,0.0,0.0,17254,13792,11255,12797,28555,4
0.0,0.0,0.0,17289,13764,11354,12864,28527,4
0.0,0.0,0.0,17306,13792,11403,12905,28498,4
0.0,0.0,0.0,17323,13821,11478,12932,28583,4
0.0,0.0,0.0,17323,13821,11478,12932,28498,4
0.0,0.0,0.0,17357,13792,11528,12972,28583,4
0.0,0.0,0.0,17357,13792,11603,13013,28612,4
0.0,0.0,0.0,17392,13821,11615,13054,28583,4
0.0,0.0,0.0,17443,13849,11653,13122,28726,4
0.0,0.0,0.0,17443,13764,11578,13122,28669,4
0.0,0.0,0.0,17530,13735,11565,13122,28697,4
0.0,0.0,0.0,17495,13622,11453,13122,28669,4
0.0,0.0,0.0,17495,13510,11379,13122,28669,4
0.0,0.0,0.0,17478,13524,11354,13122,28640,4
0.0,0.0,0.0,17495,13566,11366,13150,28640,4
0.0,0.0,0.0,17495,13566,11379,13150,28583,4
0.0,0.0,0.0,17461,13594,11403,13150,28612,4
0.0,0.0,0.0,17426,13524,11379,13122,28697,4
0.0,0.0,0.0,17426,13524,11354,13081,28583,4
0.0,0.0,0.0,17426,13496,11354,13081,28583,4
0.0,0.0,0.0,17426,13510,11354,13068,28583,4
0.0,0.0,0.0,17374,13482,11329,13054,28498,4
0.0,0.0,0.0,17357,13482,11317,13068,28583,4
0.0,0.0,0.0,17374,13454,11304,13040,28583,4
0.0,0.0,0.0,17374,13510,11304,13040,28527,4
0.0,0.0,0.0,17357,13510,11280,13027,28583,4
0.0,0.0,0.0,17340,13468,11280,13068,28527,4
0.0,0.0,0.0,17357,13482,11304,13013,28583,4
0.0,0.0,0.0,17357,13482,11292,13013,28583,4
0.0,0.0,0.0,17357,13454,11268,13027,28583,4
0.0,0.0,0.0,17357,13468,11255,13013,28583,4
0.0,0.0,0.0,17306,13468,11255,12972,28470,4
0.0,0.0,0.0,17306,13468,11255,12986,28498,4
0.0,0.0,0.0,17323,13454,11255,13013,28527,4
0.0,0.0,0.0,17289,13482,11255,12972,28498,4
0.0,0.0,0.0,17306,13468,11231,12972,28527,4
0.0,0.0,0.0,17289,13454,11206,12972,28470,4
0.0,0.0,0.0,17306,13426,11219,13013,28527,4
0.0,0.0,0.0,17306,13468,11206,12959,28527,4
0.0,0.0,0.0,17357,13454,11194,12959,28527,4
0.0,0.0,0.0,17306,13482,11170,12959,28527,4
0.0,0.0,0.0,17306,13510,11157,12972,28470,4
0.0,0.0,0.0,17254,13538,11194,12999,28470,4
0.0,0.0,0.0,17254,13566,11231,13013,28470,4
0.0,0.0,0.0,17289,13538,11219,13013,28470,4
0.0,0.0,0.0,17254,13566,11206,12972,28470,4
0.0,0.0,0.0,17254,13650,11255,12986,28498,4
0.0,0.0,0.0,17237,13679,11255,12986,28470,4
0.0,0.0,0.0,17220,13749,11317,13013,28470,4
0.0,0.0,0.0,17186,13735,11329,13013,28470,4
0.0,0.0,0.0,17220,13721,11329,13013,28442,4
0.0,0.0,0.0,17186,13707,11317,13013,28414,4
0.0,0.0,0.0,17169,13735,11317,13013,28385,4
0.0,0.0,0.0,17186,13749,11329,12986,28470,4
0.0,0.0,0.0,17169,13693,11354,13013,28470,4
0.0,0.0,0.0,17169,13707,11354,13013,28470,4
0.0,0.0,0.0,17152,13707,11304,13027,28470,4
0.0,0.0,0.0,17186,13721,11304,12986,28414,4
0.0,0.0,0.0,17186,13749,11304,13013,28470,4
0.0,0.0,0.0,17152,13906,11304,13027,28498,4
0.0,0.0,0.0,17169,13964,11255,13027,28470,4
0.0,0.0,0.0,17169,13964,11280,13109,28470,4
0.0,0.0,0.0,17169,13949,11255,13232,28583,4
0.0,0.0,0.0,17186,13906,11255,13232,28527,4
0.0,0.0,0.0,17169,13906,11280,13343,28612,4
0.0,0.0,0.0,17220,13935,11354,13454,28640,4
0.0,0.0,0.0,17186,13906,11379,13735,28669,4
0.0,0.0,0.0,17186,13935,11379,13749,28640,4
0.0,0.0,0.0,17169,13906,11366,13764,28697,4
0.0,0.0,0.0,17186,13849,11317,13650,28583,4
0.0,0.0,0.0,17186,13849,11304,13510,28527,4
0.0,0.0,0.0,17186,13806,11243,13412,28555,4
0.0,0.0,0.0,17084,13749,11206,13329,28527,4
0.0,0.0,0.0,17152,13735,11157,13232,28470,4
