GyroX,GyroY,GyroZ,Thumb,Index,Middle,Ring,Pinky,Gesture
0.0,0.0,0.0,14621,26099,24702,33817,17186,5
0.0,0.0,0.0,14621,26022,24630,33748,17152,5
0.0,0.0,0.0,14607,26099,24606,33817,17152,5
0.0,0.0,0.0,14577,26047,24606,33714,17152,5
0.0,0.0,0.0,14607,26047,24558,33645,17237,5
0.0,0.0,0.0,14547,25996,24558,33645,17220,5
0.0,0.0,0.0,14547,26047,24534,33611,17289,5
0.0,0.0,0.0,14547,26022,24558,33611,17272,5
0.0,0.0,0.0,14562,25996,24486,33474,17426,5
0.0,0.0,0.0,14518,25996,24510,33474,17722,5
0.0,0.0,0.0,14726,25996,24462,33439,17845,5
0.0,0.0,0.0,14846,25996,24462,33405,17792,5
0.0,0.0,0.0,14488,25996,24414,33439,17634,5
0.0,0.0,0.0,14195,25945,24414,33439,17306,5
0.0,0.0,0.0,14253,25971,24366,33439,17237,5
0.0,0.0,0.0,14861,25996,24342,33371,17289,5
0.0,0.0,0.0,15381,25920,24366,33405,17426,5
0.0,0.0,0.0,15789,25945,24414,33439,17443,5
0.0,0.0,0.0,15273,25920,24510,33303,17634,5
0.0,0.0,0.0,15227,26022,24510,33202,17652,5
0.0,0.0,0.0,15089,25945,24414,33168,17774,5
0.0,0.0,0.0,14786,25818,24414,33168,17792,5
0.0,0.0,0.0,14108,25894,24318,33202,17774,5
0.0,0.0,0.0,13095,25843,24271,33168,17792,5
0.0,0.0,0.0,13068,25869,24223,33236,17845,5
0.0,0.0,0.0,14036,25818,24223,33168,17986,5
0.0,0.0,0.0,14488,25793,24294,33100,17986,5
0.0,0.0,0.0,14547,25793,24294,33067,17951,5
0.0,0.0,0.0,14741,25843,24318,33033,17915,5
0.0,0.0,0.0,14876,25818,24318,33033,17915,5
0.0,0.0,0.0,14922,25843,24342,32932,17915,5
0.0,0.0,0.0,14922,25843,24414,32932,17915,5
0.0,0.0,0.0,14907,26022,24558,33033,17951,5
0.0,0.0,0.0,14801,26047,24534,33067,17880,5
0.0,0.0,0.0,14786,25996,24606,33236,17915,5
0.0,0.0,0.0,14621,25945,24558,33067,17845,5
0.0,0.0,0.0,14621,26047,24534,32999,17687,5
0.0,0.0,0.0,14621,25945,24510,33033,17634,5
0.0,0.0,0.0,14907,25894,24438,33033,17513,5
0.0,0.0,0.0,14253,25818,24414,33067,17495,5
0.0,0.0,0.0,14282,25869,24414,33033,17392,5
0.0,0.0,0.0,13906,25843,24318,33033,17392,5
0.0,0.0,0.0,13806,25767,24294,33033,17357,5
0.0,0.0,0.0,14577,25742,24318,33033,17340,5
0.0,0.0,0.0,14547,25793,24294,33033,17374,5
0.0,0.0,0.0,14503,25767,24342,32932,17357,5
0.0,0.0,0.0,14547,25742,24366,32966,17392,5
0.0,0.0,0.0,14488,25691,24318,32899,17392,5
0.0,0.0,0.0,14607,25666,24271,32832,17357,5
0.0,0.0,0.0,14786,25691,24318,32966,17357,5
0.0,0.0,0.0,16060,25616,24247,32966,17306,5
0.0,0.0,0.0,15366,25591,24271,33100,17357,5
0.0,0.0,0.0,15058,25641,24294,33100,17289,5
0.0,0.0,0.0,15028,25616,24247,33100,17392,5
0.0,0.0,0.0,15366,25616,24247,32966,17495,5
0.0,0.0,0.0,15397,25591,24271,32999,17513,5
0.0,0.0,0.0,14801,25666,24271,32932,17634,5
0.0,0.0,0.0,14607,25691,24247,32799,17722,5
0.0,0.0,0.0,14547,25540,24247,32799,17704,5
0.0,0.0,0.0,14997,25515,24223,32799,17669,5
0.0,0.0,0.0,15028,25540,24152,32765,17669,5
0.0,0.0,0.0,13821,25565,24129,32832,17634,5
0.0,0.0,0.0,13679,25540,24081,32832,17792,5
0.0,0.0,0.0,14444,25490,24152,32866,17968,5
0.0,0.0,0.0,14370,25591,24176,32832,18022,5
0.0,0.0,0.0,14385,25540,24176,32765,18057,5
0.0,0.0,0.0,14741,25490,24199,32765,17986,5
0.0,0.0,0.0,13013,25565,24034,32765,18004,5
0.0,0.0,0.0,13246,25515,23987,32932,18147,5
0.0,0.0,0.0,13566,25390,24034,32866,18344,5
0.0,0.0,0.0,14166,25440,24176,32799,18380,5
0.0,0.0,0.0,14268,25465,24129,32799,18272,5
0.0,0.0,0.0,14079,25415,24129,32732,18272,5
0.0,0.0,0.0,14297,25490,24129,32699,18308,5
0.0,0.0,0.0,14458,25390,24081,32633,18236,5
0.0,0.0,0.0,13357,25390,24034,32633,18254,5
0.0,0.0,0.0,13260,25291,23964,32633,18236,5
0.0,0.0,0.0,13136,25291,24011,32633,18129,5
0.0,0.0,0.0,13287,25216,23964,32566,18093,5
0.0,0.0,0.0,13594,25316,23940,32566,18164,5
0.0,0.0,0.0,13650,25291,23987,32566,18129,5
0.0,0.0,0.0,13679,25341,23987,32566,18093,5
0.0,0.0,0.0,13735,25291,24011,32500,18147,5
0.0,0.0,0.0,13964,25291,23987,32533,18075,5
0.0,0.0,0.0,14137,25341,24058,32500,18200,5
0.0,0.0,0.0,14050,25316,24034,32369,18147,5
0.0,0.0,0.0,13821,25291,23987,32435,18147,5
0.0,0.0,0.0,13964,25241,23940,32369,18164,5
0.0,0.0,0.0,13510,25216,23940,32238,18129,5
0.0,0.0,0.0,13315,25291,23894,32271,18075,5
0.0,0.0,0.0,13150,25192,23894,32271,18022,5
0.0,0.0,0.0,12972,25192,23847,32271,18057,5
0.0,0.0,0.0,13454,25241,23847,32271,18129,5
0.0,0.0,0.0,13849,25241,23894,32238,18129,5
0.0,0.0,0.0,14036,25341,23940,32238,18147,5
0.0,0.0,0.0,14050,25341,23940,32271,18147,5
0.0,0.0,0.0,14079,25241,23917,32173,18129,5
0.0,0.0,0.0,14681,25241,23894,32238,18111,5
0.0,0.0,0.0,14756,25142,23847,32173,18182,5
0.0,0.0,0.0,14547,25142,23847,32238,18200,5
0.0,0.0,0.0,14488,25142,23777,32173,18236,5
0.0,0.0,0.0,14399,25142,23870,32205,18272,5
0.0,0.0,0.0,13935,25241,23870,32173,18435,5
0.0,0.0,0.0,14151,25365,23847,32140,18435,5
0.0,0.0,0.0,14311,25291,23894,32108,18489,5
0.0,0.0,0.0,14253,25316,23870,32075,18435,5
0.0,0.0,0.0,14282,25291,23894,32075,18435,5
0.0,0.0,0.0,14370,25216,23847,31978,18417,5
0.0,0.0,0.0,14458,25142,23800,32010,18417,5
0.0,0.0,0.0,13412,25142,23754,32043,18417,5
0.0,0.0,0.0,13027,25093,23730,32043,18417,5
0.0,0.0,0.0,13068,25093,23707,32043,18453,5
0.0,0.0,0.0,13260,25093,23684,32010,18489,5
0.0,0.0,0.0,13482,25118,23754,32010,18489,5
0.0,0.0,0.0,13538,25044,23730,31913,18508,5
0.0,0.0,0.0,13735,25142,23754,31913,18508,5
0.0,0.0,0.0,13935,25142,23777,31881,18508,5
0.0,0.0,0.0,13935,25192,23754,31849,18489,5
0.0,0.0,0.0,14021,25142,23777,31881,18526,5
0.0,0.0,0.0,14050,25142,23777,31817,18489,5
0.0,0.0,0.0,13949,25093,23754,31785,18489,5
0.0,0.0,0.0,13992,25044,23754,31849,18489,5
0.0,0.0,0.0,13440,25068,23661,31720,18435,5
0.0,0.0,0.0,13205,25019,23707,31881,18562,5
0.0,0.0,0.0,12770,25068,23638,31913,18709,5
0.0,0.0,0.0,12770,25093,23615,31913,18783,5
0.0,0.0,0.0,13454,25068,23638,31913,18875,5
0.0,0.0,0.0,13921,25192,23800,31946,18894,5
0.0,0.0,0.0,14108,25192,23847,31881,18857,5
0.0,0.0,0.0,14079,25192,23847,31785,18894,5
0.0,0.0,0.0,13935,25142,23754,31785,18801,5
0.0,0.0,0.0,13849,25118,23777,31785,18783,5
0.0,0.0,0.0,13964,25118,23754,31785,18838,5
0.0,0.0,0.0,13538,25093,23707,31785,18801,5
0.0,0.0,0.0,12797,24995,23661,31913,18727,5
0.0,0.0,0.0,12385,25044,23638,32010,18783,5
0.0,0.0,0.0,12398,24995,23569,32010,18764,5
0.0,0.0,0.0,12690,24970,23569,31978,18783,5
0.0,0.0,0.0,13260,25019,23661,31849,18857,5
0.0,0.0,0.0,13566,25093,23730,31849,18912,5
0.0,0.0,0.0,13821,25118,23800,31785,18931,5
0.0,0.0,0.0,13863,25118,23800,31817,18968,5
0.0,0.0,0.0,13935,25192,23754,31752,18894,5
0.0,0.0,0.0,14518,25093,23777,31785,18783,5
0.0,0.0,0.0,13665,25044,23730,31978,18709,5
0.0,0.0,0.0,13343,24995,23684,32010,18746,5
0.0,0.0,0.0,13191,24946,23615,31849,18783,5
0.0,0.0,0.0,13150,24946,23615,31849,18746,5
0.0,0.0,0.0,13454,24897,23569,31785,18838,5
0.0,0.0,0.0,13792,25019,23730,31817,18931,5
0.0,0.0,0.0,14108,25093,23800,31881,18931,5
0.0,0.0,0.0,14195,25192,23917,31817,18894,5
0.0,0.0,0.0,14180,25142,23917,31785,18875,5
0.0,0.0,0.0,14050,25142,23847,31785,18875,5
0.0,0.0,0.0,14311,25093,23824,31849,18801,5
0.0,0.0,0.0,14666,25019,23777,31785,18709,5
0.0,0.0,0.0,14681,24970,23754,31720,18746,5
0.0,0.0,0.0,14224,25093,23754,31656,18820,5
0.0,0.0,0.0,14021,25093,23777,31752,18931,5
0.0,0.0,0.0,14108,25093,23754,31656,18949,5
0.0,0.0,0.0,14108,25093,23707,31688,18894,5
0.0,0.0,0.0,14108,25068,23707,31656,18857,5
0.0,0.0,0.0,14108,25068,23661,31561,18857,5
0.0,0.0,0.0,14050,24995,23684,31593,18801,5
0.0,0.0,0.0,13849,24970,23754,31593,18727,5
0.0,0.0,0.0,13964,24946,23661,31561,18672,5
0.0,0.0,0.0,13580,24799,23546,31593,18599,5
0.0,0.0,0.0,13260,24848,23499,31593,18581,5
0.0,0.0,0.0,12851,24799,23477,31593,18562,5
0.0,0.0,0.0,13013,24848,23454,31497,18562,5
0.0,0.0,0.0,13665,24897,23477,31497,18562,5
0.0,0.0,0.0,13693,24897,23477,31465,18581,5
0.0,0.0,0.0,13878,24897,23499,31465,18562,5
0.0,0.0,0.0,13863,24946,23569,31402,18599,5
0.0,0.0,0.0,13849,24946,23569,31370,18599,5
0.0,0.0,0.0,13978,24946,23592,31402,18562,5
0.0,0.0,0.0,14180,24848,23477,31402,18617,5
0.0,0.0,0.0,13707,24799,23477,31370,18562,5
0.0,0.0,0.0,13566,24799,23431,31339,18562,5
0.0,0.0,0.0,13482,24799,23385,31339,18562,5
0.0,0.0,0.0,13454,24727,23385,31370,18581,5
0.0,0.0,0.0,13412,24702,23431,31339,18635,5
0.0,0.0,0.0,13524,24751,23431,31434,18635,5
0.0,0.0,0.0,13510,24775,23477,31402,18709,5
0.0,0.0,0.0,13679,24824,23431,31276,18746,5
0.0,0.0,0.0,13921,24824,23431,31339,18709,5
0.0,0.0,0.0,14050,24848,23431,31307,18672,5
0.0,0.0,0.0,14036,24824,23431,31339,18709,5
0.0,0.0,0.0,13992,24824,23431,31276,18709,5
0.0,0.0,0.0,13964,24946,23477,31307,18783,5
0.0,0.0,0.0,14064,24946,23431,31276,18746,5
0.0,0.0,0.0,14050,24946,23477,31244,18783,5
0.0,0.0,0.0,14021,24873,23477,31307,18746,5
0.0,0.0,0.0,13935,24921,23454,31244,18709,5
0.0,0.0,0.0,13992,24873,23431,31244,18727,5
0.0,0.0,0.0,14224,24848,23477,31213,18709,5
0.0,0.0,0.0,14268,24799,23431,31213,18709,5
0.0,0.0,0.0,14224,24799,23431,31213,18691,5
0.0,0.0,0.0,14166,24799,23385,31213,18709,5
0.0,0.0,0.0,14195,24751,23431,31213,18709,5
0.0,0.0,0.0,14166,24702,23385,31213,18635,5
0.0,0.0,0.0,14079,24727,23339,31150,18635,5
0.0,0.0,0.0,13821,24702,23385,31276,18672,5
0.0,0.0,0.0,13538,24702,23431,31276,18654,5
0.0,0.0,0.0,13398,24654,23316,31339,18635,5
0.0,0.0,0.0,13287,24727,23362,31276,18635,5
0.0,0.0,0.0,13274,24654,23294,31276,18635,5
0.0,0.0,0.0,13274,24678,23316,31213,18599,5
0.0,0.0,0.0,13315,24606,23339,31276,18654,5
0.0,0.0,0.0,13468,24702,23362,31181,18635,5
0.0,0.0,0.0,13580,24702,23294,31150,18617,5
0.0,0.0,0.0,13679,24824,23385,31087,18654,5
0.0,0.0,0.0,13622,24702,23385,31213,18672,5
0.0,0.0,0.0,13566,24751,23316,31087,18709,5
0.0,0.0,0.0,13665,24751,23385,31087,18635,5
0.0,0.0,0.0,13821,24702,23339,31119,18654,5
0.0,0.0,0.0,13863,24702,23339,31150,18709,5
0.0,0.0,0.0,13735,24702,23294,31150,18709,5
0.0,0.0,0.0,13721,24654,23294,31087,18746,5
0.0,0.0,0.0,13650,24702,23294,31087,18783,5
0.0,0.0,0.0,13650,24654,23294,31087,18727,5
0.0,0.0,0.0,13622,24630,23294,31087,18783,5
0.0,0.0,0.0,13608,24606,23316,31119,18801,5
0.0,0.0,0.0,13594,24630,23294,31150,18746,5
0.0,0.0,0.0,13566,24606,23294,31056,18746,5
0.0,0.0,0.0,13566,24630,23294,31087,18783,5
0.0,0.0,0.0,13566,24606,23294,31087,18709,5
0.0,0.0,0.0,13566,24630,23248,31087,18783,5
0.0,0.0,0.0,13566,24606,23248,31025,18783,5
0.0,0.0,0.0,13538,24606,23248,31087,18709,5
0.0,0.0,0.0,13482,24582,23225,30962,18709,5
0.0,0.0,0.0,13454,24606,23225,31025,18727,5
0.0,0.0,0.0,13454,24606,23294,31025,18746,5
0.0,0.0,0.0,13468,24630,23225,31025,18783,5
0.0,0.0,0.0,13608,24606,23225,30962,18672,5
0.0,0.0,0.0,13122,24510,23225,31087,18709,5
0.0,0.0,0.0,13068,24510,23225,31119,18654,5
0.0,0.0,0.0,13027,24510,23203,31025,18672,5
0.0,0.0,0.0,13013,24510,23225,31087,18654,5
0.0,0.0,0.0,13013,24534,23203,31056,18654,5
0.0,0.0,0.0,13013,24462,23180,31087,18709,5
0.0,0.0,0.0,12972,24510,23157,31025,18709,5
0.0,0.0,0.0,12959,24510,23157,30994,18672,5
0.0,0.0,0.0,12918,24534,23112,31150,18654,5
0.0,0.0,0.0,12945,24510,23157,31025,18672,5
0.0,0.0,0.0,12905,24510,23203,31025,18709,5
0.0,0.0,0.0,12918,24558,23203,31087,18709,5
0.0,0.0,0.0,12905,24462,23112,31025,18727,5
0.0,0.0,0.0,12905,24462,23180,31087,18672,5
0.0,0.0,0.0,12891,24510,23135,30994,18672,5
0.0,0.0,0.0,12864,24438,23112,31025,18709,5
0.0,0.0,0.0,12824,24510,23112,31087,18709,5
0.0,0.0,0.0,12918,24462,23135,31087,18709,5
0.0,0.0,0.0,13150,24534,23157,30962,18746,5
0.0,0.0,0.0,13426,24606,23225,30994,18857,5
0.0,0.0,0.0,13622,24606,23203,30869,18820,5
0.0,0.0,0.0,13594,24606,23203,30931,18820,5
0.0,0.0,0.0,13608,24630,23157,30900,18764,5
0.0,0.0,0.0,13538,24630,23157,30869,18820,5
0.0,0.0,0.0,13454,24606,23180,30869,18820,5
0.0,0.0,0.0,13371,24582,23157,30900,18801,5
0.0,0.0,0.0,13357,24534,23157,30838,18783,5
0.0,0.0,0.0,13315,24510,23135,30869,18746,5
0.0,0.0,0.0,13287,24582,23135,30869,18801,5
0.0,0.0,0.0,13343,24510,23112,30838,18727,5
0.0,0.0,0.0,13343,24510,23112,30807,18783,5
0.0,0.0,0.0,13482,24534,23112,30838,18764,5
0.0,0.0,0.0,13482,24534,23112,30776,18746,5
0.0,0.0,0.0,13510,24534,23112,30715,18746,5
0.0,0.0,0.0,13468,24510,23112,30776,18746,5
0.0,0.0,0.0,13412,24462,23112,30715,18727,5
0.0,0.0,0.0,13412,24438,23090,30776,18783,5
0.0,0.0,0.0,13538,24462,23067,30807,18801,5
0.0,0.0,0.0,13371,24414,23044,30715,18709,5
0.0,0.0,0.0,12972,24390,23022,30776,18746,5
0.0,0.0,0.0,12851,24342,22977,30838,18783,5
0.0,0.0,0.0,12797,24390,22955,30869,18727,5
0.0,0.0,0.0,12797,24438,22955,30838,18746,5
0.0,0.0,0.0,12851,24366,22955,30807,18783,5
0.0,0.0,0.0,12851,24271,22999,30838,18709,5
0.0,0.0,0.0,13177,24414,23022,30745,18783,5
0.0,0.0,0.0,13510,24414,23044,30653,18801,5
0.0,0.0,0.0,13679,24510,23112,30715,18820,5
0.0,0.0,0.0,13792,24534,23090,30653,18820,5
0.0,0.0,0.0,13735,24510,23112,30653,18783,5
0.0,0.0,0.0,13735,24438,23112,30715,18820,5
0.0,0.0,0.0,13707,24462,23112,30715,18820,5
0.0,0.0,0.0,13622,24462,23112,30622,18746,5
0.0,0.0,0.0,13650,24462,23022,30684,18801,5
0.0,0.0,0.0,13964,24342,23044,30653,18727,5
0.0,0.0,0.0,14079,24342,23022,30622,18709,5
0.0,0.0,0.0,13735,24390,22955,30622,18709,5
0.0,0.0,0.0,13163,24318,22955,30715,18709,5
0.0,0.0,0.0,13013,24271,22977,30715,18727,5
0.0,0.0,0.0,12972,24271,22910,30745,18727,5
0.0,0.0,0.0,12905,24318,22887,30715,18709,5
0.0,0.0,0.0,12851,24247,22887,30776,18746,5
0.0,0.0,0.0,12810,24271,22865,30776,18709,5
0.0,0.0,0.0,12824,24223,22932,30776,18727,5
0.0,0.0,0.0,12851,24223,22843,30715,18727,5
0.0,0.0,0.0,13315,24366,22977,30653,18820,5
0.0,0.0,0.0,13510,24414,22977,30591,18783,5
0.0,0.0,0.0,13594,24414,23022,30591,18783,5
0.0,0.0,0.0,13468,24414,23022,30591,18801,5
0.0,0.0,0.0,13398,24414,22977,30499,18783,5
0.0,0.0,0.0,13398,24414,22999,30591,18801,5
0.0,0.0,0.0,13398,24414,22932,30499,18838,5
0.0,0.0,0.0,13398,24366,23022,30499,18783,5
0.0,0.0,0.0,13412,24366,22977,30499,18820,5
0.0,0.0,0.0,13412,24366,22977,30530,18820,5
0.0,0.0,0.0,13412,24414,22910,30469,18801,5
0.0,0.0,0.0,13357,24318,22955,30469,18727,5
0.0,0.0,0.0,13357,24342,22932,30530,18746,5
0.0,0.0,0.0,13343,24342,22955,30469,18801,5
0.0,0.0,0.0,13398,24414,22955,30469,18709,5
0.0,0.0,0.0,13650,24271,22977,30530,18709,5
0.0,0.0,0.0,13122,24247,22932,30591,18709,5
0.0,0.0,0.0,12972,24223,22865,30591,18635,5
0.0,0.0,0.0,12905,24223,22843,30591,18635,5
0.0,0.0,0.0,12878,24223,22820,30591,18635,5
0.0,0.0,0.0,12851,24199,22843,30622,18691,5
0.0,0.0,0.0,12851,24152,22843,30530,18709,5
0.0,0.0,0.0,12837,24223,22843,30591,18635,5
0.0,0.0,0.0,12810,24223,22865,30530,18654,5
0.0,0.0,0.0,12797,24152,22843,30591,18654,5
0.0,0.0,0.0,12797,24152,22798,30622,18635,5
0.0,0.0,0.0,12797,24176,22843,30591,18654,5
0.0,0.0,0.0,12797,24152,22843,30530,18709,5
0.0,0.0,0.0,12797,24129,22798,30591,18709,5
0.0,0.0,0.0,12770,24152,22843,30530,18654,5
0.0,0.0,0.0,12797,24129,22843,30591,18635,5
0.0,0.0,0.0,12770,24105,22887,30591,18672,5
0.0,0.0,0.0,12783,24105,22865,30591,18635,5
0.0,0.0,0.0,12770,24105,22865,30469,18617,5
0.0,0.0,0.0,12770,24129,22820,30530,18617,5
0.0,0.0,0.0,12770,24129,22820,30530,18635,5
0.0,0.0,0.0,12756,24129,22798,30530,18635,5
0.0,0.0,0.0,12797,24058,22798,30530,18635,5
0.0,0.0,0.0,12797,24081,22798,30530,18617,5
0.0,0.0,0.0,12797,24058,22843,30530,18635,5
0.0,0.0,0.0,12756,24129,22798,30530,18617,5
0.0,0.0,0.0,12797,24129,22776,30591,18617,5
0.0,0.0,0.0,12851,24129,22843,30591,18635,5
0.0,0.0,0.0,12851,24034,22798,30530,18635,5
0.0,0.0,0.0,12824,24129,22709,30561,18635,5
0.0,0.0,0.0,12891,24129,22798,30591,18599,5
0.0,0.0,0.0,12972,24081,22798,30469,18654,5
0.0,0.0,0.0,13136,24129,22798,30530,18672,5
0.0,0.0,0.0,13343,24176,22843,30530,18654,5
0.0,0.0,0.0,13412,24176,22887,30499,18635,5
0.0,0.0,0.0,13482,24223,22932,30530,18672,5
0.0,0.0,0.0,13398,24176,22932,30499,18709,5
0.0,0.0,0.0,13343,24176,22887,30499,18654,5
0.0,0.0,0.0,13315,24129,22887,30499,18709,5
0.0,0.0,0.0,13260,24223,22843,30469,18599,5
0.0,0.0,0.0,13232,24129,22865,30469,18672,5
0.0,0.0,0.0,13205,24081,22843,30347,18709,5
0.0,0.0,0.0,13177,24152,22843,30408,18672,5
0.0,0.0,0.0,13191,24152,22798,30438,18709,5
0.0,0.0,0.0,13150,24152,22865,30377,18709,5
0.0,0.0,0.0,13136,24129,22843,30438,18691,5
0.0,0.0,0.0,13136,24105,22776,30377,18691,5
0.0,0.0,0.0,13136,24129,22887,30377,18709,5
0.0,0.0,0.0,13136,24129,22843,30377,18672,5
0.0,0.0,0.0,13136,24129,22776,30347,18654,5
0.0,0.0,0.0,13122,24034,22798,30408,18672,5
0.0,0.0,0.0,13122,24081,22798,30377,18709,5
0.0,0.0,0.0,13122,24081,22731,30347,18709,5
0.0,0.0,0.0,13095,24081,22754,30377,18654,5
0.0,0.0,0.0,13122,24058,22798,30408,18654,5
0.0,0.0,0.0,13122,24058,22798,30377,18746,5
0.0,0.0,0.0,13122,24058,22754,30377,18672,5
0.0,0.0,0.0,13109,24081,22754,30347,18727,5
0.0,0.0,0.0,13122,24081,22776,30347,18709,5
0.0,0.0,0.0,13205,24034,22754,30408,18746,5
0.0,0.0,0.0,13343,23987,22798,30347,18691,5
0.0,0.0,0.0,13109,24081,22754,30408,18709,5
0.0,0.0,0.0,13095,24034,22754,30377,18672,5
0.0,0.0,0.0,13122,24034,22754,30408,18727,5
0.0,0.0,0.0,13177,24034,22709,30438,18746,5
0.0,0.0,0.0,13287,24034,22709,30347,18672,5
0.0,0.0,0.0,13315,23987,22754,30408,18709,5
0.0,0.0,0.0,13398,24034,22754,30347,18709,5
0.0,0.0,0.0,13412,24081,22754,30408,18709,5
0.0,0.0,0.0,13566,24223,22887,30377,18727,5
0.0,0.0,0.0,13622,24223,22910,30347,18709,5
0.0,0.0,0.0,13580,24223,22887,30347,18691,5
0.0,0.0,0.0,13524,24223,22887,30347,18727,5
0.0,0.0,0.0,13482,24199,22843,30347,18727,5
0.0,0.0,0.0,13454,24223,22865,30286,18709,5
0.0,0.0,0.0,13510,24247,22843,30347,18709,5
0.0,0.0,0.0,13849,24129,22843,30377,18654,5
0.0,0.0,0.0,14079,24129,22754,30408,18672,5
0.0,0.0,0.0,13679,24081,22798,30469,18709,5
0.0,0.0,0.0,13398,24081,22754,30469,18635,5
0.0,0.0,0.0,13315,24058,22776,30469,18654,5
0.0,0.0,0.0,13274,24034,22754,30591,18709,5
0.0,0.0,0.0,13177,24081,22776,30469,18672,5
0.0,0.0,0.0,13150,24034,22709,30469,18727,5
0.0,0.0,0.0,13122,24034,22709,30499,18654,5
0.0,0.0,0.0,13095,24034,22709,30408,18672,5
0.0,0.0,0.0,13068,24034,22709,30469,18709,5
0.0,0.0,0.0,13081,24034,22709,30408,18709,5
0.0,0.0,0.0,13095,24034,22709,30347,18672,5
0.0,0.0,0.0,13122,24034,22709,30347,18709,5
0.0,0.0,0.0,13122,23940,22709,30377,18635,5
0.0,0.0,0.0,13232,24011,22731,30408,18654,5
0.0,0.0,0.0,13329,24081,22754,30347,18709,5
0.0,0.0,0.0,13482,24081,22754,30347,18672,5
0.0,0.0,0.0,13580,24176,22843,30317,18691,5
0.0,0.0,0.0,13665,24223,22798,30286,18691,5
0.0,0.0,0.0,13679,24129,22820,30286,18709,5
0.0,0.0,0.0,13650,24129,22798,30286,18709,5
0.0,0.0,0.0,13622,24129,22798,30286,18709,5
0.0,0.0,0.0,13778,24081,22754,30256,18635,5
0.0,0.0,0.0,14297,24081,22798,30226,18709,5
0.0,0.0,0.0,14518,23987,22776,30347,18709,5
0.0,0.0,0.0,14166,24011,22754,30347,18654,5
0.0,0.0,0.0,13707,23987,22709,30347,18635,5
0.0,0.0,0.0,13454,23987,22709,30408,18654,5
0.0,0.0,0.0,13412,23987,22709,30347,18635,5
0.0,0.0,0.0,13454,24011,22709,30377,18672,5
0.0,0.0,0.0,13650,24034,22754,30377,18635,5
0.0,0.0,0.0,13778,23987,22776,30347,18599,5
0.0,0.0,0.0,13693,24081,22843,30347,18599,5
0.0,0.0,0.0,13679,24081,22843,30377,18691,5
0.0,0.0,0.0,13679,24081,22798,30286,18599,5
0.0,0.0,0.0,13735,24058,22820,30286,18599,5
0.0,0.0,0.0,14108,23940,22798,30347,18635,5
0.0,0.0,0.0,14021,23940,22754,30286,18599,5
0.0,0.0,0.0,13906,23917,22665,30317,18635,5
0.0,0.0,0.0,13764,23940,22687,30347,18581,5
0.0,0.0,0.0,13707,23964,22665,30286,18635,5
0.0,0.0,0.0,13636,23964,22709,30347,18562,5
0.0,0.0,0.0,13622,23894,22621,30286,18599,5
0.0,0.0,0.0,13510,23894,22665,30286,18617,5
0.0,0.0,0.0,13482,23870,22643,30286,18635,5
0.0,0.0,0.0,13524,23940,22665,30256,18599,5
0.0,0.0,0.0,13566,23917,22665,30226,18581,5
0.0,0.0,0.0,13622,23940,22665,30256,18599,5
0.0,0.0,0.0,13778,23917,22754,30286,18635,5
0.0,0.0,0.0,13921,24129,22820,30286,18544,5
0.0,0.0,0.0,14064,24129,22843,30226,18635,5
0.0,0.0,0.0,13935,24129,22865,30256,18635,5
0.0,0.0,0.0,13835,24105,22843,30256,18654,5
0.0,0.0,0.0,13806,24081,22798,30226,18635,5
0.0,0.0,0.0,13792,24105,22776,30165,18635,5
0.0,0.0,0.0,13735,24081,22843,30165,18635,5
0.0,0.0,0.0,13735,24058,22798,30165,18635,5
0.0,0.0,0.0,13707,24058,22843,30165,18709,5
0.0,0.0,0.0,13679,24034,22776,30165,18672,5
0.0,0.0,0.0,13636,24034,22754,30165,18654,5
0.0,0.0,0.0,13679,24034,22754,30165,18635,5
0.0,0.0,0.0,13622,24058,22709,30045,18635,5
0.0,0.0,0.0,13608,23987,22709,30105,18654,5
0.0,0.0,0.0,13608,24034,22754,30105,18654,5
0.0,0.0,0.0,13566,23987,22754,30075,18635,5
0.0,0.0,0.0,13524,24034,22754,30075,18617,5
0.0,0.0,0.0,13510,24058,22709,30045,18654,5
0.0,0.0,0.0,13510,24034,22709,30165,18654,5
0.0,0.0,0.0,13482,23987,22709,30105,18635,5
0.0,0.0,0.0,13454,23987,22665,30015,18617,5
0.0,0.0,0.0,13454,23987,22709,30105,18635,5
0.0,0.0,0.0,13454,23964,22665,30045,18635,5
0.0,0.0,0.0,13482,23964,22665,29984,18635,5
0.0,0.0,0.0,13468,23964,22709,30075,18617,5
0.0,0.0,0.0,13482,23987,22665,29984,18599,5
0.0,0.0,0.0,13468,23964,22665,30075,18635,5
0.0,0.0,0.0,13468,23940,22665,29984,18635,5
0.0,0.0,0.0,13482,23987,22665,29984,18635,5
0.0,0.0,0.0,13454,23964,22665,30015,18599,5
0.0,0.0,0.0,13454,23940,22687,30015,18654,5
0.0,0.0,0.0,13482,23987,22665,29984,18599,5
0.0,0.0,0.0,13454,23940,22621,30015,18654,5
0.0,0.0,0.0,13454,23940,22687,30015,18635,5
0.0,0.0,0.0,13454,23894,22621,30015,18672,5
0.0,0.0,0.0,13454,23940,22621,30015,18635,5
0.0,0.0,0.0,13454,23894,22621,30015,18672,5
0.0,0.0,0.0,13454,23940,22599,30015,18635,5
0.0,0.0,0.0,13454,23894,22643,29984,18635,5
0.0,0.0,0.0,13454,23894,22621,29984,18635,5
0.0,0.0,0.0,13921,23940,22643,29984,18635,5
0.0,0.0,0.0,14108,23940,22599,29984,18562,5
0.0,0.0,0.0,13964,23940,22599,30045,18635,5
0.0,0.0,0.0,13650,23940,22576,30165,18599,5
0.0,0.0,0.0,13650,23894,22599,30165,18599,5
0.0,0.0,0.0,13510,23847,22576,30165,18635,5
0.0,0.0,0.0,13398,23894,22576,30135,18599,5
0.0,0.0,0.0,13371,23847,22576,30105,18599,5
0.0,0.0,0.0,13482,23847,22576,30045,18654,5
0.0,0.0,0.0,13580,23940,22599,29984,18709,5
0.0,0.0,0.0,13622,24011,22576,29984,18783,5
0.0,0.0,0.0,13622,23987,22599,29955,18783,5
0.0,0.0,0.0,13622,23964,22599,29955,18783,5
0.0,0.0,0.0,13594,23964,22576,29925,18820,5
0.0,0.0,0.0,13566,23987,22510,29895,18838,5
0.0,0.0,0.0,13524,23940,22576,29865,18783,5
0.0,0.0,0.0,13510,23940,22532,29865,18801,5
0.0,0.0,0.0,13468,23940,22488,29805,18801,5
0.0,0.0,0.0,13454,23940,22554,29865,18783,5
0.0,0.0,0.0,13454,23894,22576,29775,18783,5
0.0,0.0,0.0,13398,23847,22510,29835,18746,5
0.0,0.0,0.0,13398,23894,22532,29865,18820,5
0.0,0.0,0.0,13357,23894,22488,29805,18783,5
0.0,0.0,0.0,13343,23894,22488,29805,18783,5
0.0,0.0,0.0,13371,23894,22488,29805,18801,5
0.0,0.0,0.0,13343,23870,22488,29775,18783,5
0.0,0.0,0.0,13357,23894,22488,29746,18801,5
0.0,0.0,0.0,13343,23894,22488,29746,18783,5
0.0,0.0,0.0,13343,23894,22510,29746,18783,5
0.0,0.0,0.0,13315,23870,22423,29746,18783,5
0.0,0.0,0.0,13343,23847,22466,29805,18783,5
0.0,0.0,0.0,13398,23894,22488,29746,18746,5
0.0,0.0,0.0,13510,23894,22466,29805,18709,5
0.0,0.0,0.0,13679,23847,22510,29686,18727,5
0.0,0.0,0.0,13622,23847,22488,29805,18727,5
0.0,0.0,0.0,13622,23847,22488,29746,18709,5
0.0,0.0,0.0,13580,23847,22510,29746,18727,5
0.0,0.0,0.0,13524,23800,22444,29746,18746,5
0.0,0.0,0.0,13566,23847,22488,29746,18709,5
0.0,0.0,0.0,13594,23777,22488,29746,18727,5
0.0,0.0,0.0,13735,23800,22510,29746,18672,5
0.0,0.0,0.0,13778,23847,22444,29746,18654,5
0.0,0.0,0.0,13735,23800,22444,29775,18691,5
0.0,0.0,0.0,13679,23800,22444,29746,18727,5
0.0,0.0,0.0,13650,23847,22488,29746,18709,5
0.0,0.0,0.0,13636,23800,22444,29746,18709,5
0.0,0.0,0.0,13650,23847,22444,29657,18709,5
0.0,0.0,0.0,13622,23800,22444,29746,18727,5
0.0,0.0,0.0,13650,23800,22401,29686,18727,5
0.0,0.0,0.0,13580,23754,22466,29716,18746,5
0.0,0.0,0.0,13622,23777,22423,29657,18654,5
0.0,0.0,0.0,13566,23847,22444,29746,18709,5
0.0,0.0,0.0,13580,23800,22444,29746,18727,5
0.0,0.0,0.0,13580,23870,22401,29716,18672,5
0.0,0.0,0.0,13594,23800,22444,29746,18727,5
0.0,0.0,0.0,13622,23754,22423,29657,18672,5
0.0,0.0,0.0,13849,23824,22444,29746,18654,5
0.0,0.0,0.0,13935,23847,22532,29627,18727,5
0.0,0.0,0.0,13849,23870,22488,29716,18709,5
0.0,0.0,0.0,13764,23870,22532,29686,18654,5
0.0,0.0,0.0,13679,23847,22488,29716,18709,5
0.0,0.0,0.0,13552,23824,22488,29657,18709,5
0.0,0.0,0.0,13510,23800,22510,29686,18746,5
0.0,0.0,0.0,13482,23777,22466,29686,18691,5
0.0,0.0,0.0,13454,23847,22488,29627,18709,5
0.0,0.0,0.0,13412,23847,22466,29657,18672,5
0.0,0.0,0.0,13426,23847,22444,29597,18654,5
0.0,0.0,0.0,13398,23800,22444,29686,18654,5
0.0,0.0,0.0,13371,23824,22444,29686,18654,5
0.0,0.0,0.0,13357,23824,22444,29597,18654,5
0.0,0.0,0.0,13371,23777,22444,29657,18654,5
0.0,0.0,0.0,13371,23870,22444,29627,18654,5
0.0,0.0,0.0,13371,23800,22488,29627,18709,5
0.0,0.0,0.0,13357,23800,22466,29657,18709,5
0.0,0.0,0.0,13357,23777,22466,29627,18672,5
0.0,0.0,0.0,13357,23754,22444,29686,18635,5
0.0,0.0,0.0,13343,23730,22401,29627,18654,5
0.0,0.0,0.0,13315,23730,22423,29627,18654,5
0.0,0.0,0.0,13343,23754,22423,29627,18654,5
0.0,0.0,0.0,13301,23754,22401,29657,18709,5
0.0,0.0,0.0,13287,23754,22423,29627,18635,5
0.0,0.0,0.0,13343,23754,22444,29627,18635,5
0.0,0.0,0.0,13287,23754,22423,29627,18654,5
0.0,0.0,0.0,13315,23847,22401,29627,18635,5
0.0,0.0,0.0,13260,23684,22444,29627,18672,5
0.0,0.0,0.0,13287,23800,22444,29657,18654,5
0.0,0.0,0.0,13287,23754,22444,29627,18635,5
0.0,0.0,0.0,13260,23777,22423,29597,18654,5
0.0,0.0,0.0,13315,23777,22357,29627,18654,5
0.0,0.0,0.0,13287,23707,22401,29627,18635,5
0.0,0.0,0.0,13301,23777,22401,29627,18635,5
0.0,0.0,0.0,13287,23754,22357,29568,18672,5
0.0,0.0,0.0,13287,23754,22401,29627,18654,5
0.0,0.0,0.0,13301,23754,22379,29568,18672,5
0.0,0.0,0.0,13287,23707,22401,29597,18654,5
0.0,0.0,0.0,13315,23754,22401,29627,18672,5
0.0,0.0,0.0,13454,23754,22401,29627,18709,5
0.0,0.0,0.0,13679,23800,22444,29627,18599,5
0.0,0.0,0.0,13622,23800,22488,29568,18635,5
0.0,0.0,0.0,13580,23824,22444,29538,18599,5
0.0,0.0,0.0,13524,23777,22488,29568,18654,5
0.0,0.0,0.0,13468,23754,22401,29568,18672,5
0.0,0.0,0.0,13412,23754,22401,29538,18635,5
0.0,0.0,0.0,13398,23754,22423,29538,18635,5
0.0,0.0,0.0,13371,23754,22444,29509,18635,5
0.0,0.0,0.0,13357,23777,22379,29509,18635,5
0.0,0.0,0.0,13343,23800,22401,29538,18635,5
0.0,0.0,0.0,13343,23754,22357,29538,18635,5
0.0,0.0,0.0,13343,23754,22357,29509,18581,5
0.0,0.0,0.0,13343,23754,22335,29538,18635,5
0.0,0.0,0.0,13329,23777,22379,29509,18599,5
0.0,0.0,0.0,13301,23707,22401,29627,18635,5
0.0,0.0,0.0,13301,23754,22357,29509,18635,5
0.0,0.0,0.0,13287,23754,22401,29568,18635,5
0.0,0.0,0.0,13343,23754,22401,29627,18635,5
0.0,0.0,0.0,13301,23777,22401,29538,18599,5
0.0,0.0,0.0,13287,23754,22357,29538,18635,5
0.0,0.0,0.0,13287,23754,22313,29509,18599,5
0.0,0.0,0.0,13287,23730,22401,29538,18635,5
0.0,0.0,0.0,13274,23754,22401,29568,18654,5
0.0,0.0,0.0,13274,23707,22357,29509,18599,5
0.0,0.0,0.0,13287,23754,22401,29509,18635,5
0.0,0.0,0.0,13287,23684,22335,29479,18581,5
0.0,0.0,0.0,13287,23754,22313,29421,18581,5
0.0,0.0,0.0,13301,23754,22357,29509,18635,5
0.0,0.0,0.0,13329,23754,22357,29538,18599,5
0.0,0.0,0.0,13287,23777,22401,29450,18635,5
0.0,0.0,0.0,13343,23707,22401,29509,18635,5
0.0,0.0,0.0,13398,23754,22401,29509,18654,5
0.0,0.0,0.0,13679,23707,22401,29509,18635,5
0.0,0.0,0.0,14166,23754,22335,29509,18599,5
0.0,0.0,0.0,13566,23800,22423,29627,18526,5
0.0,0.0,0.0,13412,23777,22401,29627,18508,5
0.0,0.0,0.0,13232,23707,22444,29716,18562,5
0.0,0.0,0.0,13122,23800,22357,29746,18526,5
0.0,0.0,0.0,13068,23754,22379,29805,18562,5
0.0,0.0,0.0,13205,23707,22401,29746,18508,5
0.0,0.0,0.0,13468,23777,22488,29657,18562,5
0.0,0.0,0.0,13792,23847,22532,29538,18526,5
0.0,0.0,0.0,13906,23894,22599,29538,18562,5
0.0,0.0,0.0,13921,23940,22599,29568,18599,5
0.0,0.0,0.0,13906,23940,22621,29538,18599,5
0.0,0.0,0.0,13863,23940,22665,29538,18562,5
0.0,0.0,0.0,13849,23894,22576,29538,18562,5
0.0,0.0,0.0,13821,23940,22599,29538,18508,5
0.0,0.0,0.0,13821,23940,22576,29568,18526,5
0.0,0.0,0.0,13778,23917,22576,29568,18562,5
0.0,0.0,0.0,13849,23894,22532,29538,18508,5
0.0,0.0,0.0,14021,23894,22532,29509,18526,5
0.0,0.0,0.0,14195,23824,22510,29509,18508,5
0.0,0.0,0.0,14282,23847,22444,29509,18489,5
0.0,0.0,0.0,14341,23754,22488,29568,18508,5
0.0,0.0,0.0,14268,23754,22444,29450,18489,5
0.0,0.0,0.0,14137,23754,22444,29509,18489,5
0.0,0.0,0.0,14021,23754,22444,29509,18489,5
0.0,0.0,0.0,13992,23707,22423,29568,18526,5
0.0,0.0,0.0,13921,23707,22423,29538,18562,5
0.0,0.0,0.0,13863,23684,22401,29509,18544,5
0.0,0.0,0.0,13792,23754,22401,29509,18581,5
0.0,0.0,0.0,13792,23707,22379,29479,18526,5
0.0,0.0,0.0,13735,23661,22423,29538,18599,5
0.0,0.0,0.0,13707,23707,22401,29450,18562,5
0.0,0.0,0.0,13693,23754,22335,29450,18562,5
0.0,0.0,0.0,13650,23707,22401,29391,18599,5
0.0,0.0,0.0,13636,23684,22401,29450,18599,5
0.0,0.0,0.0,13622,23661,22401,29450,18562,5
0.0,0.0,0.0,13622,23615,22379,29450,18599,5
0.0,0.0,0.0,13622,23661,22401,29479,18526,5
0.0,0.0,0.0,13566,23661,22401,29450,18562,5
0.0,0.0,0.0,13566,23661,22313,29391,18544,5
0.0,0.0,0.0,13538,23661,22357,29479,18562,5
0.0,0.0,0.0,13510,23684,22335,29333,18544,5
0.0,0.0,0.0,13510,23684,22335,29304,18562,5
0.0,0.0,0.0,13482,23661,22357,29391,18508,5
0.0,0.0,0.0,13454,23661,22335,29391,18562,5
0.0,0.0,0.0,13412,23661,22313,29391,18489,5
0.0,0.0,0.0,13426,23615,22313,29391,18562,5
0.0,0.0,0.0,13454,23707,22270,29333,18544,5
0.0,0.0,0.0,13440,23684,22313,29362,18544,5
0.0,0.0,0.0,13412,23661,22335,29333,18599,5
0.0,0.0,0.0,13454,23661,22292,29362,18562,5
0.0,0.0,0.0,13412,23615,22335,29391,18562,5
0.0,0.0,0.0,13468,23661,22313,29391,18508,5
0.0,0.0,0.0,13496,23684,22313,29333,18581,5
0.0,0.0,0.0,13510,23754,22313,29304,18581,5
0.0,0.0,0.0,13566,23684,22335,29391,18599,5
0.0,0.0,0.0,13580,23684,22335,29362,18599,5
0.0,0.0,0.0,13580,23684,22401,29362,18581,5
0.0,0.0,0.0,13538,23684,22357,29333,18599,5
0.0,0.0,0.0,13482,23684,22335,29333,18562,5
0.0,0.0,0.0,13412,23661,22357,29391,18599,5
0.0,0.0,0.0,13398,23661,22335,29391,18617,5
0.0,0.0,0.0,13357,23661,22335,29304,18562,5
0.0,0.0,0.0,13357,23661,22248,29362,18581,5
0.0,0.0,0.0,13343,23615,22270,29333,18635,5
0.0,0.0,0.0,13301,23707,22270,29333,18599,5
0.0,0.0,0.0,13315,23615,22313,29304,18617,5
0.0,0.0,0.0,13301,23638,22292,29304,18635,5
0.0,0.0,0.0,13287,23615,22313,29274,18635,5
0.0,0.0,0.0,13287,23661,22313,29333,18599,5
0.0,0.0,0.0,13274,23615,22270,29333,18617,5
0.0,0.0,0.0,13232,23615,22292,29274,18635,5
0.0,0.0,0.0,13246,23661,22292,29304,18617,5
0.0,0.0,0.0,13232,23661,22248,29274,18562,5
0.0,0.0,0.0,13274,23592,22313,29274,18581,5
0.0,0.0,0.0,13287,23684,22292,29274,18617,5
0.0,0.0,0.0,13315,23615,22313,29274,18599,5
0.0,0.0,0.0,13343,23684,22313,29216,18599,5
0.0,0.0,0.0,13329,23661,22313,29304,18562,5
0.0,0.0,0.0,13287,23661,22313,29245,18581,5
0.0,0.0,0.0,13260,23661,22270,29274,18581,5
0.0,0.0,0.0,13287,23661,22248,29274,18581,5
0.0,0.0,0.0,13260,23684,22248,29274,18526,5
0.0,0.0,0.0,13274,23592,22270,29274,18581,5
0.0,0.0,0.0,13246,23661,22292,29274,18599,5
0.0,0.0,0.0,13260,23615,22226,29274,18581,5
0.0,0.0,0.0,13260,23615,22248,29304,18599,5
0.0,0.0,0.0,13274,23661,22226,29274,18599,5
0.0,0.0,0.0,13232,23615,22270,29333,18635,5
0.0,0.0,0.0,13232,23615,22248,29216,18599,5
0.0,0.0,0.0,13232,23569,22270,29216,18635,5
0.0,0.0,0.0,13232,23661,22226,29274,18508,5
0.0,0.0,0.0,13232,23592,22292,29274,18581,5
0.0,0.0,0.0,13246,23661,22226,29216,18581,5
0.0,0.0,0.0,13205,23615,22270,29216,18617,5
0.0,0.0,0.0,13232,23592,22226,29274,18544,5
0.0,0.0,0.0,13287,23661,22270,29274,18581,5
0.0,0.0,0.0,13343,23615,22226,29216,18562,5
0.0,0.0,0.0,13343,23638,22226,29216,18562,5
0.0,0.0,0.0,13287,23615,22313,29274,18562,5
0.0,0.0,0.0,13260,23615,22270,29216,18562,5
0.0,0.0,0.0,13260,23661,22248,29274,18526,5
0.0,0.0,0.0,13232,23661,22226,29274,18581,5
0.0,0.0,0.0,13218,23661,22248,29187,18562,5
0.0,0.0,0.0,13246,23569,22248,29187,18599,5
0.0,0.0,0.0,13177,23592,22270,29274,18654,5
0.0,0.0,0.0,13205,23615,22270,29274,18599,5
0.0,0.0,0.0,13191,23638,22226,29245,18544,5
0.0,0.0,0.0,13232,23569,22248,29245,18562,5
0.0,0.0,0.0,13246,23615,22248,29216,18581,5
0.0,0.0,0.0,13205,23661,22248,29216,18581,5
0.0,0.0,0.0,13260,23569,22248,29216,18581,5
0.0,0.0,0.0,13218,23615,22270,29274,18599,5
0.0,0.0,0.0,13232,23592,22226,29274,18617,5
0.0,0.0,0.0,13205,23615,22226,29216,18562,5
0.0,0.0,0.0,13205,23615,22248,29274,18599,5
0.0,0.0,0.0,13205,23592,22226,29245,18562,5
0.0,0.0,0.0,13205,23569,22226,29216,18599,5
0.0,0.0,0.0,13205,23592,22183,29216,18599,5
0.0,0.0,0.0,13205,23569,22248,29216,18599,5
0.0,0.0,0.0,13205,23569,22226,29216,18581,5
0.0,0.0,0.0,13205,23592,22226,29158,18562,5
0.0,0.0,0.0,13232,23569,22226,29158,18617,5
0.0,0.0,0.0,13205,23615,22226,29158,18581,5
0.0,0.0,0.0,13191,23661,22205,29158,18544,5
0.0,0.0,0.0,13205,23592,22226,29187,18599,5
0.0,0.0,0.0,13177,23569,22226,29158,18599,5
0.0,0.0,0.0,13218,23569,22226,29187,18562,5
0.0,0.0,0.0,13191,23592,22226,29216,18617,5
0.0,0.0,0.0,13205,23569,22226,29158,18599,5
0.0,0.0,0.0,13218,23569,22226,29158,18562,5
0.0,0.0,0.0,13205,23592,22226,29129,18599,5
0.0,0.0,0.0,13205,23569,22248,29158,18581,5
0.0,0.0,0.0,13177,23615,22226,29129,18599,5
0.0,0.0,0.0,13205,23592,22248,29158,18562,5
0.0,0.0,0.0,13177,23592,22226,29158,18562,5
0.0,0.0,0.0,13177,23569,22226,29100,18599,5
0.0,0.0,0.0,13177,23592,22226,29100,18562,5
0.0,0.0,0.0,13191,23615,22205,29129,18562,5
0.0,0.0,0.0,13177,23522,22226,29129,18599,5
0.0,0.0,0.0,13191,23615,22226,29158,18599,5
0.0,0.0,0.0,13205,23569,22248,29100,18581,5
0.0,0.0,0.0,13177,23569,22248,29129,18562,5
0.0,0.0,0.0,13177,23522,22270,29100,18599,5
0.0,0.0,0.0,13177,23615,22226,29100,18599,5
0.0,0.0,0.0,13232,23546,22226,29129,18562,5
0.0,0.0,0.0,13177,23522,22226,29158,18581,5
0.0,0.0,0.0,13177,23522,22226,29100,18635,5
0.0,0.0,0.0,13191,23569,22161,29071,18599,5
0.0,0.0,0.0,13232,23615,22248,29100,18599,5
0.0,0.0,0.0,13510,23592,22270,29100,18599,5
0.0,0.0,0.0,13650,23615,22270,29100,18617,5
0.0,0.0,0.0,13608,23661,22248,29100,18562,5
0.0,0.0,0.0,13735,23615,22248,29129,18544,5
0.0,0.0,0.0,14007,23569,22226,29071,18562,5
0.0,0.0,0.0,14021,23615,22226,29071,18562,5
0.0,0.0,0.0,13735,23569,22226,29158,18544,5
0.0,0.0,0.0,13594,23546,22226,29158,18489,5
0.0,0.0,0.0,13538,23569,22183,29158,18562,5
0.0,0.0,0.0,13552,23499,22183,29129,18526,5
0.0,0.0,0.0,13566,23522,22226,29187,18508,5
0.0,0.0,0.0,13622,23522,22270,29100,18526,5
0.0,0.0,0.0,13594,23569,22183,29042,18508,5
0.0,0.0,0.0,13524,23569,22205,29100,18508,5
0.0,0.0,0.0,13510,23522,22161,29071,18508,5
0.0,0.0,0.0,13496,23569,22226,29100,18489,5
0.0,0.0,0.0,13510,23522,22161,29100,18544,5
0.0,0.0,0.0,13454,23499,22226,29100,18526,5
0.0,0.0,0.0,13398,23546,22183,29100,18581,5
0.0,0.0,0.0,13398,23522,22161,29071,18526,5
0.0,0.0,0.0,13343,23499,22161,29071,18526,5
0.0,0.0,0.0,13329,23546,22226,29100,18599,5
0.0,0.0,0.0,13343,23522,22183,29013,18526,5
0.0,0.0,0.0,13315,23522,22183,29042,18562,5
0.0,0.0,0.0,13315,23569,22161,29042,18562,5
0.0,0.0,0.0,13343,23546,22161,29071,18599,5
0.0,0.0,0.0,13315,23546,22183,29100,18599,5
0.0,0.0,0.0,13287,23569,22226,29042,18581,5
0.0,0.0,0.0,13232,23499,22183,29071,18599,5
0.0,0.0,0.0,13191,23569,22183,29013,18599,5
0.0,0.0,0.0,13177,23499,22183,29042,18562,5
0.0,0.0,0.0,13150,23477,22161,29042,18635,5
0.0,0.0,0.0,13177,23522,22140,28984,18599,5
0.0,0.0,0.0,13150,23499,22161,28984,18562,5
0.0,0.0,0.0,13163,23477,22161,29042,18617,5
0.0,0.0,0.0,13122,23522,22161,28984,18599,5
0.0,0.0,0.0,13122,23615,22140,29042,18562,5
0.0,0.0,0.0,13177,23499,22161,29042,18562,5
0.0,0.0,0.0,13177,23569,22161,29013,18581,5
0.0,0.0,0.0,13163,23477,22226,29042,18581,5
0.0,0.0,0.0,13177,23615,22161,29042,18599,5
0.0,0.0,0.0,13566,23477,22140,28984,18562,5
0.0,0.0,0.0,13735,23522,22161,29100,18489,5
0.0,0.0,0.0,13735,23499,22205,29158,18489,5
0.0,0.0,0.0,13650,23522,22161,29071,18526,5
0.0,0.0,0.0,13594,23477,22140,29158,18489,5
0.0,0.0,0.0,13524,23499,22140,29100,18489,5
0.0,0.0,0.0,13510,23477,22183,29100,18489,5
0.0,0.0,0.0,13510,23522,22183,29071,18508,5
0.0,0.0,0.0,13510,23522,22140,29071,18489,5
0.0,0.0,0.0,13357,23546,22183,29100,18508,5
0.0,0.0,0.0,13343,23499,22183,29042,18508,5
0.0,0.0,0.0,13357,23522,22226,29100,18562,5
0.0,0.0,0.0,13398,23477,22161,29013,18562,5
0.0,0.0,0.0,13357,23522,22140,29042,18544,5
0.0,0.0,0.0,13371,23477,22205,29042,18581,5
0.0,0.0,0.0,13371,23546,22161,29042,18562,5
0.0,0.0,0.0,13524,23499,22183,29071,18562,5
0.0,0.0,0.0,13764,23477,22183,29071,18526,5
0.0,0.0,0.0,13906,23477,22183,29071,18526,5
0.0,0.0,0.0,14021,23431,22140,29042,18489,5
0.0,0.0,0.0,13964,23477,22205,29100,18526,5
0.0,0.0,0.0,13978,23477,22161,29100,18489,5
0.0,0.0,0.0,13935,23477,22118,29071,18489,5
0.0,0.0,0.0,13863,23477,22183,29071,18489,5
0.0,0.0,0.0,13821,23454,22161,29158,18526,5
0.0,0.0,0.0,13821,23385,22118,29100,18508,5
0.0,0.0,0.0,13892,23477,22161,29158,18489,5
0.0,0.0,0.0,13921,23477,22205,29100,18489,5
0.0,0.0,0.0,13806,23499,22226,29071,18508,5
0.0,0.0,0.0,13707,23546,22226,29071,18508,5
0.0,0.0,0.0,13622,23522,22226,29100,18526,5
0.0,0.0,0.0,13552,23522,22205,29100,18544,5
0.0,0.0,0.0,13580,23522,22183,29042,18489,5
0.0,0.0,0.0,13566,23522,22183,29042,18508,5
0.0,0.0,0.0,13524,23546,22226,29071,18562,5
0.0,0.0,0.0,13510,23522,22226,29042,18562,5
0.0,0.0,0.0,13510,23454,22226,29071,18508,5
0.0,0.0,0.0,13496,23477,22183,29042,18526,5
0.0,0.0,0.0,13510,23499,22226,29042,18508,5
0.0,0.0,0.0,13524,23477,22226,29042,18526,5
0.0,0.0,0.0,13510,23477,22183,28927,18562,5
0.0,0.0,0.0,13538,23499,22183,29100,18562,5
0.0,0.0,0.0,13693,23546,22205,29042,18544,5
0.0,0.0,0.0,13821,23477,22226,28984,18526,5
0.0,0.0,0.0,13821,23477,22161,29071,18489,5
0.0,0.0,0.0,13792,23477,22183,29042,18508,5
0.0,0.0,0.0,13749,23499,22226,29042,18526,5
0.0,0.0,0.0,13707,23477,22140,29042,18526,5
0.0,0.0,0.0,13735,23477,22183,29042,18508,5
0.0,0.0,0.0,13679,23431,22183,28984,18489,5
0.0,0.0,0.0,13693,23431,22226,29042,18526,5
0.0,0.0,0.0,13679,23431,22183,29042,18562,5
0.0,0.0,0.0,13679,23431,22226,29042,18508,5
0.0,0.0,0.0,13665,23499,22140,29042,18526,5
0.0,0.0,0.0,13622,23431,22140,28984,18526,5
0.0,0.0,0.0,13650,23454,22183,29042,18562,5
0.0,0.0,0.0,13622,23431,22140,29042,18489,5
0.0,0.0,0.0,13622,23477,22183,29013,18489,5
0.0,0.0,0.0,13622,23477,22183,28984,18489,5
0.0,0.0,0.0,13594,23431,22161,29042,18526,5
0.0,0.0,0.0,13566,23431,22183,29042,18562,5
0.0,0.0,0.0,13622,23431,22183,29042,18526,5
0.0,0.0,0.0,13594,23477,22140,28984,18489,5
0.0,0.0,0.0,13580,23431,22161,28955,18471,5
0.0,0.0,0.0,13580,23431,22140,29042,18508,5
0.0,0.0,0.0,13510,23431,22183,29042,18526,5
0.0,0.0,0.0,13538,23385,22118,28984,18489,5
0.0,0.0,0.0,13538,23477,22140,28955,18508,5
0.0,0.0,0.0,13524,23385,22140,29042,18508,5
0.0,0.0,0.0,13510,23431,22140,28955,18508,5
0.0,0.0,0.0,13524,23477,22140,28955,18508,5
0.0,0.0,0.0,13510,23477,22140,28984,18562,5
0.0,0.0,0.0,13510,23385,22161,28984,18562,5
0.0,0.0,0.0,13482,23477,22140,28955,18526,5
0.0,0.0,0.0,13510,23431,22140,28984,18581,5
0.0,0.0,0.0,13510,23431,22140,29013,18508,5
0.0,0.0,0.0,13482,23431,22140,29042,18508,5
0.0,0.0,0.0,13482,23431,22161,28984,18508,5
0.0,0.0,0.0,13482,23431,22140,28984,18508,5
0.0,0.0,0.0,13454,23477,22140,28955,18489,5
0.0,0.0,0.0,13482,23477,22140,28984,18544,5
0.0,0.0,0.0,13454,23477,22096,28984,18489,5
0.0,0.0,0.0,13454,23431,22140,29100,18526,5
0.0,0.0,0.0,13468,23477,22140,28955,18508,5
0.0,0.0,0.0,13496,23431,22096,28927,18544,5
0.0,0.0,0.0,13510,23477,22140,28955,18489,5
0.0,0.0,0.0,13524,23477,22161,28984,18489,5
0.0,0.0,0.0,13482,23431,22140,28955,18526,5
0.0,0.0,0.0,13468,23431,22140,28955,18508,5
0.0,0.0,0.0,13482,23431,22140,28984,18526,5
0.0,0.0,0.0,13468,23431,22140,28955,18508,5
0.0,0.0,0.0,13440,23385,22140,28955,18508,5
0.0,0.0,0.0,13454,23431,22140,28984,18544,5
0.0,0.0,0.0,13454,23431,22140,29042,18489,5
0.0,0.0,0.0,13412,23431,22118,28955,18508,5
0.0,0.0,0.0,13412,23431,22140,28984,18562,5
0.0,0.0,0.0,13412,23431,22140,28984,18508,5
0.0,0.0,0.0,13398,23385,22140,28927,18526,5
0.0,0.0,0.0,13412,23431,22075,28955,18526,5
0.0,0.0,0.0,13398,23431,22118,28984,18654,5
0.0,0.0,0.0,13426,23431,22118,28984,18544,5
0.0,0.0,0.0,13412,23431,22096,28955,18508,5
0.0,0.0,0.0,13398,23431,22118,29042,18508,5
0.0,0.0,0.0,13412,23385,22140,28927,18526,5
0.0,0.0,0.0,13398,23431,22096,28927,18526,5
0.0,0.0,0.0,13398,23431,22140,28984,18562,5
0.0,0.0,0.0,13412,23431,22140,28955,18526,5
0.0,0.0,0.0,13398,23431,22140,28927,18544,5
0.0,0.0,0.0,13371,23431,22096,28927,18489,5
0.0,0.0,0.0,13398,23431,22096,28955,18508,5
0.0,0.0,0.0,13398,23431,22096,28927,18489,5
0.0,0.0,0.0,13398,23431,22140,28955,18544,5
0.0,0.0,0.0,13398,23431,22118,28955,18508,5
0.0,0.0,0.0,13412,23477,22096,28927,18489,5
0.0,0.0,0.0,13398,23431,22096,28955,18489,5
0.0,0.0,0.0,13371,23431,22161,28927,18562,5
0.0,0.0,0.0,13371,23385,22075,28898,18526,5
0.0,0.0,0.0,13398,23431,22096,28984,18526,5
0.0,0.0,0.0,13398,23431,22096,28898,18526,5
0.0,0.0,0.0,13371,23431,22096,28984,18544,5
0.0,0.0,0.0,13398,23431,22140,29013,18489,5
0.0,0.0,0.0,13384,23431,22053,28955,18489,5
0.0,0.0,0.0,13371,23431,22096,28927,18526,5
0.0,0.0,0.0,13357,23431,22053,28869,18489,5
0.0,0.0,0.0,13398,23431,22096,28955,18489,5
0.0,0.0,0.0,13398,23385,22096,28927,18489,5
0.0,0.0,0.0,13398,23431,22140,28984,18526,5
0.0,0.0,0.0,13398,23431,22140,28955,18453,5
0.0,0.0,0.0,13412,23431,22075,28927,18489,5
0.0,0.0,0.0,13371,23431,22118,28984,18526,5
0.0,0.0,0.0,13398,23431,22096,28869,18526,5
0.0,0.0,0.0,13412,23431,22096,28927,18508,5
0.0,0.0,0.0,13371,23477,22096,28927,18489,5
0.0,0.0,0.0,13398,23454,22075,28869,18526,5
0.0,0.0,0.0,13384,23431,22096,28927,18489,5
0.0,0.0,0.0,13398,23385,22096,28927,18508,5
0.0,0.0,0.0,13371,23431,22096,28927,18471,5
0.0,0.0,0.0,13371,23385,22096,28927,18489,5
0.0,0.0,0.0,13371,23385,22096,28869,18489,5
0.0,0.0,0.0,13343,23431,22075,28955,18508,5
0.0,0.0,0.0,13398,23385,22075,28955,18489,5
0.0,0.0,0.0,13371,23385,22096,28927,18489,5
0.0,0.0,0.0,13398,23431,22140,28898,18508,5
0.0,0.0,0.0,13357,23431,22075,28869,18489,5
0.0,0.0,0.0,13357,23431,22075,28869,18489,5
0.0,0.0,0.0,13371,23385,22096,28984,18544,5
0.0,0.0,0.0,13384,23431,22096,28927,18544,5
0.0,0.0,0.0,13371,23431,22053,28927,18508,5
0.0,0.0,0.0,13343,23431,22096,28898,18489,5
0.0,0.0,0.0,13384,23431,22096,28927,18489,5
0.0,0.0,0.0,13343,23431,22053,28927,18435,5
0.0,0.0,0.0,13371,23431,22096,28927,18489,5
0.0,0.0,0.0,13357,23431,22075,28840,18489,5
0.0,0.0,0.0,13343,23431,22096,28869,18489,5
0.0,0.0,0.0,13371,23294,22096,28898,18489,5
0.0,0.0,0.0,13357,23431,22096,28927,18489,5
0.0,0.0,0.0,13384,23431,22075,28898,18489,5
0.0,0.0,0.0,13371,23431,22053,28927,18435,5
0.0,0.0,0.0,13371,23431,22053,28869,18489,5
0.0,0.0,0.0,13343,23316,22053,28927,18526,5
0.0,0.0,0.0,13343,23431,22096,28840,18489,5
0.0,0.0,0.0,13343,23431,22075,28927,18526,5
0.0,0.0,0.0,13357,23431,22096,28927,18471,5
0.0,0.0,0.0,13371,23431,22053,28869,18489,5
0.0,0.0,0.0,13371,23431,22053,28869,18489,5
0.0,0.0,0.0,13343,23362,22053,28955,18471,5
0.0,0.0,0.0,13357,23339,22053,28869,18489,5
0.0,0.0,0.0,13343,23431,22096,28927,18489,5
0.0,0.0,0.0,13357,23339,22053,28927,18489,5
0.0,0.0,0.0,13357,23362,22053,28927,18489,5
0.0,0.0,0.0,13384,23454,22053,28927,18453,5
0.0,0.0,0.0,13357,23431,22053,28840,18453,5
0.0,0.0,0.0,13384,23431,22053,28869,18453,5
0.0,0.0,0.0,13357,23431,22096,28869,18489,5
0.0,0.0,0.0,13357,23385,22053,28927,18489,5
0.0,0.0,0.0,13357,23385,22053,28927,18453,5
0.0,0.0,0.0,13398,23385,22075,28927,18453,5
0.0,0.0,0.0,13357,23385,22053,28927,18508,5
0.0,0.0,0.0,13357,23431,22053,28840,18453,5
0.0,0.0,0.0,13371,23431,22053,28869,18453,5
0.0,0.0,0.0,13371,23431,22053,28869,18453,5
0.0,0.0,0.0,13343,23385,22032,28869,18435,5
0.0,0.0,0.0,13357,23431,22010,28927,18399,5
0.0,0.0,0.0,13398,23431,22053,28927,18489,5
0.0,0.0,0.0,13398,23385,22032,28869,18508,5
0.0,0.0,0.0,13371,23339,22075,28840,18489,5
0.0,0.0,0.0,13384,23431,22053,28898,18417,5
0.0,0.0,0.0,13371,23431,22096,28869,18489,5
0.0,0.0,0.0,13412,23431,22075,28898,18453,5
0.0,0.0,0.0,13454,23431,22053,28869,18435,5
0.0,0.0,0.0,13580,23385,22096,28927,18417,5
0.0,0.0,0.0,13735,23385,22053,28927,18417,5
0.0,0.0,0.0,13650,23431,22096,28869,18417,5
0.0,0.0,0.0,13524,23431,22053,28898,18362,5
0.0,0.0,0.0,13454,23385,22053,28927,18435,5
0.0,0.0,0.0,13412,23339,22053,28927,18417,5
0.0,0.0,0.0,13412,23431,22096,28927,18417,5
0.0,0.0,0.0,13398,23408,22053,28927,18435,5
0.0,0.0,0.0,13398,23408,22010,28927,18435,5
0.0,0.0,0.0,13371,23431,22010,28927,18417,5
0.0,0.0,0.0,13398,23431,22053,28927,18435,5
0.0,0.0,0.0,13371,23431,22032,28898,18417,5
0.0,0.0,0.0,13343,23385,22053,28869,18453,5
0.0,0.0,0.0,13357,23408,22053,28869,18453,5
0.0,0.0,0.0,13371,23385,22053,28955,18435,5
0.0,0.0,0.0,13371,23431,22032,28927,18435,5
0.0,0.0,0.0,13357,23339,22053,28898,18417,5
0.0,0.0,0.0,13343,23339,22053,28898,18489,5
0.0,0.0,0.0,13343,23385,22010,28898,18417,5
0.0,0.0,0.0,13343,23385,22053,28869,18417,5
0.0,0.0,0.0,13398,23362,22010,28927,18453,5
0.0,0.0,0.0,13371,23339,22053,28927,18453,5
0.0,0.0,0.0,13371,23339,22010,28898,18399,5
0.0,0.0,0.0,13315,23431,22032,28869,18453,5
0.0,0.0,0.0,13287,23431,22010,28898,18435,5
0.0,0.0,0.0,13301,23362,22010,28898,18417,5
0.0,0.0,0.0,13287,23385,22032,28869,18380,5
0.0,0.0,0.0,13260,23385,22010,28898,18417,5
0.0,0.0,0.0,13246,23385,22010,28869,18417,5
0.0,0.0,0.0,13260,23339,22010,28927,18417,5
0.0,0.0,0.0,13246,23362,22010,28869,18453,5
0.0,0.0,0.0,13260,23431,22010,28812,18380,5
0.0,0.0,0.0,13246,23385,21946,29274,18417,5
0.0,0.0,0.0,13246,23339,22010,28898,18417,5
0.0,0.0,0.0,13232,23385,21967,29333,18417,5
0.0,0.0,0.0,13260,23385,22010,28869,18417,5
0.0,0.0,0.0,13246,23362,22010,28869,18417,5
0.0,0.0,0.0,13260,23339,21967,29304,18380,5
