GyroX,GyroY,GyroZ,Thumb,Index,Middle,Ring,Pinky,Gesture
0.0,0.0,0.0,17722,12851,9721,32599,36576,3
0.0,0.0,0.0,17739,12797,9710,32666,36462,3
0.0,0.0,0.0,17774,12797,9688,32666,36499,3
0.0,0.0,0.0,17757,12932,9688,32599,36614,3
0.0,0.0,0.0,17774,12932,9677,32599,36538,3
0.0,0.0,0.0,17774,12690,9666,32666,36614,3
0.0,0.0,0.0,17774,12398,9654,32533,36538,3
0.0,0.0,0.0,17774,12346,9643,32533,36499,3
0.0,0.0,0.0,17809,12320,9666,32467,36614,3
0.0,0.0,0.0,17774,12009,9643,32369,36499,3
0.0,0.0,0.0,17845,11868,9632,32402,36614,3
0.0,0.0,0.0,17827,11855,9666,32369,36462,3
0.0,0.0,0.0,17898,12636,9800,32467,36576,3
0.0,0.0,0.0,17862,13177,9856,32435,36462,3
0.0,0.0,0.0,17880,12770,9811,32336,36499,3
0.0,0.0,0.0,17880,12293,9845,32336,36424,3
0.0,0.0,0.0,17845,12267,9845,32303,36538,3
0.0,0.0,0.0,17845,12756,9856,32369,36424,3
0.0,0.0,0.0,17880,13371,9935,32303,36462,3
0.0,0.0,0.0,17845,12716,10117,32336,36462,3
0.0,0.0,0.0,17845,12424,10301,32369,36538,3
0.0,0.0,0.0,17845,12636,10348,32402,36499,3
0.0,0.0,0.0,17792,12690,10313,32435,36462,3
0.0,0.0,0.0,17845,12851,10267,32435,36462,3
0.0,0.0,0.0,17809,12972,10301,32369,36499,3
0.0,0.0,0.0,17862,13040,10301,32435,36462,3
0.0,0.0,0.0,17915,13357,10301,32402,36462,3
0.0,0.0,0.0,17915,13412,10301,32369,36386,3
0.0,0.0,0.0,17933,13232,10278,32369,36348,3
0.0,0.0,0.0,17915,12986,10255,32303,36462,3
0.0,0.0,0.0,17862,12783,10232,32303,36310,3
0.0,0.0,0.0,17880,12464,10209,32303,36386,3
0.0,0.0,0.0,17862,12477,10209,32238,36386,3
0.0,0.0,0.0,17845,12477,10232,32238,36386,3
0.0,0.0,0.0,17862,12477,10232,32238,36310,3
0.0,0.0,0.0,17845,12583,10209,32369,36310,3
0.0,0.0,0.0,17845,12905,10209,32369,36386,3
0.0,0.0,0.0,17845,12918,10221,32369,36424,3
0.0,0.0,0.0,17862,13232,10244,32402,36424,3
0.0,0.0,0.0,17933,13538,10255,32303,36386,3
0.0,0.0,0.0,18057,13749,10301,32303,36424,3
0.0,0.0,0.0,18004,13287,10301,32173,36386,3
0.0,0.0,0.0,18022,12959,10255,32140,36348,3
0.0,0.0,0.0,18022,12959,10221,32173,36462,3
0.0,0.0,0.0,18004,13650,10174,32140,36348,3
0.0,0.0,0.0,18057,14021,10232,32140,36348,3
0.0,0.0,0.0,18057,13608,10163,32108,36386,3
0.0,0.0,0.0,18093,12743,10037,32108,36462,3
0.0,0.0,0.0,18057,12636,10003,32108,36424,3
0.0,0.0,0.0,18093,13232,10094,32043,36272,3
0.0,0.0,0.0,18164,13343,10174,32108,36310,3
0.0,0.0,0.0,18147,12918,10129,32010,36310,3
0.0,0.0,0.0,18129,12320,10140,32108,36462,3
0.0,0.0,0.0,18075,12202,10129,31978,36424,3
0.0,0.0,0.0,18057,12163,10129,31978,36424,3
0.0,0.0,0.0,18093,12228,10140,31978,36424,3
0.0,0.0,0.0,18075,12543,10163,32010,36348,3
0.0,0.0,0.0,18164,12972,10186,32010,36197,3
0.0,0.0,0.0,18129,12570,10129,32010,36272,3
0.0,0.0,0.0,18129,12124,10083,31913,36424,3
0.0,0.0,0.0,18093,12073,10071,31978,36348,3
0.0,0.0,0.0,18147,12215,10129,31978,36310,3
0.0,0.0,0.0,18147,12385,10255,31978,36272,3
0.0,0.0,0.0,18218,12333,10255,31978,36348,3
0.0,0.0,0.0,18200,12163,10140,31913,36272,3
0.0,0.0,0.0,18200,12047,10083,31881,36348,3
0.0,0.0,0.0,18164,11906,10071,31913,36462,3
0.0,0.0,0.0,18164,12267,10163,31881,36235,3
0.0,0.0,0.0,18236,13315,10313,31913,36272,3
0.0,0.0,0.0,18272,13426,10336,31881,36235,3
0.0,0.0,0.0,18290,13150,10301,31849,36235,3
0.0,0.0,0.0,18344,12649,10209,31785,36235,3
0.0,0.0,0.0,18308,12464,10140,31688,36272,3
0.0,0.0,0.0,18236,12228,10071,31720,36310,3
0.0,0.0,0.0,18218,12228,10071,31720,36235,3
0.0,0.0,0.0,18236,13068,10209,31849,36160,3
0.0,0.0,0.0,18236,14079,10313,31881,36197,3
0.0,0.0,0.0,18236,13594,10301,31849,36085,3
0.0,0.0,0.0,18200,12864,10221,31785,36160,3
0.0,0.0,0.0,18075,12359,10221,31720,36160,3
0.0,0.0,0.0,18057,12320,10232,31752,36160,3
0.0,0.0,0.0,18057,12411,10255,31817,36122,3
0.0,0.0,0.0,18057,12543,10255,31881,36085,3
0.0,0.0,0.0,18057,12783,10267,31849,36160,3
0.0,0.0,0.0,18057,13013,10313,31849,36160,3
0.0,0.0,0.0,18022,13013,10348,31817,36047,3
0.0,0.0,0.0,17951,12596,10290,31720,36197,3
0.0,0.0,0.0,17933,12241,10209,31720,36122,3
0.0,0.0,0.0,17933,12086,10209,31720,36085,3
0.0,0.0,0.0,17933,12346,10255,31656,36085,3
0.0,0.0,0.0,17915,13205,10371,31849,36160,3
0.0,0.0,0.0,17951,14268,10394,31849,36085,3
0.0,0.0,0.0,17915,13792,10371,31785,36010,3
0.0,0.0,0.0,17915,12851,10348,31720,36085,3
0.0,0.0,0.0,17862,12530,10348,31624,36047,3
0.0,0.0,0.0,17862,12623,10394,31785,36160,3
0.0,0.0,0.0,17898,12932,10441,31881,36085,3
0.0,0.0,0.0,17915,13315,10453,31881,35935,3
0.0,0.0,0.0,17862,13693,10418,31913,36010,3
0.0,0.0,0.0,17880,13580,10406,31913,36085,3
0.0,0.0,0.0,17880,13454,10418,31881,36122,3
0.0,0.0,0.0,17880,13260,10371,31785,36085,3
0.0,0.0,0.0,17845,12918,10255,31785,36122,3
0.0,0.0,0.0,17898,12424,10117,31752,36160,3
0.0,0.0,0.0,17845,12267,10071,31752,36047,3
0.0,0.0,0.0,17862,12267,10117,31624,36085,3
0.0,0.0,0.0,17862,12267,10094,31720,36085,3
0.0,0.0,0.0,17845,12267,10094,31656,36085,3
0.0,0.0,0.0,17845,12596,10129,31688,36047,3
0.0,0.0,0.0,17845,13205,10140,31656,36047,3
0.0,0.0,0.0,17845,13081,10163,31624,36047,3
0.0,0.0,0.0,17845,12986,10186,31624,35972,3
0.0,0.0,0.0,17862,12649,10174,31624,35972,3
0.0,0.0,0.0,17845,12424,10163,31624,36047,3
0.0,0.0,0.0,17845,12477,10163,31720,35972,3
0.0,0.0,0.0,17845,13482,10221,31752,35972,3
0.0,0.0,0.0,17915,13978,10221,31785,36010,3
0.0,0.0,0.0,17933,13454,10209,31688,36010,3
0.0,0.0,0.0,17915,12770,10255,31624,35972,3
0.0,0.0,0.0,17880,12743,10278,31720,35935,3
0.0,0.0,0.0,17880,13454,10313,31752,36010,3
0.0,0.0,0.0,17915,14268,10325,31785,35935,3
0.0,0.0,0.0,17915,13398,10301,31720,35935,3
0.0,0.0,0.0,17915,12743,10301,31656,35898,3
0.0,0.0,0.0,17986,13068,10348,31720,35935,3
0.0,0.0,0.0,18022,14036,10394,31720,35935,3
0.0,0.0,0.0,18057,13679,10348,31593,35935,3
0.0,0.0,0.0,18004,13027,10313,31561,35935,3
0.0,0.0,0.0,17986,13013,10325,31465,36010,3
0.0,0.0,0.0,18022,13650,10371,31593,35861,3
0.0,0.0,0.0,18004,13426,10325,31529,35861,3
0.0,0.0,0.0,18057,12851,10301,31497,36010,3
0.0,0.0,0.0,18057,12743,10301,31402,35972,3
0.0,0.0,0.0,18093,14050,10371,31497,35787,3
0.0,0.0,0.0,18093,14399,10359,31497,35861,3
0.0,0.0,0.0,18129,13454,10301,31465,35898,3
0.0,0.0,0.0,18129,13013,10301,31402,35935,3
0.0,0.0,0.0,18129,13040,10348,31434,35935,3
0.0,0.0,0.0,18093,14399,10394,31593,35861,3
0.0,0.0,0.0,18093,14195,10348,31561,35898,3
0.0,0.0,0.0,18075,13315,10348,31434,35861,3
0.0,0.0,0.0,18093,13081,10348,31465,35861,3
0.0,0.0,0.0,18022,13792,10371,31624,35861,3
0.0,0.0,0.0,18057,14195,10394,31624,35861,3
0.0,0.0,0.0,18075,13566,10325,31593,35861,3
0.0,0.0,0.0,18129,13013,10301,31561,35935,3
0.0,0.0,0.0,18111,13150,10325,31465,35861,3
0.0,0.0,0.0,18129,13482,10325,31497,35787,3
0.0,0.0,0.0,18147,13878,10325,31402,35861,3
0.0,0.0,0.0,18164,13566,10325,31465,35824,3
0.0,0.0,0.0,18129,13260,10336,31465,35824,3
0.0,0.0,0.0,18129,13232,10348,31370,35824,3
0.0,0.0,0.0,18129,13205,10313,31370,35898,3
0.0,0.0,0.0,18129,13177,10313,31497,35861,3
0.0,0.0,0.0,18129,13122,10301,31465,35861,3
0.0,0.0,0.0,18075,13109,10301,31370,35861,3
0.0,0.0,0.0,18057,12959,10278,31465,35787,3
0.0,0.0,0.0,17915,12783,10255,31497,35824,3
0.0,0.0,0.0,17915,12583,10267,31497,35787,3
0.0,0.0,0.0,17880,12438,10278,31434,35861,3
0.0,0.0,0.0,17880,12359,10301,31465,35861,3
0.0,0.0,0.0,17880,12359,10301,31434,35787,3
0.0,0.0,0.0,17862,12359,10301,31465,35749,3
0.0,0.0,0.0,17915,12346,10301,31370,35787,3
0.0,0.0,0.0,17880,12372,10290,31339,35824,3
0.0,0.0,0.0,17845,12372,10325,31339,35824,3
0.0,0.0,0.0,17880,12385,10290,31370,35712,3
0.0,0.0,0.0,17862,12372,10301,31402,35712,3
0.0,0.0,0.0,17898,12424,10325,31465,35749,3
0.0,0.0,0.0,17915,12556,10313,31465,35749,3
0.0,0.0,0.0,17915,12690,10325,31465,35749,3
0.0,0.0,0.0,17880,13122,10348,31402,35676,3
0.0,0.0,0.0,17915,13849,10371,31593,35787,3
0.0,0.0,0.0,17915,13849,10394,31624,35712,3
0.0,0.0,0.0,17880,13792,10406,31593,35749,3
0.0,0.0,0.0,17880,13608,10394,31656,35712,3
0.0,0.0,0.0,17845,13287,10383,31561,35676,3
0.0,0.0,0.0,17880,12918,10359,31529,35712,3
0.0,0.0,0.0,17880,12810,10348,31529,35749,3
0.0,0.0,0.0,17915,12797,10371,31529,35749,3
0.0,0.0,0.0,17898,13122,10441,31529,35712,3
0.0,0.0,0.0,17968,13735,10464,31624,35712,3
0.0,0.0,0.0,17986,14166,10511,31593,35712,3
0.0,0.0,0.0,17986,13906,10511,31624,35639,3
0.0,0.0,0.0,17986,13426,10488,31529,35639,3
0.0,0.0,0.0,17933,13136,10453,31465,35712,3
0.0,0.0,0.0,17862,12756,10441,31497,35749,3
0.0,0.0,0.0,17862,12636,10453,31465,35861,3
0.0,0.0,0.0,17845,12636,10441,31497,35712,3
0.0,0.0,0.0,17809,12743,10441,31497,35712,3
0.0,0.0,0.0,17774,12851,10441,31593,35639,3
0.0,0.0,0.0,17792,13177,10441,31593,35639,3
0.0,0.0,0.0,17792,13454,10464,31720,35639,3
0.0,0.0,0.0,17774,13749,10488,31720,35749,3
0.0,0.0,0.0,17809,14021,10488,31752,35639,3
0.0,0.0,0.0,17774,14151,10488,31752,35639,3
0.0,0.0,0.0,17827,14195,10511,31785,35602,3
0.0,0.0,0.0,17862,14137,10499,31849,35565,3
0.0,0.0,0.0,17845,13721,10488,31752,35565,3
0.0,0.0,0.0,17862,13122,10441,31593,35639,3
0.0,0.0,0.0,17845,12716,10441,31593,35676,3
0.0,0.0,0.0,17845,12556,10441,31593,35565,3
0.0,0.0,0.0,17845,12504,10488,31593,35676,3
0.0,0.0,0.0,17809,12636,10488,31624,35565,3
0.0,0.0,0.0,17809,13027,10499,31656,36235,3
0.0,0.0,0.0,17845,13510,10499,31752,36160,3
0.0,0.0,0.0,17880,13764,10511,31752,36085,3
0.0,0.0,0.0,17809,13622,10499,31785,36160,3
0.0,0.0,0.0,17845,13040,10488,31720,36160,3
0.0,0.0,0.0,17792,12530,10488,31593,36160,3
0.0,0.0,0.0,17774,12490,10488,31593,36160,3
0.0,0.0,0.0,17774,12878,10546,31752,36010,3
0.0,0.0,0.0,17827,13398,10558,31881,36085,3
0.0,0.0,0.0,17792,13978,10535,32043,36122,3
0.0,0.0,0.0,17774,13863,10511,32173,35935,3
0.0,0.0,0.0,17704,13301,10488,32010,36010,3
0.0,0.0,0.0,17634,13013,10453,32010,35272,3
0.0,0.0,0.0,17600,12959,10441,31978,35272,3
0.0,0.0,0.0,17634,12959,10453,31913,35455,3
0.0,0.0,0.0,17600,12959,10441,31978,35309,3
0.0,0.0,0.0,17600,13081,10441,31881,35565,3
0.0,0.0,0.0,17634,13274,10441,31849,35418,3
0.0,0.0,0.0,17669,13315,10441,31849,35418,3
0.0,0.0,0.0,17774,13177,10418,31752,35492,3
0.0,0.0,0.0,17809,12824,10394,31593,35492,3
0.0,0.0,0.0,17915,12543,10371,31593,35382,3
0.0,0.0,0.0,17986,12280,10348,31561,35418,3
0.0,0.0,0.0,17933,12215,10348,31497,35418,3
0.0,0.0,0.0,17951,12280,10383,31497,35382,3
0.0,0.0,0.0,17986,12797,10406,31593,35382,3
0.0,0.0,0.0,17986,13357,10441,31593,35272,3
0.0,0.0,0.0,18022,13468,10453,31593,35272,3
0.0,0.0,0.0,18022,13136,10441,31497,35345,3
0.0,0.0,0.0,17986,12636,10441,31402,35272,3
0.0,0.0,0.0,17986,12530,10453,31402,35272,3
0.0,0.0,0.0,17933,12810,10488,31465,35272,3
0.0,0.0,0.0,17933,13806,10535,31593,35199,3
0.0,0.0,0.0,17880,13566,10488,31561,35272,3
0.0,0.0,0.0,17915,12905,10453,31593,35236,3
0.0,0.0,0.0,17880,12530,10441,31529,35272,3
0.0,0.0,0.0,17845,12543,10464,31402,35309,3
0.0,0.0,0.0,17845,12824,10511,31529,35199,3
0.0,0.0,0.0,17845,13650,10582,31593,35272,3
0.0,0.0,0.0,17880,13792,10629,31656,35272,3
0.0,0.0,0.0,17827,13081,10546,31497,35199,3
0.0,0.0,0.0,17809,12649,10546,31465,35272,3
0.0,0.0,0.0,17809,12596,10558,31434,35272,3
0.0,0.0,0.0,17845,12610,10546,31402,35345,3
0.0,0.0,0.0,17792,12583,10546,31465,35309,3
0.0,0.0,0.0,17774,12583,10535,31402,35309,3
0.0,0.0,0.0,17792,12556,10558,31465,35236,3
0.0,0.0,0.0,17774,12543,10546,31370,35236,3
0.0,0.0,0.0,17774,12530,10546,31434,35199,3
0.0,0.0,0.0,17809,12596,10605,31434,35309,3
0.0,0.0,0.0,17809,12570,10641,31402,35382,3
0.0,0.0,0.0,17774,12530,10629,31339,35418,3
0.0,0.0,0.0,17792,12543,10605,31402,35345,3
0.0,0.0,0.0,17774,12743,10594,31529,35345,3
0.0,0.0,0.0,17792,12972,10582,31593,35272,3
0.0,0.0,0.0,17792,13068,10582,31529,35272,3
0.0,0.0,0.0,17809,13232,10582,31624,35199,3
0.0,0.0,0.0,17827,13287,10582,31624,35199,3
0.0,0.0,0.0,17845,13343,10582,31624,35272,3
0.0,0.0,0.0,17845,13343,10582,31529,35272,3
0.0,0.0,0.0,17809,13510,10582,31465,35127,3
0.0,0.0,0.0,17845,13566,10582,31465,35199,3
0.0,0.0,0.0,17809,13552,10582,31465,35199,3
0.0,0.0,0.0,17792,13482,10546,31402,35272,3
0.0,0.0,0.0,17809,13510,10558,31529,35163,3
0.0,0.0,0.0,17845,13693,10558,31465,35163,3
0.0,0.0,0.0,17845,13622,10546,31402,35199,3
0.0,0.0,0.0,17809,13315,10535,31370,35163,3
0.0,0.0,0.0,17827,12932,10511,31402,35236,3
0.0,0.0,0.0,17809,12851,10511,31434,35272,3
0.0,0.0,0.0,17792,12783,10511,31402,35272,3
0.0,0.0,0.0,17774,12797,10499,31497,35236,3
0.0,0.0,0.0,17792,13177,10499,31561,35127,3
0.0,0.0,0.0,17792,13538,10511,31656,35163,3
0.0,0.0,0.0,17792,13849,10535,31752,35163,3
0.0,0.0,0.0,17792,13177,10488,31624,35127,3
0.0,0.0,0.0,17774,12530,10453,31497,35236,3
0.0,0.0,0.0,17809,12490,10488,31497,35127,3
0.0,0.0,0.0,17809,13095,10511,31624,35127,3
0.0,0.0,0.0,17774,13371,10511,31624,35018,3
0.0,0.0,0.0,17774,13068,10464,31624,35055,3
0.0,0.0,0.0,17827,12770,10441,31465,35091,3
0.0,0.0,0.0,17845,12986,10464,31465,35091,3
0.0,0.0,0.0,17845,13693,10535,31465,35127,3
0.0,0.0,0.0,17880,13343,10499,31465,35127,3
0.0,0.0,0.0,17845,13205,10488,31370,35127,3
0.0,0.0,0.0,17862,13218,10535,31402,35272,3
0.0,0.0,0.0,17880,13191,10511,31402,35163,3
0.0,0.0,0.0,17862,13177,10488,31370,35199,3
0.0,0.0,0.0,17862,13177,10488,31402,35199,3
0.0,0.0,0.0,17845,12959,10488,31370,35236,3
0.0,0.0,0.0,17845,12690,10488,31370,35272,3
0.0,0.0,0.0,17792,12610,10511,31307,35236,3
0.0,0.0,0.0,17792,12610,10511,31276,35127,3
0.0,0.0,0.0,17774,12623,10499,31402,35199,3
0.0,0.0,0.0,17774,12649,10499,31276,35127,3
0.0,0.0,0.0,17774,12891,10488,31370,35127,3
0.0,0.0,0.0,17774,13964,10511,31465,35055,3
0.0,0.0,0.0,17739,13935,10488,31434,35127,3
0.0,0.0,0.0,17757,13964,10488,31497,35163,3
0.0,0.0,0.0,17739,13343,10523,31434,35163,3
0.0,0.0,0.0,17757,12918,10558,31339,35127,3
0.0,0.0,0.0,17739,12918,10570,31465,35055,3
0.0,0.0,0.0,17739,13482,10546,31497,35127,3
0.0,0.0,0.0,17722,14108,10535,31497,35055,3
0.0,0.0,0.0,17739,14036,10535,31529,35127,3
0.0,0.0,0.0,17722,13964,10535,31497,35018,3
0.0,0.0,0.0,17704,13863,10535,31497,35127,3
0.0,0.0,0.0,17757,13749,10535,31465,35127,3
0.0,0.0,0.0,17739,13538,10511,31370,35055,3
0.0,0.0,0.0,17774,13232,10488,31276,35127,3
0.0,0.0,0.0,17809,12932,10488,31339,35199,3
0.0,0.0,0.0,17845,12864,10488,31213,35091,3
0.0,0.0,0.0,17809,12810,10488,31181,35163,3
0.0,0.0,0.0,17774,12810,10453,31244,35127,3
0.0,0.0,0.0,17774,12797,10476,31213,35163,3
0.0,0.0,0.0,17827,12932,10488,31213,35199,3
0.0,0.0,0.0,17862,13068,10535,31339,35199,3
0.0,0.0,0.0,17986,13384,10617,31465,35272,3
0.0,0.0,0.0,18022,13454,10676,31465,35272,3
0.0,0.0,0.0,18057,13566,10748,31497,35345,3
0.0,0.0,0.0,18004,13538,10748,31465,35309,3
0.0,0.0,0.0,18022,13510,10748,31434,35163,3
0.0,0.0,0.0,18039,13679,10819,31561,35272,3
0.0,0.0,0.0,18022,13721,10879,31529,35272,3
0.0,0.0,0.0,18057,13749,10891,31561,35199,3
0.0,0.0,0.0,18057,13721,10927,31497,35272,3
0.0,0.0,0.0,18075,13735,10903,31593,35272,3
0.0,0.0,0.0,18057,13679,10891,31497,35199,3
0.0,0.0,0.0,18039,13693,10891,31529,35199,3
0.0,0.0,0.0,18057,13735,10915,31529,35272,3
0.0,0.0,0.0,18057,13764,10927,31529,35091,3
0.0,0.0,0.0,18022,13679,10891,31465,35163,3
0.0,0.0,0.0,18004,13343,10748,31339,35236,3
0.0,0.0,0.0,17986,13040,10641,31276,35345,3
0.0,0.0,0.0,17986,12864,10605,31213,35272,3
0.0,0.0,0.0,18022,12770,10582,31150,35272,3
0.0,0.0,0.0,18057,12703,10535,31056,35272,3
0.0,0.0,0.0,18057,12649,10535,30900,35272,3
0.0,0.0,0.0,18129,12636,10535,30869,35345,3
0.0,0.0,0.0,18129,12583,10488,30807,35309,3
0.0,0.0,0.0,18129,12543,10488,30653,35272,3
0.0,0.0,0.0,18147,12504,10488,30653,35272,3
0.0,0.0,0.0,18129,12477,10499,30715,35272,3
0.0,0.0,0.0,18129,12530,10488,30622,35272,3
0.0,0.0,0.0,18129,12530,10476,30653,35309,3
0.0,0.0,0.0,18129,12504,10488,30622,35309,3
0.0,0.0,0.0,18147,12490,10464,30653,35272,3
0.0,0.0,0.0,18129,12477,10488,30653,35272,3
0.0,0.0,0.0,18129,12504,10476,30622,35199,3
0.0,0.0,0.0,18129,12490,10488,30653,35309,3
0.0,0.0,0.0,18129,12530,10464,30653,35236,3
0.0,0.0,0.0,18129,12649,10488,30715,35272,3
0.0,0.0,0.0,18164,13068,10511,30653,35199,3
0.0,0.0,0.0,18164,13454,10546,30745,35163,3
0.0,0.0,0.0,18164,13707,10535,30745,35199,3
0.0,0.0,0.0,18147,13992,10582,30745,35236,3
0.0,0.0,0.0,18200,14137,10676,30962,35163,3
0.0,0.0,0.0,18236,14370,10748,31056,35199,3
0.0,0.0,0.0,18308,14621,10963,31213,35309,3
0.0,0.0,0.0,18489,14967,11255,31213,35418,3
0.0,0.0,0.0,18562,14997,11379,31181,35382,3
0.0,0.0,0.0,18489,14518,11072,30931,35382,3
0.0,0.0,0.0,18489,14122,10867,30776,35345,3
0.0,0.0,0.0,18435,13863,10771,30776,35418,3
0.0,0.0,0.0,18417,13679,10724,30684,35418,3
0.0,0.0,0.0,18362,13468,10676,30653,35418,3
0.0,0.0,0.0,18380,13232,10629,30622,35418,3
0.0,0.0,0.0,18417,12986,10546,30591,35345,3
0.0,0.0,0.0,18308,12824,10523,30622,35345,3
0.0,0.0,0.0,18308,12743,10488,30653,35492,3
0.0,0.0,0.0,18272,12610,10441,30653,35382,3
0.0,0.0,0.0,18236,12477,10418,30653,35345,3
0.0,0.0,0.0,18182,12398,10406,30715,35418,3
0.0,0.0,0.0,18182,12346,10394,30653,35345,3
0.0,0.0,0.0,18129,12346,10394,30530,35309,3
0.0,0.0,0.0,18147,12477,10441,30561,35272,3
0.0,0.0,0.0,18164,12851,10594,30591,35418,3
0.0,0.0,0.0,18164,13136,10748,30653,35272,3
0.0,0.0,0.0,18290,13622,10915,30745,35418,3
0.0,0.0,0.0,18308,14341,11060,30776,35272,3
0.0,0.0,0.0,18308,14607,11109,30838,35309,3
0.0,0.0,0.0,18344,15181,11157,30807,35236,3
0.0,0.0,0.0,18380,15043,11145,30838,35199,3
0.0,0.0,0.0,18344,14666,11084,30776,35272,3
0.0,0.0,0.0,18290,14370,11012,30776,35272,3
0.0,0.0,0.0,18200,13764,10771,30838,35199,3
0.0,0.0,0.0,18075,13191,10617,30838,35272,3
0.0,0.0,0.0,18004,12797,10535,30900,35163,3
0.0,0.0,0.0,17951,12504,10406,30962,35272,3
0.0,0.0,0.0,17845,12385,10383,30838,35127,3
0.0,0.0,0.0,17915,12293,10371,30994,35272,3
0.0,0.0,0.0,17915,12267,10371,30838,35163,3
0.0,0.0,0.0,17898,12241,10359,30838,35163,3
0.0,0.0,0.0,17933,12228,10348,30838,35163,3
0.0,0.0,0.0,17915,12241,10348,30776,35127,3
0.0,0.0,0.0,17915,12215,10348,30776,35199,3
0.0,0.0,0.0,17880,12189,10348,30745,35272,3
0.0,0.0,0.0,17862,12189,10406,30776,35163,3
0.0,0.0,0.0,17845,12163,10441,30776,35127,3
0.0,0.0,0.0,17880,12112,10748,30869,35199,3
0.0,0.0,0.0,17862,12086,10724,30776,35272,3
0.0,0.0,0.0,17827,12060,10688,30684,35199,3
0.0,0.0,0.0,17862,12021,10641,30715,35163,3
0.0,0.0,0.0,17827,12034,10629,30653,35127,3
0.0,0.0,0.0,17809,12009,10641,30653,35055,3
0.0,0.0,0.0,17827,12060,10641,30591,35163,3
0.0,0.0,0.0,17845,12086,10629,30653,35091,3
0.0,0.0,0.0,17845,12293,10641,30715,35055,3
0.0,0.0,0.0,17845,12824,10605,30838,35091,3
0.0,0.0,0.0,17845,13398,10582,30776,35091,3
0.0,0.0,0.0,17880,13849,10605,30807,35199,3
0.0,0.0,0.0,17915,14370,10558,30838,35055,3
0.0,0.0,0.0,17915,14253,10558,30838,35018,3
0.0,0.0,0.0,17880,14399,10582,30869,34982,3
0.0,0.0,0.0,17933,14786,10535,30838,35055,3
0.0,0.0,0.0,17915,14607,10546,30838,35018,3
0.0,0.0,0.0,17933,14518,10546,30807,34982,3
0.0,0.0,0.0,17933,14429,10558,30838,35018,3
0.0,0.0,0.0,17915,14458,10558,30745,34982,3
0.0,0.0,0.0,17933,14488,10582,30838,35018,3
0.0,0.0,0.0,17933,14429,10582,30869,35163,3
0.0,0.0,0.0,17898,14195,10546,30745,35055,3
0.0,0.0,0.0,17862,13906,10535,30745,35091,3
0.0,0.0,0.0,17898,13622,10605,30869,35055,3
0.0,0.0,0.0,17915,13454,10629,30931,34982,3
0.0,0.0,0.0,17915,13343,10748,31025,35127,3
0.0,0.0,0.0,17915,13246,10819,30994,35055,3
0.0,0.0,0.0,17915,13232,10891,31025,35018,3
0.0,0.0,0.0,17880,13177,10927,30994,35055,3
0.0,0.0,0.0,17915,13027,11304,31087,35127,3
0.0,0.0,0.0,17880,12878,11453,31119,35055,3
0.0,0.0,0.0,17862,12864,11403,31150,35055,3
0.0,0.0,0.0,17845,12824,11403,31181,35018,3
0.0,0.0,0.0,17845,12797,11354,31150,35091,3
0.0,0.0,0.0,17880,12810,11304,31181,35055,3
0.0,0.0,0.0,17845,12797,11255,31150,35091,3
0.0,0.0,0.0,17845,12770,11206,31087,35018,3
0.0,0.0,0.0,17845,12756,11109,31025,35127,3
0.0,0.0,0.0,17845,12756,11109,31056,34982,3
0.0,0.0,0.0,17809,12770,11060,31087,34874,3
0.0,0.0,0.0,17845,12797,11012,31150,34839,3
0.0,0.0,0.0,17827,12837,10963,31213,34946,3
0.0,0.0,0.0,17845,12797,10939,31213,34946,3
0.0,0.0,0.0,17809,12864,10927,31181,34874,3
0.0,0.0,0.0,17792,12999,10927,31213,34910,3
0.0,0.0,0.0,17809,13081,10915,31213,34910,3
0.0,0.0,0.0,17809,13287,10891,31213,34839,3
0.0,0.0,0.0,17809,13398,10879,31213,34874,3
0.0,0.0,0.0,17933,13287,10867,31213,34910,3
0.0,0.0,0.0,18272,13301,10843,31025,34910,3
0.0,0.0,0.0,18344,13246,10831,31056,35055,3
0.0,0.0,0.0,18290,13287,10831,31025,34910,3
0.0,0.0,0.0,18290,13650,10795,30962,34910,3
0.0,0.0,0.0,18236,14195,10795,30900,34910,3
0.0,0.0,0.0,18236,14876,10807,30869,34910,3
0.0,0.0,0.0,18236,15490,10771,30900,34910,3
0.0,0.0,0.0,18236,15459,10795,30900,34839,3
0.0,0.0,0.0,18218,15397,10783,30869,34874,3
0.0,0.0,0.0,18236,15335,10771,30838,34910,3
0.0,0.0,0.0,18200,15273,10771,30838,34874,3
0.0,0.0,0.0,18272,15227,10771,30838,34839,3
0.0,0.0,0.0,18200,15150,10783,30838,34874,3
0.0,0.0,0.0,18236,15165,10771,30838,34910,3
0.0,0.0,0.0,18236,15165,10771,30869,34839,3
0.0,0.0,0.0,18218,15150,10795,30869,34839,3
0.0,0.0,0.0,18200,15104,10771,30838,34874,3
0.0,0.0,0.0,18200,15089,10771,30838,34839,3
0.0,0.0,0.0,18164,15058,10795,30838,34910,3
0.0,0.0,0.0,18164,15028,10783,30807,34767,3
0.0,0.0,0.0,18129,15028,10771,30838,34767,3
0.0,0.0,0.0,18129,15028,10771,30838,34839,3
0.0,0.0,0.0,18093,14982,10771,30900,34839,3
0.0,0.0,0.0,18093,14922,10771,30838,34839,3
0.0,0.0,0.0,18004,14268,10748,30838,34767,3
0.0,0.0,0.0,17915,13580,10771,30776,34874,3
0.0,0.0,0.0,17933,13013,10819,30745,34910,3
0.0,0.0,0.0,17933,12959,10819,30776,34874,3
0.0,0.0,0.0,17915,12878,10819,30715,34767,3
0.0,0.0,0.0,17915,12878,10819,30715,34839,3
0.0,0.0,0.0,17915,12864,10819,30715,34946,3
0.0,0.0,0.0,17933,12864,10783,30715,34839,3
0.0,0.0,0.0,17915,12851,10771,30715,34874,3
0.0,0.0,0.0,17915,12878,10771,30715,34874,3
0.0,0.0,0.0,17898,12905,10771,30715,34839,3
0.0,0.0,0.0,17933,12905,10771,30715,34910,3
0.0,0.0,0.0,17933,12986,10771,30807,34803,3
0.0,0.0,0.0,17862,13068,10759,30715,34767,3
0.0,0.0,0.0,17862,13205,10748,30776,34839,3
0.0,0.0,0.0,17933,13454,10724,30838,34803,3
0.0,0.0,0.0,17915,13806,10724,30838,34767,3
0.0,0.0,0.0,17880,14108,10676,30900,34839,3
0.0,0.0,0.0,17915,14577,10676,30900,34839,3
0.0,0.0,0.0,17933,14937,10676,30900,34767,3
0.0,0.0,0.0,17915,15397,10676,30869,34874,3
0.0,0.0,0.0,17880,15521,10676,30900,34839,3
0.0,0.0,0.0,17915,15335,10688,30900,34839,3
0.0,0.0,0.0,17933,15288,10724,30900,34839,3
0.0,0.0,0.0,17915,15119,10700,30900,34803,3
0.0,0.0,0.0,17915,14967,10688,30869,34839,3
0.0,0.0,0.0,17898,14922,10676,30838,34767,3
0.0,0.0,0.0,17862,14846,10653,30838,34839,3
0.0,0.0,0.0,17880,14385,10594,30838,34839,3
0.0,0.0,0.0,17827,13636,10605,30715,34839,3
0.0,0.0,0.0,17809,13205,10594,30715,34839,3
0.0,0.0,0.0,17845,12851,10629,30684,34767,3
0.0,0.0,0.0,17774,12824,10641,30591,34767,3
0.0,0.0,0.0,17809,12824,10664,30653,34874,3
0.0,0.0,0.0,17827,12851,10676,30653,34767,3
0.0,0.0,0.0,17774,13122,10676,30653,34767,3
0.0,0.0,0.0,17845,13566,10688,30776,34767,3
0.0,0.0,0.0,17792,14195,10700,30745,34696,3
0.0,0.0,0.0,17809,15028,10700,30838,34767,3
0.0,0.0,0.0,17809,15521,10712,30776,34660,3
0.0,0.0,0.0,17809,15211,10724,30838,34767,3
0.0,0.0,0.0,17809,14711,10700,30776,34803,3
0.0,0.0,0.0,17809,14253,10700,30715,34696,3
0.0,0.0,0.0,17792,13821,10676,30653,34839,3
0.0,0.0,0.0,17774,13482,10653,30715,34731,3
0.0,0.0,0.0,17774,13482,10676,30653,34731,3
0.0,0.0,0.0,17792,13510,10676,30684,34731,3
0.0,0.0,0.0,17774,13735,10700,30776,34696,3
0.0,0.0,0.0,17809,14786,10748,30900,34696,3
0.0,0.0,0.0,17809,15428,10771,30838,34696,3
0.0,0.0,0.0,17845,15490,10748,30962,34731,3
0.0,0.0,0.0,17845,14907,10748,30838,34696,3
0.0,0.0,0.0,17827,13849,10724,30776,34696,3
0.0,0.0,0.0,17792,13260,10724,30715,34767,3
0.0,0.0,0.0,17774,13343,10748,30653,34767,3
0.0,0.0,0.0,17845,13921,10843,30838,34767,3
0.0,0.0,0.0,17845,14741,10867,30962,34731,3
0.0,0.0,0.0,17827,14666,10819,30838,34624,3
0.0,0.0,0.0,17774,13764,10783,30776,34767,3
0.0,0.0,0.0,17774,13068,10771,30745,34767,3
0.0,0.0,0.0,17792,13068,10771,30622,34696,3
0.0,0.0,0.0,17774,13357,10819,30715,34696,3
0.0,0.0,0.0,17845,13821,10831,30776,34624,3
0.0,0.0,0.0,17774,14562,10819,30838,34696,3
0.0,0.0,0.0,17827,14547,10819,30776,34731,3
0.0,0.0,0.0,17792,13921,10783,30715,34624,3
0.0,0.0,0.0,17774,13398,10783,30715,34767,3
0.0,0.0,0.0,17809,13622,10819,30715,34624,3
0.0,0.0,0.0,17792,14488,10867,30869,34696,3
0.0,0.0,0.0,17809,14952,10915,30962,34767,3
0.0,0.0,0.0,17845,14666,10855,30838,34731,3
0.0,0.0,0.0,17845,13749,10771,30776,34731,3
0.0,0.0,0.0,17792,13398,10771,30715,34767,3
0.0,0.0,0.0,17845,13792,10843,30745,34767,3
0.0,0.0,0.0,17845,14756,10927,30838,34624,3
0.0,0.0,0.0,17880,15058,10915,30838,34660,3
0.0,0.0,0.0,17845,14607,10867,30745,34696,3
0.0,0.0,0.0,17809,13792,10807,30622,34696,3
0.0,0.0,0.0,17774,13510,10819,30653,34696,3
0.0,0.0,0.0,17809,13978,10903,30776,34696,3
0.0,0.0,0.0,17862,14756,11060,31025,34696,3
0.0,0.0,0.0,17845,14607,11012,31025,34696,3
0.0,0.0,0.0,17845,14180,10903,30962,34696,3
0.0,0.0,0.0,17739,13343,10819,30838,34696,3
0.0,0.0,0.0,17739,13150,10819,30715,34767,3
0.0,0.0,0.0,17739,13510,10915,30807,34731,3
0.0,0.0,0.0,17809,14151,10987,30931,34696,3
0.0,0.0,0.0,17845,14831,11012,31056,34624,3
0.0,0.0,0.0,17792,14577,10963,31025,34696,3
0.0,0.0,0.0,17774,13665,10879,30776,34624,3
0.0,0.0,0.0,17774,13510,10903,30838,34624,3
0.0,0.0,0.0,17774,13964,11036,30931,34696,3
0.0,0.0,0.0,17845,14907,11060,31119,34589,3
0.0,0.0,0.0,17774,15074,11012,31087,34696,3
0.0,0.0,0.0,17792,14209,10891,30900,34624,3
0.0,0.0,0.0,17739,13510,10867,30807,34589,3
0.0,0.0,0.0,17757,13371,10891,30838,34553,3
0.0,0.0,0.0,17739,13650,10987,30900,34589,3
0.0,0.0,0.0,17757,14253,11060,31056,34696,3
0.0,0.0,0.0,17774,14311,11060,31150,34553,3
0.0,0.0,0.0,17774,14444,11012,31150,34518,3
0.0,0.0,0.0,17774,14108,10915,30962,34482,3
0.0,0.0,0.0,17739,13566,10843,30869,34553,3
0.0,0.0,0.0,17739,13315,10867,30838,34447,3
0.0,0.0,0.0,17739,13232,10843,30807,34412,3
0.0,0.0,0.0,17722,13287,10867,30776,34553,3
0.0,0.0,0.0,17774,14021,11012,30962,34553,3
0.0,0.0,0.0,17774,15028,11024,30994,34482,3
0.0,0.0,0.0,17792,14952,10975,30900,34412,3
0.0,0.0,0.0,17774,14253,10915,30838,34412,3
0.0,0.0,0.0,17739,13921,10879,30869,34447,3
0.0,0.0,0.0,17792,13906,10879,30776,34447,3
0.0,0.0,0.0,17774,14253,10963,30838,34553,3
0.0,0.0,0.0,17880,14937,11024,31025,34341,3
0.0,0.0,0.0,17845,14651,10963,31025,34341,3
0.0,0.0,0.0,17792,14137,10891,30900,34412,3
0.0,0.0,0.0,17774,13906,10843,30838,34341,3
0.0,0.0,0.0,17809,14253,10927,30900,34482,3
0.0,0.0,0.0,17845,15335,11036,30994,34412,3
0.0,0.0,0.0,17845,15089,10975,31025,34412,3
0.0,0.0,0.0,17809,14429,10843,30962,34482,3
0.0,0.0,0.0,17774,13749,10831,30900,34482,3
0.0,0.0,0.0,17739,13650,10843,30900,34412,3
0.0,0.0,0.0,17809,14021,10927,30869,34447,3
0.0,0.0,0.0,17809,14577,10963,30962,34412,3
0.0,0.0,0.0,17774,14488,10927,30994,34341,3
0.0,0.0,0.0,17722,14021,10819,30900,34482,3
0.0,0.0,0.0,17757,13650,10771,30869,34447,3
0.0,0.0,0.0,17774,13412,10748,30838,34482,3
0.0,0.0,0.0,17739,13260,10724,30776,34482,3
0.0,0.0,0.0,17774,13301,10748,30838,34518,3
0.0,0.0,0.0,17809,14050,10771,30838,34482,3
0.0,0.0,0.0,17809,14607,10795,30838,34518,3
0.0,0.0,0.0,17809,15211,10795,30931,34553,3
0.0,0.0,0.0,17845,14876,10771,30869,34412,3
0.0,0.0,0.0,17774,13764,10748,30838,34482,3
0.0,0.0,0.0,17739,13315,10700,30807,34482,3
0.0,0.0,0.0,17739,13566,10748,30776,34412,3
0.0,0.0,0.0,17774,14801,10819,30838,34412,3
0.0,0.0,0.0,17862,15475,10819,30994,34482,3
0.0,0.0,0.0,17862,15397,10819,31025,34447,3
0.0,0.0,0.0,17809,14370,10771,30900,34412,3
0.0,0.0,0.0,17809,13594,10748,30900,34412,3
0.0,0.0,0.0,17792,13246,10724,30838,34447,3
0.0,0.0,0.0,17792,13412,10771,30838,34412,3
0.0,0.0,0.0,17827,14429,10879,30994,34412,3
0.0,0.0,0.0,17845,15428,10915,31025,34306,3
0.0,0.0,0.0,17862,15397,10903,31025,34200,3
0.0,0.0,0.0,17809,14282,10831,30962,34376,3
0.0,0.0,0.0,17774,13357,10819,30838,34412,3
0.0,0.0,0.0,17774,13287,10879,30900,34341,3
0.0,0.0,0.0,17774,13594,10987,31025,34341,3
0.0,0.0,0.0,17792,14268,11060,31213,34341,3
0.0,0.0,0.0,17774,14726,11036,31276,34341,3
0.0,0.0,0.0,17809,14429,10987,31213,34553,3
0.0,0.0,0.0,17774,13849,10915,31056,34341,3
0.0,0.0,0.0,17739,13205,10867,30994,34341,3
0.0,0.0,0.0,17757,13068,10879,30962,34412,3
0.0,0.0,0.0,17792,13538,11036,31150,34412,3
0.0,0.0,0.0,17774,14195,11072,31150,34341,3
0.0,0.0,0.0,17792,15211,11036,31244,34341,3
0.0,0.0,0.0,17792,14997,10963,31276,34341,3
0.0,0.0,0.0,17774,13524,10915,31025,34376,3
0.0,0.0,0.0,17722,13205,10963,30994,34341,3
0.0,0.0,0.0,17774,13468,11060,31025,34341,3
0.0,0.0,0.0,17792,14488,11194,31276,34341,3
0.0,0.0,0.0,17774,14607,11133,31370,34271,3
0.0,0.0,0.0,17774,14429,11072,31213,34341,3
0.0,0.0,0.0,17722,13749,11012,31087,34271,3
0.0,0.0,0.0,17739,13580,11012,31119,34271,3
0.0,0.0,0.0,17774,13863,11096,31213,34341,3
0.0,0.0,0.0,17774,15043,11206,31276,34306,3
0.0,0.0,0.0,17774,16044,11206,31465,34271,3
0.0,0.0,0.0,17792,15459,11109,31307,34341,3
0.0,0.0,0.0,17739,14253,11012,31213,34271,3
0.0,0.0,0.0,17704,13566,10915,31181,34341,3
0.0,0.0,0.0,17704,13510,10891,31213,34235,3
0.0,0.0,0.0,17722,13524,10915,31213,34306,3
0.0,0.0,0.0,17704,13707,10915,31150,34271,3
0.0,0.0,0.0,17704,14681,10915,31276,34200,3
0.0,0.0,0.0,17739,15304,10891,31244,34306,3
0.0,0.0,0.0,17757,14268,10831,31213,34200,3
0.0,0.0,0.0,17704,13315,10867,31119,34271,3
0.0,0.0,0.0,17704,13150,10867,31056,34341,3
0.0,0.0,0.0,17704,13622,10939,31087,34200,3
0.0,0.0,0.0,17774,14681,10987,31213,34200,3
0.0,0.0,0.0,17774,14967,11012,31213,34200,3
0.0,0.0,0.0,17774,15211,11012,31339,34165,3
0.0,0.0,0.0,17722,14876,10963,31213,34235,3
0.0,0.0,0.0,17722,13821,10915,31119,34235,3
0.0,0.0,0.0,17722,13315,10915,31119,34341,3
0.0,0.0,0.0,17669,13246,10915,31150,34271,3
0.0,0.0,0.0,17687,13287,10903,31150,34271,3
0.0,0.0,0.0,17669,13906,10999,31181,34271,3
0.0,0.0,0.0,17652,15490,11024,31276,34200,3
0.0,0.0,0.0,17704,15381,11012,31434,34200,3
0.0,0.0,0.0,17600,14786,10939,31370,34200,3
0.0,0.0,0.0,17582,13510,10891,31276,34271,3
0.0,0.0,0.0,17582,13246,10879,31244,34271,3
0.0,0.0,0.0,17582,13371,10915,31276,34271,3
0.0,0.0,0.0,17600,13906,11012,31402,34341,3
0.0,0.0,0.0,17600,14726,11048,31465,34165,3
0.0,0.0,0.0,17565,14726,11024,31497,34271,3
0.0,0.0,0.0,17565,14021,10927,31276,34165,3
0.0,0.0,0.0,17565,13482,10879,31370,34271,3
0.0,0.0,0.0,17513,13232,10855,31276,34271,3
0.0,0.0,0.0,17565,13232,10867,31339,34200,3
0.0,0.0,0.0,17600,14079,10999,31370,34271,3
0.0,0.0,0.0,17582,15288,11036,31465,34271,3
0.0,0.0,0.0,17530,14801,10939,31370,34165,3
0.0,0.0,0.0,17495,13679,10867,31276,34235,3
0.0,0.0,0.0,17495,13205,10867,31307,34165,3
0.0,0.0,0.0,17495,13191,10831,31276,34165,3
0.0,0.0,0.0,17513,13510,10891,31276,34130,3
0.0,0.0,0.0,17530,14311,11012,31529,34200,3
0.0,0.0,0.0,17530,15916,11060,31656,34200,3
0.0,0.0,0.0,17565,15397,10963,31593,34165,3
0.0,0.0,0.0,17530,14756,10915,31497,34130,3
0.0,0.0,0.0,17495,13707,10855,31339,34165,3
0.0,0.0,0.0,17461,13260,10867,31244,34095,3
0.0,0.0,0.0,17495,13287,10891,31276,34130,3
0.0,0.0,0.0,17495,13863,10987,31465,34165,3
0.0,0.0,0.0,17495,15028,11024,31593,34060,3
0.0,0.0,0.0,17513,15475,11012,31593,34165,3
0.0,0.0,0.0,17495,14922,10915,31465,34130,3
0.0,0.0,0.0,17461,13792,10879,31339,34130,3
0.0,0.0,0.0,17513,13191,10867,31339,34130,3
0.0,0.0,0.0,17478,13122,10867,31213,34130,3
0.0,0.0,0.0,17495,13205,10891,31276,34095,3
0.0,0.0,0.0,17461,14079,10915,31402,34165,3
0.0,0.0,0.0,17495,15119,10915,31465,34130,3
0.0,0.0,0.0,17478,15242,10915,31497,34130,3
0.0,0.0,0.0,17461,14370,10831,31402,34200,3
0.0,0.0,0.0,17461,13301,10819,31339,34165,3
0.0,0.0,0.0,17443,13260,10819,31276,34235,3
0.0,0.0,0.0,17478,13552,10867,31244,34200,3
0.0,0.0,0.0,17461,13749,10879,31276,34130,3
0.0,0.0,0.0,17513,14577,10915,31402,34165,3
0.0,0.0,0.0,17495,15211,10903,31465,34026,3
0.0,0.0,0.0,17495,15119,10915,31370,34130,3
0.0,0.0,0.0,17495,14224,10867,31276,34165,3
0.0,0.0,0.0,17461,13622,10819,31276,34130,3
0.0,0.0,0.0,17495,13735,10819,31244,34130,3
0.0,0.0,0.0,17495,15013,10867,31339,34060,3
0.0,0.0,0.0,17547,15397,10819,31370,34130,3
0.0,0.0,0.0,17547,14577,10807,31307,34130,3
0.0,0.0,0.0,17495,13863,10795,31244,34095,3
0.0,0.0,0.0,17513,13679,10795,31150,34060,3
0.0,0.0,0.0,17495,14079,10915,31276,34095,3
0.0,0.0,0.0,17530,14876,10963,31307,34095,3
0.0,0.0,0.0,17582,15553,10915,31402,34060,3
0.0,0.0,0.0,17565,15150,10867,31339,34026,3
0.0,0.0,0.0,17565,14050,10819,31213,34060,3
0.0,0.0,0.0,17513,13510,10843,31213,34200,3
0.0,0.0,0.0,17530,13650,10903,31150,34165,3
0.0,0.0,0.0,17565,14079,11012,31276,34130,3
0.0,0.0,0.0,17530,15211,10999,31465,34026,3
0.0,0.0,0.0,17513,15459,10963,31497,34026,3
0.0,0.0,0.0,17530,15335,10903,31561,34026,3
0.0,0.0,0.0,17530,15028,10867,31465,34026,3
0.0,0.0,0.0,17513,14253,10867,31244,34060,3
0.0,0.0,0.0,17461,13679,10867,31213,33991,3
0.0,0.0,0.0,17513,13679,10915,31213,34026,3
0.0,0.0,0.0,17461,13679,11012,31276,33921,3
0.0,0.0,0.0,17426,13707,10987,31276,34200,3
0.0,0.0,0.0,17461,13849,10975,31307,34165,3
0.0,0.0,0.0,17461,14108,10915,31339,34130,3
0.0,0.0,0.0,17461,14036,10891,31276,34060,3
0.0,0.0,0.0,17495,13792,10843,31244,34341,3
0.0,0.0,0.0,17634,13566,10819,30994,34376,3
0.0,0.0,0.0,17722,13260,10724,30994,34412,3
0.0,0.0,0.0,17739,13095,10724,30962,34412,3
0.0,0.0,0.0,17722,13054,10688,30869,34412,3
0.0,0.0,0.0,17774,13136,10700,30776,34341,3
0.0,0.0,0.0,17704,13246,10700,30715,34271,3
0.0,0.0,0.0,17880,13232,10700,30653,34412,3
0.0,0.0,0.0,17915,13205,10676,30530,34376,3
0.0,0.0,0.0,17915,13095,10688,30530,34412,3
0.0,0.0,0.0,17915,13068,10676,30469,34412,3
0.0,0.0,0.0,17915,13013,10676,30347,34376,3
0.0,0.0,0.0,17915,12986,10653,30347,34518,3
0.0,0.0,0.0,17845,12918,10629,30377,34376,3
0.0,0.0,0.0,17845,12851,10582,30377,34447,3
0.0,0.0,0.0,17809,12770,10582,30469,34341,3
0.0,0.0,0.0,17774,12690,10582,30408,34341,3
0.0,0.0,0.0,17809,12797,10629,30408,34341,3
0.0,0.0,0.0,17862,13412,10676,30469,34341,3
0.0,0.0,0.0,17862,14370,10688,30530,34271,3
0.0,0.0,0.0,17915,14577,10688,30499,34271,3
0.0,0.0,0.0,17862,14399,10724,30438,34271,3
0.0,0.0,0.0,17845,14079,10712,30377,34271,3
0.0,0.0,0.0,17845,13693,10700,30408,34200,3
0.0,0.0,0.0,17845,13580,10676,30347,34341,3
0.0,0.0,0.0,17845,13510,10594,30408,34447,3
0.0,0.0,0.0,17774,13426,10594,30377,34271,3
0.0,0.0,0.0,17845,13274,10582,30408,34271,3
0.0,0.0,0.0,17845,12905,10582,30317,34306,3
0.0,0.0,0.0,17809,12810,10605,30226,34341,3
0.0,0.0,0.0,17792,13013,10688,30347,34341,3
0.0,0.0,0.0,17933,13371,10867,30377,34946,3
0.0,0.0,0.0,18236,13510,11012,30377,34624,3
0.0,0.0,0.0,18801,13636,11084,29925,35127,3
0.0,0.0,0.0,19099,13650,11109,29538,35163,3
0.0,0.0,0.0,19477,13764,11182,29187,35345,3
0.0,0.0,0.0,19477,13693,11157,29042,35418,3
0.0,0.0,0.0,19458,13679,11072,28840,35418,3
0.0,0.0,0.0,19420,13594,11024,28754,35492,3
0.0,0.0,0.0,19382,13566,11012,28754,35418,3
0.0,0.0,0.0,19382,13510,10963,28697,35382,3
0.0,0.0,0.0,19306,13454,10939,28640,35272,3
0.0,0.0,0.0,19344,13454,10915,28640,35272,3
0.0,0.0,0.0,19382,13398,10927,28754,35272,3
0.0,0.0,0.0,19306,13412,10915,28754,35272,3
0.0,0.0,0.0,19306,13371,10891,28697,35272,3
0.0,0.0,0.0,19193,13343,10891,28754,35272,3
0.0,0.0,0.0,18968,13260,10867,28726,35127,3
0.0,0.0,0.0,18801,13191,10843,28869,34982,3
0.0,0.0,0.0,18654,13177,10831,29013,34982,3
0.0,0.0,0.0,18489,13163,10843,29042,34910,3
0.0,0.0,0.0,18147,13177,10843,29100,35055,3
0.0,0.0,0.0,18093,13177,10867,29100,34910,3
0.0,0.0,0.0,18200,13122,10831,29100,34874,3
0.0,0.0,0.0,18147,13095,10819,29245,34767,3
0.0,0.0,0.0,18147,13205,10819,29304,34731,3
0.0,0.0,0.0,18147,13426,10807,29274,34696,3
0.0,0.0,0.0,18182,13693,10819,29274,34660,3
0.0,0.0,0.0,18182,14079,10771,29274,34660,3
0.0,0.0,0.0,18200,14429,10795,29333,34624,3
0.0,0.0,0.0,18236,14458,10795,29216,34696,3
0.0,0.0,0.0,18290,14771,10783,29274,34624,3
0.0,0.0,0.0,18236,15211,10795,29274,34696,3
0.0,0.0,0.0,18290,15150,10819,29274,34624,3
0.0,0.0,0.0,18344,15089,10867,29333,34660,3
0.0,0.0,0.0,18344,15074,10879,29216,34553,3
0.0,0.0,0.0,18272,15089,10879,29304,34518,3
0.0,0.0,0.0,18272,14967,10855,29333,34482,3
0.0,0.0,0.0,18272,14518,10819,29391,34553,3
0.0,0.0,0.0,18272,14050,10783,29158,34553,3
0.0,0.0,0.0,18272,14036,10771,29158,34624,3
0.0,0.0,0.0,18254,13992,10771,29129,34482,3
0.0,0.0,0.0,18236,13992,10748,29158,34589,3
0.0,0.0,0.0,18200,13964,10724,29333,34589,3
0.0,0.0,0.0,18182,13935,10676,29391,34447,3
0.0,0.0,0.0,18236,13935,10676,29391,34412,3
0.0,0.0,0.0,18236,13906,10676,29450,34412,3
0.0,0.0,0.0,18236,13906,10653,29479,34412,3
0.0,0.0,0.0,18236,13863,10676,29450,34482,3
0.0,0.0,0.0,18236,13863,10664,29450,34482,3
0.0,0.0,0.0,18147,13906,10676,29391,34482,3
0.0,0.0,0.0,18236,13878,10676,29391,34482,3
0.0,0.0,0.0,18236,13921,10676,29391,34447,3
0.0,0.0,0.0,18182,13935,10688,29421,34482,3
0.0,0.0,0.0,18200,14137,10724,29450,34482,3
0.0,0.0,0.0,18164,14326,10748,29479,34482,3
0.0,0.0,0.0,18236,14458,10783,29509,34412,3
0.0,0.0,0.0,18236,15028,10819,29509,34447,3
0.0,0.0,0.0,18236,15443,10867,29538,34341,3
0.0,0.0,0.0,18272,15900,10867,29538,34341,3
0.0,0.0,0.0,18236,15741,10915,29538,34412,3
0.0,0.0,0.0,18290,15288,10963,29509,34447,3
0.0,0.0,0.0,18290,15211,11060,29509,34447,3
0.0,0.0,0.0,18380,15211,11292,29509,34376,3
0.0,0.0,0.0,18308,14562,11060,29391,34412,3
0.0,0.0,0.0,18200,13468,10795,29450,34341,3
0.0,0.0,0.0,18075,12797,10629,29333,34306,3
0.0,0.0,0.0,18022,12556,10594,29333,34412,3
0.0,0.0,0.0,18004,12530,10558,29216,34412,3
0.0,0.0,0.0,17986,12464,10582,29158,34412,3
0.0,0.0,0.0,17986,12490,10535,29158,34271,3
0.0,0.0,0.0,17951,12477,10546,29158,34376,3
0.0,0.0,0.0,18022,12477,10546,29100,34341,3
0.0,0.0,0.0,17986,12477,10535,29100,34341,3
0.0,0.0,0.0,17986,12477,10535,29071,34200,3
0.0,0.0,0.0,17986,12477,10511,29100,34306,3
0.0,0.0,0.0,18022,12477,10511,29100,34306,3
0.0,0.0,0.0,17986,12477,10511,29042,34306,3
0.0,0.0,0.0,18004,12504,10499,29042,34271,3
0.0,0.0,0.0,17986,12504,10499,29071,34235,3
0.0,0.0,0.0,18004,12477,10499,29100,34271,3
0.0,0.0,0.0,18004,12477,10535,29042,34271,3
0.0,0.0,0.0,17986,12477,10511,29071,34235,3
0.0,0.0,0.0,18004,12504,10511,29071,34271,3
0.0,0.0,0.0,17933,12504,10499,29042,34235,3
0.0,0.0,0.0,17986,12504,10523,29158,34271,3
0.0,0.0,0.0,17933,12649,10511,29158,34200,3
0.0,0.0,0.0,17933,12783,10535,29158,34200,3
0.0,0.0,0.0,17986,13068,10629,29216,34200,3
0.0,0.0,0.0,18057,13357,10724,29216,34235,3
0.0,0.0,0.0,18218,14050,11231,29391,34200,3
0.0,0.0,0.0,18417,15028,11932,29597,34376,3
0.0,0.0,0.0,18489,15211,12124,29538,34341,3
0.0,0.0,0.0,18508,15227,12241,29568,34271,3
0.0,0.0,0.0,18453,15119,12163,29509,34271,3
0.0,0.0,0.0,18435,15058,12163,29509,34306,3
0.0,0.0,0.0,18453,15028,12124,29509,34306,3
0.0,0.0,0.0,18435,14967,12112,29509,34271,3
0.0,0.0,0.0,18417,14967,11970,29450,34130,3
0.0,0.0,0.0,18380,14816,11792,29450,34271,3
0.0,0.0,0.0,18344,13978,11157,29391,34200,3
0.0,0.0,0.0,18236,13315,10748,29304,34271,3
0.0,0.0,0.0,18164,13136,10664,29216,34306,3
0.0,0.0,0.0,18182,13095,10653,29187,34271,3
0.0,0.0,0.0,18182,13081,10629,29071,34235,3
0.0,0.0,0.0,18164,13081,10629,29042,34271,3
0.0,0.0,0.0,18147,13095,10641,29071,34306,3
0.0,0.0,0.0,18164,13095,10629,28984,34200,3
0.0,0.0,0.0,18147,13122,10629,29042,34235,3
0.0,0.0,0.0,18093,13136,10641,29100,34271,3
0.0,0.0,0.0,18129,13177,10653,29042,34235,3
0.0,0.0,0.0,18057,13177,10629,28955,34200,3
0.0,0.0,0.0,18129,13191,10641,29100,34130,3
0.0,0.0,0.0,18129,13232,10653,29042,34200,3
0.0,0.0,0.0,18129,13205,10676,29042,34165,3
0.0,0.0,0.0,18129,13260,10641,29042,34200,3
0.0,0.0,0.0,18129,13287,10676,29042,34060,3
0.0,0.0,0.0,18147,13343,10676,29071,34200,3
0.0,0.0,0.0,18147,13749,10795,29158,34200,3
0.0,0.0,0.0,18200,14326,10963,29216,34200,3
0.0,0.0,0.0,18272,15397,11157,29333,34200,3
0.0,0.0,0.0,18308,15996,11366,29333,34271,3
0.0,0.0,0.0,18326,15932,11403,29391,34165,3
0.0,0.0,0.0,18290,15789,11416,29304,34130,3
0.0,0.0,0.0,18272,15335,11329,29304,34165,3
0.0,0.0,0.0,18272,14756,11182,29216,34165,3
0.0,0.0,0.0,18200,14253,11012,29158,34130,3
0.0,0.0,0.0,18147,13821,10915,29245,34060,3
0.0,0.0,0.0,18129,13622,10867,29216,34130,3
0.0,0.0,0.0,18093,13412,10855,29216,34026,3
0.0,0.0,0.0,18075,13315,10831,29274,34060,3
0.0,0.0,0.0,18057,13301,10831,29274,34026,3
0.0,0.0,0.0,18022,13287,10819,29158,34060,3
0.0,0.0,0.0,18039,13426,10879,29216,34026,3
0.0,0.0,0.0,18129,13906,11255,29391,34130,3
0.0,0.0,0.0,18362,14577,11754,29568,34200,3
0.0,0.0,0.0,18453,15058,12215,29686,34235,3
0.0,0.0,0.0,18453,14846,12124,29657,34095,3
0.0,0.0,0.0,18344,14311,11678,29450,34026,3
0.0,0.0,0.0,18236,13693,11133,29509,34060,3
0.0,0.0,0.0,18200,13343,10867,29450,34095,3
0.0,0.0,0.0,18129,13136,10748,29568,34130,3
0.0,0.0,0.0,18129,12932,10629,29538,34130,3
0.0,0.0,0.0,18111,12824,10582,29686,34060,3
0.0,0.0,0.0,18129,13136,10546,29686,34095,3
0.0,0.0,0.0,18111,13343,10546,29627,33991,3
0.0,0.0,0.0,18075,13357,10582,29627,34095,3
0.0,0.0,0.0,18057,13343,10617,29538,34060,3
0.0,0.0,0.0,18057,13218,10629,29509,33956,3
0.0,0.0,0.0,18039,13122,10629,29479,33991,3
0.0,0.0,0.0,18004,13040,10641,29479,33991,3
0.0,0.0,0.0,18022,13013,10629,29509,34026,3
0.0,0.0,0.0,18022,13013,10629,29509,33991,3
0.0,0.0,0.0,17986,13013,10653,29568,33921,3
0.0,0.0,0.0,17986,12905,10700,29538,33956,3
0.0,0.0,0.0,17915,12851,10748,29538,33991,3
0.0,0.0,0.0,17933,12851,10771,29509,33991,3
0.0,0.0,0.0,17915,12824,10783,29627,33991,3
0.0,0.0,0.0,17898,12864,10783,29627,33991,3
0.0,0.0,0.0,17915,12837,10771,29686,33921,3
0.0,0.0,0.0,17933,12824,10771,29746,34060,3
0.0,0.0,0.0,17915,12972,10771,29746,33991,3
0.0,0.0,0.0,17915,13454,10771,29895,33852,3
0.0,0.0,0.0,17933,14151,10819,29835,33887,3
0.0,0.0,0.0,17915,14756,10867,29984,33817,3
0.0,0.0,0.0,17915,14282,10915,29925,33852,3
0.0,0.0,0.0,17898,13707,10915,29775,33783,3
0.0,0.0,0.0,17880,13566,10903,29746,33783,3
0.0,0.0,0.0,17862,13510,10915,29746,33852,3
0.0,0.0,0.0,17933,13468,10891,29775,33783,3
0.0,0.0,0.0,17880,13454,10891,29775,33852,3
0.0,0.0,0.0,17845,13454,10879,29775,33783,3
0.0,0.0,0.0,17845,13468,10867,29775,33748,3
0.0,0.0,0.0,17880,13454,10867,29746,33714,3
0.0,0.0,0.0,17845,13454,10867,29805,33783,3
0.0,0.0,0.0,17845,13454,10867,29775,33852,3
0.0,0.0,0.0,17845,13454,10867,29746,33714,3
0.0,0.0,0.0,17809,13440,10867,29775,33679,3
0.0,0.0,0.0,17845,13426,10843,29805,33783,3
0.0,0.0,0.0,17845,13454,10867,29746,33852,3
0.0,0.0,0.0,17809,13412,10831,29775,33748,3
0.0,0.0,0.0,17827,13454,10843,29775,33748,3
0.0,0.0,0.0,17845,13426,10843,29746,33783,3
0.0,0.0,0.0,17827,13426,10843,29775,33714,3
0.0,0.0,0.0,17809,13454,10867,29746,33748,3
0.0,0.0,0.0,17845,13580,10927,29805,33714,3
0.0,0.0,0.0,17845,13679,10927,29865,33748,3
0.0,0.0,0.0,17792,13580,10879,29865,33748,3
0.0,0.0,0.0,17792,13468,10831,29835,33748,3
0.0,0.0,0.0,17792,13150,10819,29805,33783,3
0.0,0.0,0.0,17774,12986,10819,29746,33887,3
0.0,0.0,0.0,17809,13566,11304,29865,33817,3
0.0,0.0,0.0,17915,14050,11628,30045,33817,3
0.0,0.0,0.0,17986,14518,12112,30286,33852,3
0.0,0.0,0.0,17986,14370,12124,30226,33852,3
0.0,0.0,0.0,17915,13906,11628,29984,33748,3
0.0,0.0,0.0,17809,13232,10975,30045,33852,3
0.0,0.0,0.0,17792,12959,10771,29984,33852,3
0.0,0.0,0.0,17774,12797,10771,29805,33852,3
0.0,0.0,0.0,17739,12690,10771,29746,33748,3
0.0,0.0,0.0,17739,12703,10819,29568,33852,3
0.0,0.0,0.0,17792,12972,10927,29746,33852,3
0.0,0.0,0.0,17792,13636,11133,29746,33748,3
0.0,0.0,0.0,17845,13863,11268,29865,33748,3
0.0,0.0,0.0,17845,13835,11268,29865,33783,3
0.0,0.0,0.0,17809,13749,11231,29746,33714,3
0.0,0.0,0.0,17809,13693,11157,29746,33748,3
0.0,0.0,0.0,17774,13538,11012,29716,33714,3
0.0,0.0,0.0,17774,13343,10867,29686,33852,3
0.0,0.0,0.0,17774,13205,10843,29746,33817,3
0.0,0.0,0.0,17774,13191,10819,29627,33783,3
0.0,0.0,0.0,17792,13163,10783,29627,33852,3
0.0,0.0,0.0,17792,13232,10771,29568,33817,3
0.0,0.0,0.0,17792,13246,10759,29597,33887,3
0.0,0.0,0.0,17774,13398,10771,29538,33852,3
0.0,0.0,0.0,17774,13384,10771,29568,33714,3
0.0,0.0,0.0,17757,13764,10748,29568,33714,3
0.0,0.0,0.0,17792,13863,10748,29538,33714,3
0.0,0.0,0.0,17739,13749,10748,29568,33714,3
0.0,0.0,0.0,17739,13594,10748,29538,33679,3
0.0,0.0,0.0,17722,13566,10724,29538,33714,3
0.0,0.0,0.0,17774,13524,10724,29509,33679,3
0.0,0.0,0.0,17792,13510,10724,29568,33817,3
0.0,0.0,0.0,17792,13510,10724,29509,33783,3
0.0,0.0,0.0,17862,13510,10700,29509,33748,3
0.0,0.0,0.0,17986,13510,10688,29509,33852,3
0.0,0.0,0.0,18057,13524,10724,29509,34447,3
0.0,0.0,0.0,18004,13496,10724,29421,34553,3
0.0,0.0,0.0,18093,13191,10771,29450,33852,3
0.0,0.0,0.0,18093,12932,10831,29391,33852,3
0.0,0.0,0.0,18129,12972,10867,29450,33852,3
0.0,0.0,0.0,18129,13510,10939,29746,34412,3
0.0,0.0,0.0,18093,13749,10927,29805,34271,3
0.0,0.0,0.0,18164,14137,10867,29835,34165,3
0.0,0.0,0.0,18164,14666,10795,29746,34271,3
0.0,0.0,0.0,18075,13935,10771,29627,34200,3
0.0,0.0,0.0,18057,13246,10819,29509,34271,3
0.0,0.0,0.0,18093,13426,10867,29568,34235,3
0.0,0.0,0.0,18057,13964,10867,29686,34130,3
0.0,0.0,0.0,18057,14108,10867,29657,34060,3
0.0,0.0,0.0,18057,13906,10831,29627,34165,3
0.0,0.0,0.0,18075,13594,10771,29597,34165,3
0.0,0.0,0.0,18093,13594,10771,29568,34271,3
0.0,0.0,0.0,18057,13707,10771,29627,34130,3
0.0,0.0,0.0,18057,14021,10771,29627,34130,3
0.0,0.0,0.0,18075,14607,10771,29686,34130,3
0.0,0.0,0.0,18022,14311,10771,29568,34165,3
0.0,0.0,0.0,17986,13622,10771,29509,34200,3
0.0,0.0,0.0,17986,13205,10915,29509,34165,3
0.0,0.0,0.0,17968,13191,10915,29538,34165,3
0.0,0.0,0.0,18004,13510,10867,29568,34095,3
0.0,0.0,0.0,17986,13707,10819,29627,34095,3
0.0,0.0,0.0,17986,13735,10807,29627,34060,3
0.0,0.0,0.0,17951,13622,10795,29686,34026,3
0.0,0.0,0.0,17915,13371,10819,29568,34130,3
0.0,0.0,0.0,17986,13205,10843,29509,34130,3
0.0,0.0,0.0,17915,13191,10843,29568,34130,3
0.0,0.0,0.0,17915,13232,10903,29597,34060,3
0.0,0.0,0.0,17915,13524,10927,29746,34026,3
0.0,0.0,0.0,17915,14108,10927,29805,34060,3
0.0,0.0,0.0,17933,13849,10915,29746,34060,3
0.0,0.0,0.0,17880,13357,10915,29627,34026,3
0.0,0.0,0.0,17845,13218,10915,29538,34095,3
0.0,0.0,0.0,17862,13232,10915,29597,34060,3
0.0,0.0,0.0,17862,14007,10927,29835,34026,3
0.0,0.0,0.0,17862,14370,10915,29865,34060,3
0.0,0.0,0.0,17845,13792,10891,29746,34026,3
0.0,0.0,0.0,17845,13384,10879,29657,34026,3
0.0,0.0,0.0,17809,13343,10867,29627,34095,3
0.0,0.0,0.0,17845,13274,10879,29657,33991,3
0.0,0.0,0.0,17845,13232,10867,29657,34026,3
0.0,0.0,0.0,17845,13371,10867,29716,34060,3
0.0,0.0,0.0,17880,13735,10867,29746,34060,3
0.0,0.0,0.0,17880,13707,10843,29686,34026,3
0.0,0.0,0.0,17898,13650,10831,29686,34060,3
0.0,0.0,0.0,17915,13496,10807,29686,34026,3
0.0,0.0,0.0,17898,13510,10783,29686,33991,3
0.0,0.0,0.0,17915,13496,10783,29627,33991,3
0.0,0.0,0.0,17915,13510,10783,29627,34095,3
0.0,0.0,0.0,17915,13496,10795,29627,33991,3
0.0,0.0,0.0,17915,13468,10795,29627,33991,3
0.0,0.0,0.0,17933,13468,10795,29568,33991,3
0.0,0.0,0.0,17915,13454,10771,29627,33991,3
0.0,0.0,0.0,17880,13482,10771,29627,34060,3
0.0,0.0,0.0,17915,13510,10771,29538,33991,3
0.0,0.0,0.0,17880,13510,10771,29627,34026,3
0.0,0.0,0.0,17915,13510,10771,29568,34026,3
0.0,0.0,0.0,17915,13426,10771,29538,34130,3
0.0,0.0,0.0,17880,13246,10759,29509,34130,3
0.0,0.0,0.0,17880,13013,10771,29509,34130,3
0.0,0.0,0.0,17845,13013,10783,29391,33991,3
0.0,0.0,0.0,17915,12972,10783,29421,34060,3
0.0,0.0,0.0,17880,12959,10795,29391,34130,3
0.0,0.0,0.0,17862,12959,10819,29421,34060,3
0.0,0.0,0.0,17845,12986,10831,29391,34026,3
0.0,0.0,0.0,17862,13287,10843,29509,34060,3
0.0,0.0,0.0,17862,14253,10819,29627,33991,3
0.0,0.0,0.0,17845,14547,10831,29686,33921,3
0.0,0.0,0.0,17845,14473,10819,29686,33991,3
0.0,0.0,0.0,17880,14429,10819,29657,33991,3
0.0,0.0,0.0,17862,14166,10867,29568,33991,3
0.0,0.0,0.0,17809,13510,10867,29450,34060,3
0.0,0.0,0.0,17809,13177,10891,29450,33991,3
0.0,0.0,0.0,17809,13136,10915,29509,34060,3
0.0,0.0,0.0,17809,13136,10915,29509,34060,3
0.0,0.0,0.0,17792,13260,10879,29657,33991,3
0.0,0.0,0.0,17845,13935,10819,29805,33921,3
0.0,0.0,0.0,17809,14253,10819,29925,33991,3
0.0,0.0,0.0,17774,13650,10843,29627,33991,3
0.0,0.0,0.0,17774,13343,10915,29627,34060,3
0.0,0.0,0.0,17774,13232,10915,29538,33956,3
0.0,0.0,0.0,17757,13315,10927,29597,33991,3
0.0,0.0,0.0,17774,13650,10999,29865,33991,3
0.0,0.0,0.0,17774,14503,10987,29984,33852,3
0.0,0.0,0.0,17774,15150,10963,30015,33921,3
0.0,0.0,0.0,17739,14861,10963,29865,33852,3
0.0,0.0,0.0,17774,13566,11012,29746,33921,3
0.0,0.0,0.0,17774,13081,11157,29627,33956,3
0.0,0.0,0.0,17704,13315,11133,29865,33852,3
0.0,0.0,0.0,17739,14021,11024,30045,33852,3
0.0,0.0,0.0,17739,14562,11012,30135,33852,3
0.0,0.0,0.0,17757,14311,10939,30015,33852,3
0.0,0.0,0.0,17739,14137,10939,29955,33921,3
0.0,0.0,0.0,17722,13622,10963,29865,33852,3
0.0,0.0,0.0,17739,13566,10987,29865,33852,3
0.0,0.0,0.0,17669,13538,10963,29925,33783,3
0.0,0.0,0.0,17757,13679,10963,29895,33783,3
0.0,0.0,0.0,17739,13992,10915,29984,33852,3
0.0,0.0,0.0,17774,14370,10843,29984,33921,3
0.0,0.0,0.0,17739,14166,10831,29865,33887,3
0.0,0.0,0.0,17739,13792,10819,29865,33852,3
0.0,0.0,0.0,17722,13693,10819,29805,33887,3
0.0,0.0,0.0,17722,13679,10819,29805,33921,3
0.0,0.0,0.0,17704,13679,10819,29746,33887,3
0.0,0.0,0.0,17722,13679,10819,29775,33921,3
0.0,0.0,0.0,17774,13650,10795,29746,33921,3
0.0,0.0,0.0,17774,13343,10771,29686,33921,3
0.0,0.0,0.0,17739,13232,10748,29716,33921,3
0.0,0.0,0.0,17722,13040,10795,29568,33991,3
0.0,0.0,0.0,17739,13027,10795,29597,33991,3
0.0,0.0,0.0,17722,13122,10843,29597,33887,3
0.0,0.0,0.0,17704,13510,10915,29805,33887,3
0.0,0.0,0.0,17704,13906,10927,29686,33852,3
0.0,0.0,0.0,17774,14282,10927,29775,33852,3
0.0,0.0,0.0,17722,14108,10891,29686,33887,3
0.0,0.0,0.0,17704,14079,10831,29686,33852,3
0.0,0.0,0.0,17669,13964,10771,29746,33887,3
0.0,0.0,0.0,17634,13735,10771,29746,33921,3
0.0,0.0,0.0,17704,13357,10748,29686,33921,3
0.0,0.0,0.0,17669,12824,10771,29627,33956,3
0.0,0.0,0.0,17704,12743,10771,29597,33991,3
0.0,0.0,0.0,17774,12690,10748,29538,33991,3
0.0,0.0,0.0,17845,12636,10724,29538,34060,3
0.0,0.0,0.0,17862,12636,10724,29479,34130,3
0.0,0.0,0.0,17915,12636,10700,29450,34165,3
0.0,0.0,0.0,18004,12703,10724,29304,34130,3
0.0,0.0,0.0,18022,12797,10724,29391,34060,3
0.0,0.0,0.0,18182,13068,10795,29274,34130,3
0.0,0.0,0.0,18200,13027,10771,29216,34026,3
0.0,0.0,0.0,18272,12972,10748,29362,34060,3
0.0,0.0,0.0,18236,12851,10748,29245,34026,3
0.0,0.0,0.0,18200,12649,10748,29216,34060,3
0.0,0.0,0.0,18164,12490,10748,29187,34026,3
0.0,0.0,0.0,18147,12932,10771,29304,33921,3
0.0,0.0,0.0,18057,13735,10831,29391,33991,3
0.0,0.0,0.0,18039,13622,10795,29333,33956,3
0.0,0.0,0.0,18022,13906,10819,29274,33921,3
0.0,0.0,0.0,18004,14399,10819,29333,33887,3
0.0,0.0,0.0,17986,14547,10819,29391,33991,3
0.0,0.0,0.0,18004,15773,10819,29509,33576,3
0.0,0.0,0.0,18075,15964,10963,29657,33508,3
0.0,0.0,0.0,18147,16044,11453,29895,33269,3
0.0,0.0,0.0,18164,15980,11503,29895,33303,3
0.0,0.0,0.0,18129,15521,11453,29805,33371,3
0.0,0.0,0.0,18129,14846,11366,29627,33269,3
0.0,0.0,0.0,18057,14666,11317,29627,33303,3
0.0,0.0,0.0,18022,14224,11341,29597,33236,3
0.0,0.0,0.0,18039,14108,11280,29568,33269,3
0.0,0.0,0.0,17986,13964,11096,29509,33337,3
