GyroX,GyroY,GyroZ,Thumb,Index,Middle,Ring,Pinky,Gesture
0.0,0.0,0.0,14180,27364,26723,38341,50770,0
0.0,0.0,0.0,14268,27310,26723,38220,50770,0
0.0,0.0,0.0,14341,27256,26670,38140,50829,0
0.0,0.0,0.0,14444,27175,26644,38100,50829,0
0.0,0.0,0.0,14562,27202,26618,38019,50947,0
0.0,0.0,0.0,14547,27068,26670,37940,50829,0
0.0,0.0,0.0,14370,26935,26409,37543,50829,0
0.0,0.0,0.0,14166,26829,26047,37191,51006,0
0.0,0.0,0.0,14195,26723,25793,37075,51184,0
0.0,0.0,0.0,14326,26723,25691,37308,51542,0
0.0,0.0,0.0,14547,26670,25691,37543,51065,0
0.0,0.0,0.0,14636,26697,25666,37543,51184,0
0.0,0.0,0.0,14621,26670,25793,37701,50947,0
0.0,0.0,0.0,14756,26644,26047,38100,50888,0
0.0,0.0,0.0,14907,26697,26228,38341,50888,0
0.0,0.0,0.0,14922,26644,26383,38625,50711,0
0.0,0.0,0.0,15058,26723,26566,38830,50536,0
0.0,0.0,0.0,15119,26723,26592,39036,50594,0
0.0,0.0,0.0,15104,26723,26644,39244,50361,0
0.0,0.0,0.0,15150,26776,26855,39536,50419,0
0.0,0.0,0.0,15089,26697,26935,39832,50129,0
0.0,0.0,0.0,15211,26723,27148,40002,50245,0
0.0,0.0,0.0,15288,26829,27256,40259,49956,0
0.0,0.0,0.0,15350,26776,27337,40475,49727,0
0.0,0.0,0.0,15521,26829,27391,40693,49670,0
0.0,0.0,0.0,15600,26855,27472,40780,49386,0
0.0,0.0,0.0,15615,26855,27472,40693,49443,0
0.0,0.0,0.0,15584,26749,27337,40605,49386,0
0.0,0.0,0.0,15600,26749,27283,40562,49217,0
0.0,0.0,0.0,15584,26723,27256,40432,49104,0
0.0,0.0,0.0,15397,26723,27095,40002,49217,0
0.0,0.0,0.0,15119,26670,27041,39452,49443,0
0.0,0.0,0.0,15089,26618,27041,39119,49727,0
0.0,0.0,0.0,14982,26566,27095,38585,49956,0
0.0,0.0,0.0,14831,26513,27095,38100,50072,0
0.0,0.0,0.0,14801,26513,27041,37820,49899,0
0.0,0.0,0.0,14786,26461,26961,37622,50477,0
0.0,0.0,0.0,14726,26383,26882,37465,50419,0
0.0,0.0,0.0,14726,26409,26723,37386,50477,0
0.0,0.0,0.0,14726,26305,26618,37308,50594,0
0.0,0.0,0.0,14756,26357,26566,37308,50477,0
0.0,0.0,0.0,14786,26202,26618,37701,50419,0
0.0,0.0,0.0,14786,26305,26618,38019,50477,0
0.0,0.0,0.0,14846,26357,26670,38019,50361,0
0.0,0.0,0.0,14801,26383,26644,38019,50129,0
0.0,0.0,0.0,14831,26279,26670,38100,50245,0
0.0,0.0,0.0,14801,26357,26644,38019,50129,0
0.0,0.0,0.0,14786,26331,26618,37980,50245,0
0.0,0.0,0.0,14801,26331,26670,38019,50129,0
0.0,0.0,0.0,14756,26357,26670,37940,49956,0
0.0,0.0,0.0,14786,26253,26697,38019,49956,0
0.0,0.0,0.0,14756,26305,26776,38100,49899,0
0.0,0.0,0.0,14786,26305,26855,38180,49670,0
0.0,0.0,0.0,14726,26357,26988,38341,49727,0
0.0,0.0,0.0,14771,26435,27202,38503,49556,0
0.0,0.0,0.0,14967,26566,27445,38748,49443,0
0.0,0.0,0.0,15043,26566,27472,38748,49330,0
0.0,0.0,0.0,14801,26461,27364,38748,49217,0
0.0,0.0,0.0,14562,26435,27256,38585,48992,0
0.0,0.0,0.0,14444,26383,27122,38260,48992,0
0.0,0.0,0.0,14518,26331,27041,38019,49104,0
0.0,0.0,0.0,14666,26331,26935,37741,49386,0
0.0,0.0,0.0,14666,26305,26882,37701,49499,0
0.0,0.0,0.0,14577,26253,26855,37622,49217,0
0.0,0.0,0.0,14607,26253,26829,37543,49217,0
0.0,0.0,0.0,14562,26228,26855,37543,49386,0
0.0,0.0,0.0,14607,26253,26802,37543,49104,0
0.0,0.0,0.0,14562,26228,26802,37543,49048,0
0.0,0.0,0.0,14562,26202,26829,37543,49104,0
0.0,0.0,0.0,14592,26253,26802,37543,49161,0
0.0,0.0,0.0,14562,26253,26776,37465,49048,0
0.0,0.0,0.0,14577,26202,26776,37465,48992,0
0.0,0.0,0.0,14592,26228,26749,37465,49104,0
0.0,0.0,0.0,14621,26202,26670,37465,49273,0
0.0,0.0,0.0,14607,26202,26644,37543,49104,0
0.0,0.0,0.0,14636,26202,26566,37741,48992,0
0.0,0.0,0.0,14666,26202,26487,37860,48769,0
0.0,0.0,0.0,14726,26228,26513,38019,48492,0
0.0,0.0,0.0,14801,26253,26513,38585,48437,0
0.0,0.0,0.0,15013,26253,26487,38871,48218,0
0.0,0.0,0.0,15335,26253,26461,38871,48108,0
0.0,0.0,0.0,15459,26150,26513,39119,48108,0
0.0,0.0,0.0,15350,26099,26435,38912,48000,0
0.0,0.0,0.0,15211,25996,26305,38871,48054,0
0.0,0.0,0.0,15119,25945,26228,38748,48108,0
0.0,0.0,0.0,14907,25894,26176,38503,48163,0
0.0,0.0,0.0,14801,25843,26124,38180,48437,0
0.0,0.0,0.0,14636,25742,26099,37741,48881,0
0.0,0.0,0.0,14458,25691,25996,37386,49330,0
0.0,0.0,0.0,14370,25691,25869,37075,49556,0
0.0,0.0,0.0,14311,25616,25843,36959,49443,0
0.0,0.0,0.0,14253,25666,25843,36882,49273,0
0.0,0.0,0.0,14195,25666,25894,36920,48992,0
0.0,0.0,0.0,14224,25691,25843,36920,48881,0
0.0,0.0,0.0,14326,25691,25869,37230,48937,0
0.0,0.0,0.0,14326,25641,25843,37269,49217,0
0.0,0.0,0.0,14224,25540,25742,37191,49217,0
0.0,0.0,0.0,14195,25465,25591,37230,49217,0
0.0,0.0,0.0,14180,25440,25616,37191,49273,0
0.0,0.0,0.0,14253,25415,25717,37347,49104,0
0.0,0.0,0.0,14577,25616,26047,38382,49048,0
0.0,0.0,0.0,14891,25894,26383,38871,48603,0
0.0,0.0,0.0,15074,26099,26435,39036,48437,0
0.0,0.0,0.0,14982,26150,26409,38912,48437,0
0.0,0.0,0.0,14786,26099,26357,38585,48327,0
0.0,0.0,0.0,14488,25843,26305,38341,48163,0
0.0,0.0,0.0,14385,25742,26253,38100,48000,0
0.0,0.0,0.0,14621,26022,26228,38059,48163,0
0.0,0.0,0.0,14771,26202,26279,38059,47945,0
0.0,0.0,0.0,14547,25920,26228,37860,48108,0
0.0,0.0,0.0,14268,25641,26150,37781,48000,0
0.0,0.0,0.0,14282,25591,26099,37543,48163,0
0.0,0.0,0.0,14488,25894,26099,37583,48163,0
0.0,0.0,0.0,14547,25894,26073,37347,48327,0
0.0,0.0,0.0,14137,25465,25920,36959,48492,0
0.0,0.0,0.0,13863,25266,25717,36690,49217,0
0.0,0.0,0.0,13849,25241,25717,36462,49273,0
0.0,0.0,0.0,13849,25216,25591,36386,49104,0
0.0,0.0,0.0,13949,25291,25591,36348,48937,0
0.0,0.0,0.0,13964,25341,25540,36310,48825,0
0.0,0.0,0.0,13921,25241,25591,36310,48881,0
0.0,0.0,0.0,13906,25291,25641,36499,48603,0
0.0,0.0,0.0,13964,25341,25742,36920,48218,0
0.0,0.0,0.0,14079,25415,25793,37036,48327,0
0.0,0.0,0.0,14079,25390,25767,37230,48163,0
0.0,0.0,0.0,14108,25415,25793,37152,48108,0
0.0,0.0,0.0,14195,25490,25742,36767,48437,0
0.0,0.0,0.0,14370,25390,25691,36767,48492,0
0.0,0.0,0.0,14399,25465,25691,36728,48658,0
0.0,0.0,0.0,14399,25390,25717,36690,48658,0
0.0,0.0,0.0,14370,25390,25691,36614,48437,0
0.0,0.0,0.0,14370,25390,25691,36690,48492,0
0.0,0.0,0.0,14370,25440,25691,36614,48218,0
0.0,0.0,0.0,14385,25440,25641,36538,48218,0
0.0,0.0,0.0,14370,25440,25691,36614,48218,0
0.0,0.0,0.0,14399,25390,25717,36805,48437,0
0.0,0.0,0.0,14444,25415,25691,37152,48163,0
0.0,0.0,0.0,14385,25390,25717,37075,48108,0
0.0,0.0,0.0,14326,25415,25691,37036,48163,0
0.0,0.0,0.0,14311,25341,25717,37075,48163,0
0.0,0.0,0.0,14282,25390,25691,36959,48054,0
0.0,0.0,0.0,14253,25341,25691,36998,48108,0
0.0,0.0,0.0,14166,25390,25691,36998,47945,0
0.0,0.0,0.0,14050,25291,25691,36959,48000,0
0.0,0.0,0.0,14050,25291,25691,37075,48000,0
0.0,0.0,0.0,14079,25365,25742,37308,47783,0
0.0,0.0,0.0,14021,25415,25742,37741,47513,0
0.0,0.0,0.0,14036,25390,25793,37583,47353,0
0.0,0.0,0.0,14036,25390,25742,37504,47460,0
0.0,0.0,0.0,14021,25316,25717,37386,47353,0
0.0,0.0,0.0,13978,25291,25742,37308,47299,0
0.0,0.0,0.0,13978,25291,25691,36959,47460,0
0.0,0.0,0.0,13992,25241,25591,36767,47783,0
0.0,0.0,0.0,13992,25192,25591,36728,47729,0
0.0,0.0,0.0,14036,25241,25540,36690,47675,0
0.0,0.0,0.0,13978,25192,25540,36767,47513,0
0.0,0.0,0.0,13935,25241,25515,36690,47353,0
0.0,0.0,0.0,13921,25192,25490,36614,47246,0
0.0,0.0,0.0,13978,25192,25440,36462,47299,0
0.0,0.0,0.0,14079,25142,25440,36499,47567,0
0.0,0.0,0.0,14079,25192,25415,36462,47675,0
0.0,0.0,0.0,14137,25167,25390,36499,47621,0
0.0,0.0,0.0,14108,25142,25390,36462,47513,0
0.0,0.0,0.0,14108,25192,25390,36652,47567,0
0.0,0.0,0.0,14122,25216,25390,36614,47621,0
0.0,0.0,0.0,14195,25266,25390,36767,48054,0
0.0,0.0,0.0,14282,25291,25415,36728,48108,0
0.0,0.0,0.0,14326,25291,25415,36843,47945,0
0.0,0.0,0.0,14429,25440,25465,36882,47891,0
0.0,0.0,0.0,14444,25490,25440,36843,47891,0
0.0,0.0,0.0,14488,25540,25440,36843,47891,0
0.0,0.0,0.0,14414,25591,25440,36767,47891,0
0.0,0.0,0.0,14311,25666,25440,36843,48000,0
0.0,0.0,0.0,14180,25641,25540,36614,47729,0
0.0,0.0,0.0,14108,25616,25591,36235,47837,0
0.0,0.0,0.0,14079,25616,25540,36160,47729,0
0.0,0.0,0.0,13978,25591,25490,35935,47783,0
0.0,0.0,0.0,13992,25515,25390,35861,47891,0
0.0,0.0,0.0,14108,25490,25390,35972,47729,0
0.0,0.0,0.0,14195,25490,25390,36047,47891,0
0.0,0.0,0.0,14311,25490,25415,36235,47675,0
0.0,0.0,0.0,14503,25540,25440,36462,47675,0
0.0,0.0,0.0,14726,25591,25490,36576,47729,0
0.0,0.0,0.0,14967,25565,25490,36920,47891,0
0.0,0.0,0.0,15089,25641,25490,36998,47891,0
0.0,0.0,0.0,15227,25591,25490,37075,47891,0
0.0,0.0,0.0,14982,25465,25390,36767,47729,0
0.0,0.0,0.0,14967,25465,25440,36728,47729,0
0.0,0.0,0.0,14967,25465,25440,36538,47675,0
0.0,0.0,0.0,14997,25490,25515,36614,47460,0
0.0,0.0,0.0,14982,25440,25515,36614,47460,0
0.0,0.0,0.0,15028,25390,25490,36614,47460,0
0.0,0.0,0.0,14982,25415,25490,36576,47353,0
0.0,0.0,0.0,14982,25390,25490,36614,47299,0
0.0,0.0,0.0,14982,25341,25465,36690,47567,0
0.0,0.0,0.0,14997,25390,25490,36614,47246,0
0.0,0.0,0.0,14982,25316,25490,36614,47406,0
0.0,0.0,0.0,14982,25390,25440,36462,47460,0
0.0,0.0,0.0,14997,25341,25440,36614,47299,0
0.0,0.0,0.0,15028,25390,25440,36538,47246,0
0.0,0.0,0.0,15058,25341,25490,36690,47460,0
0.0,0.0,0.0,15089,25341,25465,36614,47299,0
0.0,0.0,0.0,15089,25341,25440,36538,47246,0
0.0,0.0,0.0,15104,25365,25415,36499,47246,0
0.0,0.0,0.0,15104,25316,25440,36614,47246,0
0.0,0.0,0.0,15119,25316,25390,36462,47246,0
0.0,0.0,0.0,15135,25341,25415,36499,47193,0
0.0,0.0,0.0,15150,25291,25390,36538,47246,0
0.0,0.0,0.0,15150,25291,25390,36614,47034,0
0.0,0.0,0.0,15150,25291,25365,36499,47460,0
0.0,0.0,0.0,15089,25341,25390,36576,47299,0
0.0,0.0,0.0,15288,25591,25515,36614,47246,0
0.0,0.0,0.0,15710,25843,25591,36767,47460,0
0.0,0.0,0.0,15710,25894,25641,36728,47246,0
0.0,0.0,0.0,15521,25793,25691,36499,47140,0
0.0,0.0,0.0,15335,25742,25616,36010,47034,0
0.0,0.0,0.0,15273,25717,25591,35749,47299,0
0.0,0.0,0.0,15242,25641,25490,35602,47567,0
0.0,0.0,0.0,15242,25616,25440,35418,47567,0
0.0,0.0,0.0,15104,25616,25465,35418,47406,0
0.0,0.0,0.0,14907,25515,25390,35309,47246,0
0.0,0.0,0.0,14846,25490,25341,35199,47140,0
0.0,0.0,0.0,14876,25540,25266,35199,47460,0
0.0,0.0,0.0,14786,25440,25241,35163,47675,0
0.0,0.0,0.0,14726,25440,25142,35163,47675,0
0.0,0.0,0.0,14681,25390,25118,34982,47729,0
0.0,0.0,0.0,14607,25341,25093,34874,47460,0
0.0,0.0,0.0,14577,25341,25044,34839,47353,0
0.0,0.0,0.0,14636,25291,24995,34839,47513,0
0.0,0.0,0.0,14726,25341,25019,34910,47353,0
0.0,0.0,0.0,14861,25390,25192,35639,47299,0
0.0,0.0,0.0,14801,25415,25241,35565,47034,0
0.0,0.0,0.0,14846,25341,25192,35602,46876,0
0.0,0.0,0.0,15089,25291,25192,35565,47299,0
0.0,0.0,0.0,15165,25291,25142,35455,47353,0
0.0,0.0,0.0,15089,25266,25142,35382,47246,0
0.0,0.0,0.0,15028,25291,25142,35382,46876,0
0.0,0.0,0.0,15490,25390,25316,35676,47246,0
0.0,0.0,0.0,15647,25390,25341,35861,47246,0
0.0,0.0,0.0,15694,25390,25390,35861,47246,0
0.0,0.0,0.0,15647,25465,25316,35712,47299,0
0.0,0.0,0.0,15647,25440,25316,35712,47299,0
0.0,0.0,0.0,15694,25415,25316,35712,47140,0
0.0,0.0,0.0,15773,25390,25341,35712,47246,0
0.0,0.0,0.0,15805,25415,25291,35749,47140,0
0.0,0.0,0.0,15789,25490,25591,36310,47087,0
0.0,0.0,0.0,15837,25591,25742,36920,47246,0
0.0,0.0,0.0,15916,25666,25843,37075,47246,0
0.0,0.0,0.0,16028,25691,25793,37114,47353,0
0.0,0.0,0.0,16060,25666,25742,37269,47299,0
0.0,0.0,0.0,16206,25591,25793,37386,47246,0
0.0,0.0,0.0,16254,25641,25717,37308,47246,0
0.0,0.0,0.0,16157,25540,25666,37308,47246,0
0.0,0.0,0.0,16109,25540,25591,37230,47140,0
0.0,0.0,0.0,16060,25490,25515,37230,47246,0
0.0,0.0,0.0,16060,25465,25515,37075,47087,0
0.0,0.0,0.0,16028,25465,25440,37036,47087,0
0.0,0.0,0.0,16028,25415,25490,37075,47140,0
0.0,0.0,0.0,15996,25440,25440,36998,47140,0
0.0,0.0,0.0,15996,25440,25415,36959,47087,0
0.0,0.0,0.0,15980,25440,25440,36998,47034,0
0.0,0.0,0.0,15996,25415,25390,36998,46981,0
0.0,0.0,0.0,15980,25390,25390,36959,47087,0
0.0,0.0,0.0,15964,25415,25390,36959,47087,0
0.0,0.0,0.0,15916,25440,25390,36920,46823,0
0.0,0.0,0.0,15964,25390,25365,36959,46928,0
0.0,0.0,0.0,15996,25415,25316,36843,47140,0
0.0,0.0,0.0,15980,25415,25390,36920,46981,0
0.0,0.0,0.0,15916,25390,25316,36614,47140,0
0.0,0.0,0.0,15852,25291,25241,36386,47460,0
0.0,0.0,0.0,15837,25266,25192,36235,47406,0
0.0,0.0,0.0,15773,25291,25192,36235,47299,0
0.0,0.0,0.0,15805,25291,25142,36235,47140,0
0.0,0.0,0.0,15773,25241,25192,36235,47087,0
0.0,0.0,0.0,15789,25192,25192,36197,47140,0
0.0,0.0,0.0,15773,25266,25142,36235,47034,0
0.0,0.0,0.0,15805,25241,25093,36160,47140,0
0.0,0.0,0.0,15773,25241,25142,36160,47087,0
0.0,0.0,0.0,15789,25241,25142,36160,47087,0
0.0,0.0,0.0,15789,25216,25142,36160,47034,0
0.0,0.0,0.0,15773,25241,25192,36160,47087,0
0.0,0.0,0.0,15789,25192,25142,36160,46928,0
0.0,0.0,0.0,15757,25266,25068,36085,46981,0
0.0,0.0,0.0,15773,25241,25093,36122,46981,0
0.0,0.0,0.0,15773,25216,25093,36047,46981,0
0.0,0.0,0.0,15726,25241,25093,36047,46981,0
0.0,0.0,0.0,15710,25192,25142,36047,46876,0
0.0,0.0,0.0,15773,25192,25142,36197,47034,0
0.0,0.0,0.0,15789,25192,25142,36197,47034,0
0.0,0.0,0.0,15710,25216,25142,36160,46823,0
0.0,0.0,0.0,15710,25341,25390,36728,47140,0
0.0,0.0,0.0,15663,25515,25591,36920,46823,0
0.0,0.0,0.0,15726,25691,25818,36959,46718,0
0.0,0.0,0.0,15584,25843,26047,36614,46613,0
0.0,0.0,0.0,15584,25818,25996,35309,46823,0
0.0,0.0,0.0,15584,25691,25843,34767,46823,0
0.0,0.0,0.0,15647,25591,25616,34696,47246,0
0.0,0.0,0.0,15615,25440,25465,35018,47353,0
0.0,0.0,0.0,15710,25440,25440,35127,47299,0
0.0,0.0,0.0,15647,25390,25316,35199,47140,0
0.0,0.0,0.0,15773,25390,25266,35199,47140,0
0.0,0.0,0.0,15900,25390,25241,35418,47193,0
0.0,0.0,0.0,15837,25390,25291,35492,47087,0
0.0,0.0,0.0,15900,25490,25241,35418,47034,0
0.0,0.0,0.0,15837,25390,25241,35418,46928,0
0.0,0.0,0.0,15900,25490,25291,35455,47087,0
0.0,0.0,0.0,15837,25540,25440,35565,47299,0
0.0,0.0,0.0,15741,25641,25591,35712,47353,0
0.0,0.0,0.0,15647,25717,25843,36010,47246,0
0.0,0.0,0.0,15600,25793,25996,36160,47140,0
0.0,0.0,0.0,15568,25920,26150,36386,46928,0
0.0,0.0,0.0,15490,26124,26409,36386,46876,0
0.0,0.0,0.0,15397,26409,26409,36499,46876,0
0.0,0.0,0.0,15366,26513,26461,36348,46718,0
0.0,0.0,0.0,15304,26566,26435,35861,46613,0
0.0,0.0,0.0,15288,26305,26176,35236,46981,0
0.0,0.0,0.0,15273,25996,25691,34624,47513,0
0.0,0.0,0.0,15242,25793,25515,34482,47567,0
0.0,0.0,0.0,15211,25742,25390,34271,47353,0
0.0,0.0,0.0,15211,25742,25291,34482,47353,0
0.0,0.0,0.0,15211,25742,25390,34839,47034,0
0.0,0.0,0.0,15288,25641,25291,34874,46823,0
0.0,0.0,0.0,15366,25616,25192,34910,47034,0
0.0,0.0,0.0,15490,25591,25192,34982,47140,0
0.0,0.0,0.0,15459,25591,25118,35018,46981,0
0.0,0.0,0.0,15397,25540,25216,35163,47087,0
0.0,0.0,0.0,15366,25591,25341,35492,46876,0
0.0,0.0,0.0,15366,25641,25390,35492,46823,0
0.0,0.0,0.0,15584,25641,25316,35236,46666,0
0.0,0.0,0.0,15710,25616,25291,35418,46718,0
0.0,0.0,0.0,15741,25591,25241,35345,46823,0
0.0,0.0,0.0,15584,25540,25291,35418,46718,0
0.0,0.0,0.0,15553,25641,25341,35639,46509,0
0.0,0.0,0.0,15884,25691,25591,36010,46561,0
0.0,0.0,0.0,15916,25666,25717,36085,46613,0
0.0,0.0,0.0,15710,25691,25616,35898,46561,0
0.0,0.0,0.0,15647,25616,25540,35787,46561,0
0.0,0.0,0.0,15789,25641,25515,35787,46561,0
0.0,0.0,0.0,15837,25641,25490,35787,46353,0
0.0,0.0,0.0,15757,25591,25490,35712,46198,0
0.0,0.0,0.0,15726,25591,25440,35639,46249,0
0.0,0.0,0.0,15741,25591,25490,35639,46198,0
0.0,0.0,0.0,15741,25515,25440,35639,46301,0
0.0,0.0,0.0,15475,25490,25390,35565,46405,0
0.0,0.0,0.0,15273,25440,25490,35199,46405,0
0.0,0.0,0.0,15273,25341,25341,34696,46198,0
0.0,0.0,0.0,15506,25192,25142,34412,46613,0
0.0,0.0,0.0,15490,25118,25093,34341,46457,0
0.0,0.0,0.0,15335,25142,25019,34341,46457,0
0.0,0.0,0.0,15242,25192,25044,34412,46457,0
0.0,0.0,0.0,15242,25192,25019,34306,46198,0
0.0,0.0,0.0,15521,25192,25093,34376,46405,0
0.0,0.0,0.0,15584,25142,25044,34518,46249,0
0.0,0.0,0.0,15553,25118,25044,34767,46405,0
0.0,0.0,0.0,15335,25118,24946,34482,46095,0
0.0,0.0,0.0,15242,25093,24848,34341,46043,0
0.0,0.0,0.0,15242,25192,24824,34341,46043,0
0.0,0.0,0.0,15288,25093,24824,34482,46043,0
0.0,0.0,0.0,15428,25044,24702,34874,45941,0
0.0,0.0,0.0,15506,24995,24510,34910,45941,0
0.0,0.0,0.0,15553,24848,24534,35127,45838,0
0.0,0.0,0.0,15490,24799,24582,35163,45787,0
0.0,0.0,0.0,15600,24751,24534,35345,45838,0
0.0,0.0,0.0,15663,24824,24654,35639,45838,0
0.0,0.0,0.0,15726,24848,24751,35898,45685,0
0.0,0.0,0.0,15647,24824,24751,35861,45838,0
0.0,0.0,0.0,15521,24799,24702,35639,45889,0
0.0,0.0,0.0,15521,24727,24702,35639,45992,0
0.0,0.0,0.0,15584,24995,24751,35712,45941,0
0.0,0.0,0.0,15837,25192,24799,35712,45838,0
0.0,0.0,0.0,15710,25167,24799,35639,45787,0
0.0,0.0,0.0,15600,25093,24727,35565,45685,0
0.0,0.0,0.0,15789,25241,24751,35492,45736,0
0.0,0.0,0.0,16417,25591,24897,35712,45787,0
0.0,0.0,0.0,16189,25440,24848,35492,45736,0
0.0,0.0,0.0,15773,25241,24751,35309,45635,0
0.0,0.0,0.0,15678,25118,24727,35199,45635,0
0.0,0.0,0.0,15726,25192,24727,35163,45635,0
0.0,0.0,0.0,16109,25641,24824,35345,45635,0
0.0,0.0,0.0,16157,25591,24873,35345,45533,0
0.0,0.0,0.0,16060,25490,24824,35272,45584,0
0.0,0.0,0.0,15789,25291,24799,35091,45483,0
0.0,0.0,0.0,15741,25192,24799,35055,45483,0
0.0,0.0,0.0,15678,25192,24751,34982,45685,0
0.0,0.0,0.0,15710,25192,24751,34874,45584,0
0.0,0.0,0.0,15773,25241,24799,34910,45584,0
0.0,0.0,0.0,15773,25291,24751,34910,45483,0
0.0,0.0,0.0,15678,25241,24727,34946,45483,0
0.0,0.0,0.0,15600,25167,24775,34946,45584,0
0.0,0.0,0.0,15584,25167,24799,34982,45483,0
0.0,0.0,0.0,15506,25142,24751,34910,45483,0
0.0,0.0,0.0,15521,25192,24824,34946,45483,0
0.0,0.0,0.0,15584,25216,24799,34910,45432,0
0.0,0.0,0.0,15710,25192,24848,34982,45382,0
0.0,0.0,0.0,15757,25192,24799,34874,45181,0
0.0,0.0,0.0,15615,25044,24799,34660,45081,0
0.0,0.0,0.0,15553,24970,24727,34553,45081,0
0.0,0.0,0.0,15459,24946,24654,34482,44981,0
0.0,0.0,0.0,15521,24946,24606,34624,45382,0
0.0,0.0,0.0,15521,24897,24534,34482,45382,0
0.0,0.0,0.0,15428,24848,24534,34447,45181,0
0.0,0.0,0.0,15335,24897,24582,34376,45081,0
0.0,0.0,0.0,15537,24946,24558,34553,45081,0
0.0,0.0,0.0,15663,24946,24606,34660,45181,0
0.0,0.0,0.0,15553,24946,24582,34624,45081,0
0.0,0.0,0.0,15459,24873,24582,34696,45131,0
0.0,0.0,0.0,15397,24995,24534,34982,45131,0
0.0,0.0,0.0,15428,24995,24606,34946,44881,0
0.0,0.0,0.0,15726,25167,24606,35091,44981,0
0.0,0.0,0.0,15741,25192,24606,35055,44881,0
0.0,0.0,0.0,15521,25192,24654,34982,44881,0
0.0,0.0,0.0,15366,24970,24702,35018,44881,0
0.0,0.0,0.0,15366,24946,24654,35163,44981,0
0.0,0.0,0.0,15490,24897,24702,35418,45231,0
0.0,0.0,0.0,15459,24897,24654,35345,45281,0
0.0,0.0,0.0,15350,24799,24606,35199,45081,0
0.0,0.0,0.0,15242,24799,24510,35272,45131,0
0.0,0.0,0.0,15211,24799,24462,35382,44881,0
0.0,0.0,0.0,15366,24799,24558,35749,44782,0
0.0,0.0,0.0,15663,24848,24775,36122,44881,0
0.0,0.0,0.0,15678,24824,24799,36235,44981,0
0.0,0.0,0.0,15459,24775,24727,36160,44881,0
0.0,0.0,0.0,15350,24678,24654,36010,44832,0
0.0,0.0,0.0,15211,24702,24606,35861,44832,0
0.0,0.0,0.0,15227,24799,24582,35749,44733,0
0.0,0.0,0.0,15663,25241,24654,35712,44634,0
0.0,0.0,0.0,15741,25291,24606,35749,44585,0
0.0,0.0,0.0,15521,25291,24702,35639,44634,0
0.0,0.0,0.0,15397,25291,24702,35018,44487,0
0.0,0.0,0.0,15459,25142,24606,34874,44340,0
0.0,0.0,0.0,15773,25291,24630,34839,44487,0
0.0,0.0,0.0,15694,25241,24606,34767,44536,0
0.0,0.0,0.0,15258,24873,24510,34518,44438,0
0.0,0.0,0.0,15227,24848,24510,34341,44438,0
0.0,0.0,0.0,15258,24848,24438,34341,44733,0
0.0,0.0,0.0,15335,24799,24414,34341,45331,0
0.0,0.0,0.0,15288,24799,24366,34165,45635,0
0.0,0.0,0.0,15273,24799,24318,34130,45787,0
0.0,0.0,0.0,15211,24727,24271,33991,45584,0
0.0,0.0,0.0,15165,24702,24223,33887,45584,0
0.0,0.0,0.0,15150,24702,24176,33817,45533,0
0.0,0.0,0.0,15211,24702,24223,34026,45483,0
0.0,0.0,0.0,15335,24751,24223,34200,45584,0
0.0,0.0,0.0,15304,24702,24223,34553,45432,0
0.0,0.0,0.0,15196,24678,24152,34412,45081,0
0.0,0.0,0.0,15119,24702,24129,34553,44981,0
0.0,0.0,0.0,15181,24702,24105,34553,44881,0
0.0,0.0,0.0,15211,24606,24129,34412,45382,0
0.0,0.0,0.0,15181,24606,24176,34095,45736,0
0.0,0.0,0.0,15135,24606,24034,33852,45685,0
0.0,0.0,0.0,15058,24582,24034,33748,45635,0
0.0,0.0,0.0,15043,24582,24034,34026,45281,0
0.0,0.0,0.0,15058,24582,24081,34095,45031,0
0.0,0.0,0.0,15150,24582,24034,34130,44981,0
0.0,0.0,0.0,15150,24558,23987,33852,45181,0
0.0,0.0,0.0,15150,24486,23964,33714,45382,0
0.0,0.0,0.0,15089,24486,23894,33611,45432,0
0.0,0.0,0.0,15058,24510,23847,33508,45432,0
0.0,0.0,0.0,15028,24414,23894,33371,45432,0
0.0,0.0,0.0,15058,24414,23847,33371,45331,0
0.0,0.0,0.0,15211,24534,24034,34060,45231,0
0.0,0.0,0.0,15397,24702,24199,34482,44981,0
0.0,0.0,0.0,15663,24824,24223,34731,44931,0
0.0,0.0,0.0,15773,24897,24342,34839,44782,0
0.0,0.0,0.0,15852,24995,24414,35163,44683,0
0.0,0.0,0.0,15773,24848,24414,35163,44782,0
0.0,0.0,0.0,15726,24799,24390,35345,44782,0
0.0,0.0,0.0,15773,24751,24462,35639,44782,0
0.0,0.0,0.0,15710,24630,24462,35639,44782,0
0.0,0.0,0.0,15615,24534,24366,35565,44782,0
0.0,0.0,0.0,15475,24438,24366,35676,44782,0
0.0,0.0,0.0,15350,24390,24318,35565,44881,0
0.0,0.0,0.0,15165,24342,24271,35492,44782,0
0.0,0.0,0.0,15058,24247,24271,35127,44931,0
0.0,0.0,0.0,15028,24271,24247,34839,45181,0
0.0,0.0,0.0,15028,24271,24223,34553,45432,0
0.0,0.0,0.0,15028,24271,24176,34447,45181,0
0.0,0.0,0.0,15028,24247,24223,34553,45181,0
0.0,0.0,0.0,15058,24271,24271,34982,44881,0
0.0,0.0,0.0,14967,24366,24271,35127,44585,0
0.0,0.0,0.0,15028,24366,24271,35127,44585,0
0.0,0.0,0.0,14967,24414,24294,35199,44634,0
0.0,0.0,0.0,14997,24462,24318,35345,44634,0
0.0,0.0,0.0,14967,24510,24318,35345,44634,0
0.0,0.0,0.0,14997,24510,24342,35345,44585,0
0.0,0.0,0.0,14982,24558,24318,35382,44438,0
0.0,0.0,0.0,15028,24606,24366,35492,44291,0
0.0,0.0,0.0,14967,24534,24342,35418,44193,0
0.0,0.0,0.0,14967,24510,24271,35127,44291,0
0.0,0.0,0.0,14967,24414,24247,35127,44242,0
0.0,0.0,0.0,14982,24414,24176,34982,44193,0
0.0,0.0,0.0,14967,24318,24129,34696,44340,0
0.0,0.0,0.0,14907,24247,24081,34624,44389,0
0.0,0.0,0.0,14907,24271,24081,34553,44242,0
0.0,0.0,0.0,14876,24271,24034,34447,44096,0
0.0,0.0,0.0,14907,24271,24081,34553,44291,0
0.0,0.0,0.0,14907,24318,24058,34553,44242,0
0.0,0.0,0.0,14907,24414,24152,34696,44193,0
0.0,0.0,0.0,14907,24606,24318,34839,44242,0
0.0,0.0,0.0,14876,24606,24414,34982,44193,0
0.0,0.0,0.0,14907,24751,24438,34767,44048,0
0.0,0.0,0.0,15058,24751,24510,34839,44096,0
0.0,0.0,0.0,15043,24799,24486,34803,44145,0
0.0,0.0,0.0,14967,24702,24462,34696,44000,0
0.0,0.0,0.0,14922,24678,24486,34624,44096,0
0.0,0.0,0.0,14937,24654,24654,34767,44096,0
0.0,0.0,0.0,15119,24630,24727,34839,44193,0
0.0,0.0,0.0,15028,24630,24678,34767,44193,0
0.0,0.0,0.0,14846,24654,24751,34731,44000,0
0.0,0.0,0.0,14771,24654,24727,34412,43855,0
0.0,0.0,0.0,14846,24702,24654,34306,43903,0
0.0,0.0,0.0,15150,24799,24606,34306,43951,0
0.0,0.0,0.0,15459,24995,24799,34341,44145,0
0.0,0.0,0.0,15553,25019,24824,34553,44048,0
0.0,0.0,0.0,15600,25044,24824,34696,44193,0
0.0,0.0,0.0,15521,25044,24702,34624,44048,0
0.0,0.0,0.0,15521,24995,24702,34553,43807,0
0.0,0.0,0.0,15459,24995,24702,34553,43903,0
0.0,0.0,0.0,15459,24946,24630,34412,43807,0
0.0,0.0,0.0,15521,24946,24558,34412,43807,0
0.0,0.0,0.0,15553,24824,24534,34696,43855,0
0.0,0.0,0.0,15537,24654,24510,34874,43807,0
0.0,0.0,0.0,15521,24510,24366,34982,44000,0
0.0,0.0,0.0,15490,24462,24342,34982,44145,0
0.0,0.0,0.0,15475,24438,24294,34982,44340,0
0.0,0.0,0.0,15459,24342,24223,34839,44487,0
0.0,0.0,0.0,15459,24342,24152,34553,44585,0
0.0,0.0,0.0,15521,24318,24152,34589,44487,0
0.0,0.0,0.0,15412,24294,24129,34376,44536,0
0.0,0.0,0.0,15366,24318,24081,34341,44291,0
0.0,0.0,0.0,15366,24318,24058,34341,44340,0
0.0,0.0,0.0,15273,24342,24034,34271,44096,0
0.0,0.0,0.0,15506,24630,24081,34341,44193,0
0.0,0.0,0.0,15916,24897,24318,34696,44291,0
0.0,0.0,0.0,16028,24946,24342,34696,44340,0
0.0,0.0,0.0,15916,24848,24271,34447,44145,0
0.0,0.0,0.0,15584,24799,24294,34060,44389,0
0.0,0.0,0.0,15459,24678,24294,33783,44487,0
0.0,0.0,0.0,15553,24630,24247,33611,44733,0
0.0,0.0,0.0,15397,24606,24223,33508,44733,0
0.0,0.0,0.0,15366,24606,24223,33405,44782,0
0.0,0.0,0.0,15273,24510,24129,33303,44634,0
0.0,0.0,0.0,15242,24534,24129,33303,44634,0
0.0,0.0,0.0,15242,24486,24129,33303,44585,0
0.0,0.0,0.0,15211,24510,24176,33371,44585,0
0.0,0.0,0.0,15211,24534,24223,33748,44389,0
0.0,0.0,0.0,15165,24558,24223,33921,44048,0
0.0,0.0,0.0,15211,24510,24176,33783,44048,0
0.0,0.0,0.0,15273,24510,24129,33611,44096,0
0.0,0.0,0.0,15227,24462,24058,33439,44389,0
0.0,0.0,0.0,15181,24414,24034,33202,44242,0
0.0,0.0,0.0,15089,24318,23987,33168,44242,0
0.0,0.0,0.0,15089,24366,24034,33269,44291,0
0.0,0.0,0.0,15089,24366,23987,33202,44340,0
0.0,0.0,0.0,15104,24318,24011,33611,44438,0
0.0,0.0,0.0,15150,24271,23870,33852,44291,0
0.0,0.0,0.0,15104,24223,23777,33852,44193,0
0.0,0.0,0.0,15181,24152,23800,33991,44048,0
0.0,0.0,0.0,15211,24223,23800,34200,44048,0
0.0,0.0,0.0,15273,24129,23870,34447,44048,0
0.0,0.0,0.0,15273,24176,23964,34589,44048,0
0.0,0.0,0.0,15181,24129,23940,34589,43855,0
0.0,0.0,0.0,15211,24176,23940,34624,43807,0
0.0,0.0,0.0,15304,24081,24034,34839,43759,0
0.0,0.0,0.0,15397,24176,24034,34982,43711,0
0.0,0.0,0.0,15227,23987,23940,34767,43807,0
0.0,0.0,0.0,15135,24081,23847,34803,43855,0
0.0,0.0,0.0,15089,24105,23800,34731,43663,0
0.0,0.0,0.0,15288,24129,23894,34874,43663,0
0.0,0.0,0.0,15397,24247,23894,34946,43615,0
0.0,0.0,0.0,15242,24105,23894,34731,43615,0
0.0,0.0,0.0,15089,24105,23847,34589,43615,0
0.0,0.0,0.0,14997,24081,23847,34271,43519,0
0.0,0.0,0.0,15074,24105,23800,34271,43519,0
0.0,0.0,0.0,15397,24152,23870,34376,43711,0
0.0,0.0,0.0,15273,24081,23870,34271,44291,0
0.0,0.0,0.0,15150,24034,23754,34026,44389,0
0.0,0.0,0.0,15028,23940,23777,33714,44585,0
0.0,0.0,0.0,15043,23894,23754,33645,44389,0
0.0,0.0,0.0,15074,23894,23754,33714,44242,0
0.0,0.0,0.0,15211,24081,23824,34200,44048,0
0.0,0.0,0.0,15412,24414,23870,34696,43663,0
0.0,0.0,0.0,15521,24534,23940,34482,43759,0
0.0,0.0,0.0,15631,24654,24011,34341,43807,0
0.0,0.0,0.0,15710,24678,24081,34235,43711,0
0.0,0.0,0.0,15663,24606,24081,34200,43567,0
0.0,0.0,0.0,15584,24654,23987,34130,43615,0
0.0,0.0,0.0,15397,24462,23987,33991,43472,0
0.0,0.0,0.0,15288,24414,23987,33956,43472,0
0.0,0.0,0.0,15273,24414,24058,33956,43615,0
0.0,0.0,0.0,15366,24462,24081,33991,43711,0
0.0,0.0,0.0,15459,24462,24081,34026,43615,0
0.0,0.0,0.0,15584,24606,24176,34026,43615,0
0.0,0.0,0.0,15490,24534,24176,34026,43567,0
0.0,0.0,0.0,15335,24414,24152,33852,43519,0
0.0,0.0,0.0,15165,24176,24081,33748,43235,0
0.0,0.0,0.0,15211,24152,24058,33645,43615,0
0.0,0.0,0.0,15490,24366,24129,33714,43807,0
0.0,0.0,0.0,15537,24366,24129,33748,43711,0
0.0,0.0,0.0,15366,24366,24081,33611,43711,0
0.0,0.0,0.0,15089,24176,24034,33168,43615,0
0.0,0.0,0.0,15089,24176,23964,33100,43519,0
0.0,0.0,0.0,15521,24294,24034,33337,43424,0
0.0,0.0,0.0,15600,24247,24034,33405,43424,0
0.0,0.0,0.0,15350,24176,23987,33303,43472,0
0.0,0.0,0.0,15150,24058,23870,33134,43235,0
0.0,0.0,0.0,14861,24034,23661,32832,43329,0
0.0,0.0,0.0,14907,23987,23477,32500,43567,0
0.0,0.0,0.0,15273,24129,23522,32533,44389,0
0.0,0.0,0.0,15288,24129,23522,32699,44585,0
0.0,0.0,0.0,15227,24058,23477,32599,44487,0
0.0,0.0,0.0,15242,24058,23477,32633,44487,0
0.0,0.0,0.0,15196,24034,23454,32533,44585,0
0.0,0.0,0.0,15242,24011,23569,32966,44048,0
0.0,0.0,0.0,15273,24058,23684,33202,43759,0
0.0,0.0,0.0,15397,24081,23707,33168,43711,0
0.0,0.0,0.0,15710,24223,23870,33337,43711,0
0.0,0.0,0.0,15900,24390,23964,33576,43807,0
0.0,0.0,0.0,15900,24366,23964,33542,43903,0
0.0,0.0,0.0,15964,24414,23964,33576,43903,0
0.0,0.0,0.0,15773,24271,23894,33576,43615,0
0.0,0.0,0.0,15537,24129,23847,33405,43615,0
0.0,0.0,0.0,15475,24105,23800,33371,43615,0
0.0,0.0,0.0,15521,24105,23800,33371,43615,0
0.0,0.0,0.0,15490,24129,23754,33303,43663,0
0.0,0.0,0.0,15521,24081,23754,33337,43615,0
0.0,0.0,0.0,15521,24081,23754,33269,43615,0
0.0,0.0,0.0,15553,24058,23777,33439,43519,0
0.0,0.0,0.0,15600,24105,23824,33439,43615,0
0.0,0.0,0.0,15615,24152,23870,33508,43807,0
0.0,0.0,0.0,15521,24152,23847,33439,43567,0
0.0,0.0,0.0,15459,24105,23754,33337,43519,0
0.0,0.0,0.0,15397,24129,23754,33236,43663,0
0.0,0.0,0.0,15459,24058,23754,33303,43615,0
0.0,0.0,0.0,15428,24034,23754,33371,43519,0
0.0,0.0,0.0,15490,24034,23754,33303,43711,0
0.0,0.0,0.0,15615,24105,23847,33474,43615,0
0.0,0.0,0.0,15600,24129,23847,33508,43567,0
0.0,0.0,0.0,15490,24058,23777,33303,43663,0
0.0,0.0,0.0,15366,24129,23847,33303,43807,0
0.0,0.0,0.0,15584,24342,23754,33033,43567,0
0.0,0.0,0.0,16173,24534,23661,32832,43567,0
0.0,0.0,0.0,16352,24606,23754,32699,43951,0
0.0,0.0,0.0,16238,24462,23730,32699,44291,0
0.0,0.0,0.0,16093,24438,23730,32699,44389,0
0.0,0.0,0.0,15964,24318,23707,32666,44340,0
0.0,0.0,0.0,15837,24247,23661,32566,44048,0
0.0,0.0,0.0,15789,24199,23661,32599,43855,0
0.0,0.0,0.0,15757,24176,23661,32633,44048,0
0.0,0.0,0.0,15773,24223,23569,32500,43903,0
0.0,0.0,0.0,15837,24223,23546,32566,43855,0
0.0,0.0,0.0,15900,24176,23638,32599,44000,0
0.0,0.0,0.0,15996,24271,23684,32633,43855,0
0.0,0.0,0.0,16012,24366,23754,32832,43807,0
0.0,0.0,0.0,16028,24438,23800,32932,43807,0
0.0,0.0,0.0,16109,24534,23870,32832,43855,0
0.0,0.0,0.0,16093,24462,23940,32765,43807,0
0.0,0.0,0.0,16157,24510,23964,32566,43615,0
0.0,0.0,0.0,16189,24462,23940,32699,43711,0
0.0,0.0,0.0,16157,24414,23964,32765,43807,0
0.0,0.0,0.0,16109,24366,23940,32699,43711,0
0.0,0.0,0.0,16093,24342,23894,32765,43663,0
0.0,0.0,0.0,16060,24318,23894,32699,43663,0
0.0,0.0,0.0,16028,24318,23894,32732,43711,0
0.0,0.0,0.0,16028,24271,23894,32666,43663,0
0.0,0.0,0.0,15964,24271,23940,32699,43615,0
0.0,0.0,0.0,15900,24271,23894,32633,43615,0
0.0,0.0,0.0,15868,24223,23940,32732,43663,0
0.0,0.0,0.0,15837,24271,23964,32966,43759,0
0.0,0.0,0.0,15837,24223,23964,33202,43615,0
0.0,0.0,0.0,15916,24318,23987,33783,43663,0
0.0,0.0,0.0,15805,24271,23777,33783,44096,0
0.0,0.0,0.0,15757,24176,23684,33748,44389,0
0.0,0.0,0.0,15710,23987,23615,33852,44585,0
0.0,0.0,0.0,15647,23870,23569,33852,44634,0
0.0,0.0,0.0,15600,23894,23431,33991,44389,0
0.0,0.0,0.0,15584,23870,23431,34341,44096,0
0.0,0.0,0.0,15615,23870,23522,34624,43951,0
0.0,0.0,0.0,15584,23800,23592,34874,43807,0
0.0,0.0,0.0,15615,23800,23661,35163,43711,0
0.0,0.0,0.0,15663,23847,23730,35272,43615,0
0.0,0.0,0.0,15647,23940,23800,35345,43615,0
0.0,0.0,0.0,15868,24390,23987,35492,43519,0
0.0,0.0,0.0,16093,24799,24081,35382,43329,0
0.0,0.0,0.0,16173,24848,24129,35272,43235,0
0.0,0.0,0.0,16254,24848,24081,35163,43235,0
0.0,0.0,0.0,16222,24824,24011,34982,43188,0
0.0,0.0,0.0,16189,24799,24034,34910,43046,0
0.0,0.0,0.0,16157,24799,23964,34910,43046,0
0.0,0.0,0.0,16060,24702,23940,34839,43046,0
0.0,0.0,0.0,15980,24606,23894,34696,43000,0
0.0,0.0,0.0,15726,24462,23847,34553,42906,0
0.0,0.0,0.0,15647,24414,23847,34482,42906,0
0.0,0.0,0.0,15428,24342,23894,34447,42859,0
0.0,0.0,0.0,15058,24342,23940,34412,43093,0
0.0,0.0,0.0,14503,24414,23894,34341,43140,0
0.0,0.0,0.0,13849,24438,23940,34165,43140,0
0.0,0.0,0.0,13636,24486,23894,34060,43235,0
0.0,0.0,0.0,13693,24462,23800,33921,43282,0
0.0,0.0,0.0,13778,24342,23730,33679,43519,0
0.0,0.0,0.0,13650,24318,23615,33033,44389,0
0.0,0.0,0.0,13454,24199,23477,32866,44881,0
0.0,0.0,0.0,13412,24176,23431,32765,44931,0
0.0,0.0,0.0,13440,24152,23431,32699,44981,0
0.0,0.0,0.0,13608,24129,23316,32633,45181,0
0.0,0.0,0.0,13735,24034,23248,32799,45081,0
0.0,0.0,0.0,13849,24034,23203,33033,44931,0
0.0,0.0,0.0,14021,24081,23294,33168,44782,0
0.0,0.0,0.0,14122,24105,23294,33371,44683,0
0.0,0.0,0.0,14137,24129,23225,33303,44585,0
0.0,0.0,0.0,14007,24105,23203,33168,44389,0
0.0,0.0,0.0,13863,24034,23203,32999,44291,0
0.0,0.0,0.0,13921,24081,23294,33168,44389,0
0.0,0.0,0.0,13921,24129,23431,33371,44242,0
0.0,0.0,0.0,13921,24176,23477,33474,43807,0
0.0,0.0,0.0,13892,24223,23522,33508,43615,0
0.0,0.0,0.0,13863,24199,23477,33371,43472,0
0.0,0.0,0.0,13863,24152,23454,33269,43424,0
0.0,0.0,0.0,13921,24129,23385,33168,43282,0
0.0,0.0,0.0,13992,24129,23362,33100,43424,0
0.0,0.0,0.0,14180,24081,23294,32966,43519,0
0.0,0.0,0.0,14195,24105,23294,32899,43424,0
0.0,0.0,0.0,14282,24081,23339,32832,43663,0
0.0,0.0,0.0,14370,24105,23431,33033,43807,0
0.0,0.0,0.0,14503,24081,23477,33168,43711,0
0.0,0.0,0.0,14547,24105,23569,33337,43711,0
0.0,0.0,0.0,14681,24129,23661,33576,43807,0
0.0,0.0,0.0,14861,24105,23754,33887,43855,0
0.0,0.0,0.0,15074,24058,23777,34026,43519,0
0.0,0.0,0.0,15058,24034,23800,34271,43615,0
0.0,0.0,0.0,15058,24034,23707,34271,43519,0
0.0,0.0,0.0,15028,23964,23684,34200,43567,0
0.0,0.0,0.0,14907,23964,23661,34130,43519,0
0.0,0.0,0.0,14846,23964,23661,33956,43329,0
0.0,0.0,0.0,14801,23964,23615,33991,43377,0
0.0,0.0,0.0,14711,23940,23569,33817,43235,0
0.0,0.0,0.0,14326,23870,23522,33576,43377,0
0.0,0.0,0.0,14021,23800,23569,33508,43235,0
0.0,0.0,0.0,13935,23800,23454,33371,43140,0
0.0,0.0,0.0,13792,23754,23522,33371,43140,0
0.0,0.0,0.0,13764,23754,23477,33371,43140,0
0.0,0.0,0.0,13650,23707,23431,33337,43046,0
0.0,0.0,0.0,13594,23684,23385,33542,43000,0
0.0,0.0,0.0,13594,23615,23294,33576,43046,0
0.0,0.0,0.0,13650,23684,23203,33508,42953,0
0.0,0.0,0.0,13665,23661,23157,33508,42859,0
0.0,0.0,0.0,13721,23638,23112,33439,42906,0
0.0,0.0,0.0,13792,23661,23090,33371,42953,0
0.0,0.0,0.0,13821,23684,23180,33303,43046,0
0.0,0.0,0.0,13821,23824,23385,33371,43519,0
0.0,0.0,0.0,13849,23847,23592,33236,43711,0
0.0,0.0,0.0,13906,23894,23707,33168,43711,0
0.0,0.0,0.0,13892,23870,23661,32966,43615,0
0.0,0.0,0.0,13964,23870,23661,32866,43807,0
0.0,0.0,0.0,14137,23940,23661,32765,43472,0
0.0,0.0,0.0,13978,23894,23638,32765,43615,0
0.0,0.0,0.0,13707,23964,23522,32533,43519,0
0.0,0.0,0.0,13665,23894,23477,32435,43472,0
0.0,0.0,0.0,13679,23917,23385,32238,43711,0
0.0,0.0,0.0,13679,23870,23339,32173,43807,0
0.0,0.0,0.0,13650,23847,23316,32043,43663,0
0.0,0.0,0.0,13679,23870,23339,32108,43567,0
0.0,0.0,0.0,13650,23847,23339,32271,43615,0
0.0,0.0,0.0,13650,23800,23339,32271,43615,0
0.0,0.0,0.0,13679,23894,23339,32238,43424,0
0.0,0.0,0.0,13806,23870,23477,32899,43472,0
0.0,0.0,0.0,14209,23894,23569,33748,43472,0
0.0,0.0,0.0,14414,23894,23569,33991,43377,0
0.0,0.0,0.0,14444,23894,23546,34130,43282,0
0.0,0.0,0.0,14444,23847,23499,34271,43424,0
0.0,0.0,0.0,14370,23847,23522,34200,43282,0
0.0,0.0,0.0,14326,23754,23477,34341,43235,0
0.0,0.0,0.0,14253,23777,23477,34235,43000,0
0.0,0.0,0.0,14253,23800,23477,34271,43140,0
0.0,0.0,0.0,14166,23800,23454,34165,43140,0
0.0,0.0,0.0,14137,23800,23408,34095,43188,0
0.0,0.0,0.0,14036,23847,23385,34130,43046,0
0.0,0.0,0.0,14050,23894,23431,34026,43140,0
0.0,0.0,0.0,14137,23987,23385,34060,42953,0
0.0,0.0,0.0,14195,24034,23316,33991,42906,0
0.0,0.0,0.0,14268,24034,23385,33991,42906,0
0.0,0.0,0.0,14444,24176,23385,34026,42953,0
0.0,0.0,0.0,14562,24294,23316,33991,42953,0
0.0,0.0,0.0,14547,24294,23431,33921,42859,0
0.0,0.0,0.0,14636,24414,23522,33714,42906,0
0.0,0.0,0.0,14577,24271,23569,33405,43235,0
0.0,0.0,0.0,14503,24223,23661,33202,43235,0
0.0,0.0,0.0,14488,24199,23707,33033,43424,0
0.0,0.0,0.0,14429,24129,23684,33033,43663,0
0.0,0.0,0.0,14370,24081,23730,33033,43615,0
0.0,0.0,0.0,14385,24129,23754,33067,43472,0
0.0,0.0,0.0,14370,24129,23847,33269,43424,0
0.0,0.0,0.0,14326,24081,23894,33337,43424,0
0.0,0.0,0.0,14282,24058,23894,33371,43377,0
0.0,0.0,0.0,14195,24058,23894,33337,43188,0
0.0,0.0,0.0,14166,23987,23894,33303,43140,0
0.0,0.0,0.0,14209,24034,23940,33236,43140,0
0.0,0.0,0.0,14429,24058,23940,33202,43235,0
0.0,0.0,0.0,14547,24081,23940,33168,43235,0
0.0,0.0,0.0,14577,24176,23894,33100,43235,0
0.0,0.0,0.0,14547,24176,23940,33168,43140,0
0.0,0.0,0.0,14385,24176,23894,33033,43046,0
0.0,0.0,0.0,14311,24034,23894,33067,42953,0
0.0,0.0,0.0,14224,24081,23894,33033,43046,0
0.0,0.0,0.0,14253,24034,23940,33033,43000,0
0.0,0.0,0.0,14326,24011,23894,33100,42953,0
0.0,0.0,0.0,14547,24058,23987,33576,42953,0
0.0,0.0,0.0,14607,24058,23800,33783,42906,0
0.0,0.0,0.0,14696,24058,23754,33852,42906,0
0.0,0.0,0.0,14726,24081,23707,33991,42859,0
0.0,0.0,0.0,14726,24011,23707,34130,42906,0
0.0,0.0,0.0,14666,23987,23661,34200,42859,0
0.0,0.0,0.0,14607,23940,23615,34200,42719,0
0.0,0.0,0.0,14607,23894,23615,34235,42812,0
0.0,0.0,0.0,14607,23847,23615,34271,42673,0
0.0,0.0,0.0,14547,23847,23546,34200,42719,0
0.0,0.0,0.0,14547,23847,23546,34271,42719,0
0.0,0.0,0.0,14518,23964,23569,34412,42673,0
0.0,0.0,0.0,14607,24176,23661,34341,42812,0
0.0,0.0,0.0,14771,24342,23707,34271,42719,0
0.0,0.0,0.0,14861,24462,23847,33887,42719,0
0.0,0.0,0.0,15028,24486,23940,33542,42812,0
0.0,0.0,0.0,15165,24414,23847,33236,42859,0
0.0,0.0,0.0,15288,24390,23754,33168,42673,0
0.0,0.0,0.0,15412,24366,23661,33168,42580,0
0.0,0.0,0.0,15366,24271,23499,33405,42719,0
0.0,0.0,0.0,15227,24081,23431,33611,42906,0
0.0,0.0,0.0,15013,23847,23339,33439,42859,0
0.0,0.0,0.0,14876,23754,23248,33303,42859,0
0.0,0.0,0.0,14801,23777,23203,33303,42859,0
0.0,0.0,0.0,14756,23661,23203,33236,42859,0
0.0,0.0,0.0,14681,23661,23157,33202,42859,0
0.0,0.0,0.0,14607,23615,23112,33134,42766,0
0.0,0.0,0.0,14503,23546,23044,33168,42766,0
0.0,0.0,0.0,14488,23615,23044,33168,42812,0
0.0,0.0,0.0,14488,23522,23112,33168,42906,0
0.0,0.0,0.0,14399,23499,23090,33067,42906,0
0.0,0.0,0.0,14399,23592,23112,33033,43235,0
0.0,0.0,0.0,14429,23730,23248,33033,43282,0
0.0,0.0,0.0,14518,24034,23385,32832,43472,0
0.0,0.0,0.0,14607,24176,23477,32832,43519,0
0.0,0.0,0.0,14801,24438,23615,32899,43903,0
0.0,0.0,0.0,14786,24510,23707,33337,43663,0
0.0,0.0,0.0,15028,24630,24058,33991,43093,0
0.0,0.0,0.0,14997,24727,24034,34060,43046,0
0.0,0.0,0.0,15028,24630,24081,34271,42812,0
0.0,0.0,0.0,15089,24654,24129,33921,42766,0
0.0,0.0,0.0,15043,24534,24011,33852,42673,0
0.0,0.0,0.0,15013,24462,23847,33783,42859,0
0.0,0.0,0.0,14967,24414,23800,33645,42906,0
0.0,0.0,0.0,14937,24366,23800,33645,42719,0
0.0,0.0,0.0,14907,24318,23754,33542,42906,0
0.0,0.0,0.0,14861,24271,23661,33508,42859,0
0.0,0.0,0.0,14861,24223,23684,33508,42812,0
0.0,0.0,0.0,14831,24176,23661,33439,42766,0
0.0,0.0,0.0,14831,24223,23615,33337,42719,0
0.0,0.0,0.0,14846,24152,23592,33405,42766,0
0.0,0.0,0.0,14846,24129,23592,33236,42719,0
0.0,0.0,0.0,14831,24129,23522,33303,42766,0
0.0,0.0,0.0,14786,24081,23569,33371,42766,0
0.0,0.0,0.0,14786,24105,23499,33371,42766,0
0.0,0.0,0.0,14756,24058,23522,33337,42719,0
0.0,0.0,0.0,14756,24034,23522,33303,42673,0
0.0,0.0,0.0,14726,24081,23522,33303,42719,0
0.0,0.0,0.0,14741,24011,23499,33236,42626,0
0.0,0.0,0.0,14726,23964,23477,33269,42673,0
0.0,0.0,0.0,14726,23964,23454,33303,42673,0
0.0,0.0,0.0,14756,23940,23477,33371,42859,0
0.0,0.0,0.0,14741,23964,23477,33303,42859,0
0.0,0.0,0.0,14846,24034,23477,33269,42812,0
0.0,0.0,0.0,14891,24034,23499,33508,42673,0
0.0,0.0,0.0,14907,24129,23499,33576,42534,0
0.0,0.0,0.0,14967,24176,23522,33817,42580,0
0.0,0.0,0.0,14982,24223,23569,33783,42488,0
0.0,0.0,0.0,14937,24129,23522,33817,42258,0
0.0,0.0,0.0,14907,24105,23522,33783,42258,0
0.0,0.0,0.0,14922,24081,23499,33645,42166,0
0.0,0.0,0.0,14922,23987,23477,33576,42304,0
0.0,0.0,0.0,14876,24034,23431,33542,42258,0
0.0,0.0,0.0,14846,23940,23431,33371,42258,0
0.0,0.0,0.0,14741,23940,23385,33100,42395,0
0.0,0.0,0.0,14726,23894,23316,32832,42719,0
0.0,0.0,0.0,14666,23847,23316,32699,43046,0
0.0,0.0,0.0,14666,23894,23248,32533,43235,0
0.0,0.0,0.0,14636,23870,23294,32435,43235,0
0.0,0.0,0.0,14666,23800,23225,32369,43235,0
0.0,0.0,0.0,14666,23754,23203,32467,42953,0
0.0,0.0,0.0,14636,23847,23225,32633,42859,0
0.0,0.0,0.0,14577,23870,23294,32866,42719,0
0.0,0.0,0.0,14444,23917,23294,32966,42580,0
0.0,0.0,0.0,14429,23894,23316,32966,42442,0
0.0,0.0,0.0,14444,23917,23294,32765,42580,0
0.0,0.0,0.0,14429,23870,23271,32533,42626,0
0.0,0.0,0.0,14444,23870,23203,32435,42580,0
0.0,0.0,0.0,14429,23847,23225,32369,42580,0
0.0,0.0,0.0,14429,23800,23203,32303,42626,0
0.0,0.0,0.0,14385,23847,23225,32435,42488,0
0.0,0.0,0.0,14326,23917,23294,32765,42212,0
0.0,0.0,0.0,14370,24034,23248,32765,42029,0
0.0,0.0,0.0,14577,24034,23225,32666,42120,0
0.0,0.0,0.0,14846,24034,23248,32633,42395,0
0.0,0.0,0.0,14891,24058,23225,32566,42304,0
0.0,0.0,0.0,14861,24129,23294,32899,42166,0
0.0,0.0,0.0,14846,24294,23477,33508,42304,0
0.0,0.0,0.0,14997,24318,23522,32999,42304,0
0.0,0.0,0.0,15043,24223,23477,32205,42906,0
0.0,0.0,0.0,14997,24129,23431,32010,43424,0
0.0,0.0,0.0,14891,24034,23385,32043,43424,0
0.0,0.0,0.0,14846,23964,23362,32010,43329,0
0.0,0.0,0.0,14786,23987,23294,32108,43282,0
0.0,0.0,0.0,14607,23870,23294,32271,42766,0
0.0,0.0,0.0,14399,23940,23431,32866,42395,0
0.0,0.0,0.0,14385,23987,23362,32765,42349,0
0.0,0.0,0.0,14547,24034,23339,32566,42534,0
0.0,0.0,0.0,14666,24081,23431,32435,42953,0
0.0,0.0,0.0,14967,24223,23569,32765,42766,0
0.0,0.0,0.0,15074,24318,23707,33202,42580,0
0.0,0.0,0.0,15089,24366,23847,33439,42075,0
0.0,0.0,0.0,15089,24366,23940,33714,42075,0
0.0,0.0,0.0,15058,24414,23940,33611,41938,0
0.0,0.0,0.0,15089,24414,23940,33576,41893,0
0.0,0.0,0.0,15181,24342,23940,33576,41938,0
0.0,0.0,0.0,15288,24438,23894,33645,42075,0
0.0,0.0,0.0,15273,24129,23754,33611,42120,0
0.0,0.0,0.0,15273,23987,23592,33576,42120,0
0.0,0.0,0.0,15273,23894,23499,33508,42304,0
0.0,0.0,0.0,15288,23847,23477,33508,42120,0
0.0,0.0,0.0,15242,23800,23431,33439,42166,0
0.0,0.0,0.0,15119,23754,23294,33168,42488,0
0.0,0.0,0.0,14861,23684,23339,32832,42719,0
0.0,0.0,0.0,14786,23661,23385,32533,43000,0
0.0,0.0,0.0,14666,23615,23362,32303,43046,0
0.0,0.0,0.0,14607,23615,23316,32108,43000,0
0.0,0.0,0.0,14547,23592,23294,32108,43046,0
0.0,0.0,0.0,14518,23569,23271,32140,43140,0
0.0,0.0,0.0,14458,23569,23203,32043,43235,0
0.0,0.0,0.0,14385,23522,23157,31978,43140,0
0.0,0.0,0.0,14311,23546,23203,31913,43093,0
0.0,0.0,0.0,14297,23615,23180,32043,42859,0
0.0,0.0,0.0,14370,23730,23225,32140,42859,0
0.0,0.0,0.0,14429,23707,23203,32173,42859,0
0.0,0.0,0.0,14547,23754,23294,32566,42812,0
0.0,0.0,0.0,14786,23777,23499,33303,42719,0
0.0,0.0,0.0,15028,23870,23592,33576,42673,0
0.0,0.0,0.0,15119,23754,23522,33645,42488,0
0.0,0.0,0.0,15196,23800,23522,33714,42580,0
0.0,0.0,0.0,15211,23754,23477,33783,42534,0
0.0,0.0,0.0,15150,23754,23431,33714,42488,0
0.0,0.0,0.0,15104,23707,23454,33852,42349,0
0.0,0.0,0.0,15058,23777,23431,33887,42212,0
0.0,0.0,0.0,15089,23870,23477,33921,42349,0
0.0,0.0,0.0,15058,23940,23522,33852,42212,0
0.0,0.0,0.0,15058,23964,23477,33783,42395,0
0.0,0.0,0.0,14982,23917,23431,33714,42304,0
0.0,0.0,0.0,14967,23940,23477,33611,42304,0
0.0,0.0,0.0,14952,23987,23431,33576,42304,0
0.0,0.0,0.0,14952,24081,23431,33508,42304,0
0.0,0.0,0.0,14937,24081,23431,33236,42395,0
0.0,0.0,0.0,14907,24152,23431,33067,42166,0
0.0,0.0,0.0,14846,24129,23431,33100,42304,0
0.0,0.0,0.0,14967,24129,23522,33033,42488,0
0.0,0.0,0.0,15119,24034,23569,33100,42719,0
0.0,0.0,0.0,15119,24058,23569,33033,42719,0
0.0,0.0,0.0,15028,24034,23569,32866,42580,0
0.0,0.0,0.0,14982,24058,23592,33033,42580,0
0.0,0.0,0.0,14907,24129,23661,33168,42488,0
0.0,0.0,0.0,14861,24129,23615,33303,42488,0
0.0,0.0,0.0,14846,24129,23684,33371,42534,0
0.0,0.0,0.0,14816,24176,23730,33439,42580,0
0.0,0.0,0.0,14786,24129,23707,33508,42488,0
0.0,0.0,0.0,14801,24129,23684,33508,42442,0
0.0,0.0,0.0,14786,24081,23754,33474,42488,0
0.0,0.0,0.0,14801,24105,23707,33439,42395,0
0.0,0.0,0.0,14786,24129,23707,33474,42488,0
0.0,0.0,0.0,14801,24058,23684,33439,42395,0
0.0,0.0,0.0,14801,24129,23661,33439,42349,0
