GyroX,GyroY,GyroZ,Thumb,Index,Middle,Ring,Pinky,Gesture
0.0,0.0,0.0,14385,10963,34874,39036,29865,2
0.0,0.0,0.0,14429,10927,34731,38871,29805,2
0.0,0.0,0.0,14370,10939,34696,38871,29865,2
0.0,0.0,0.0,14370,10939,34553,38707,29805,2
0.0,0.0,0.0,14370,10963,34412,38544,29746,2
0.0,0.0,0.0,14326,10975,34341,38585,29805,2
0.0,0.0,0.0,14370,11060,34341,38625,29509,2
0.0,0.0,0.0,14399,11109,34341,38585,28955,2
0.0,0.0,0.0,14458,11133,34306,38707,27581,2
0.0,0.0,0.0,14666,11084,34165,39244,28077,2
0.0,0.0,0.0,14696,11109,34130,38912,28783,2
0.0,0.0,0.0,14681,11109,34130,38666,28697,2
0.0,0.0,0.0,14636,11109,34060,38666,28470,2
0.0,0.0,0.0,14666,11109,34165,38463,29274,2
0.0,0.0,0.0,14651,11072,34130,37781,29538,2
0.0,0.0,0.0,14666,11109,34130,36998,30408,2
0.0,0.0,0.0,14681,11109,34200,36690,31529,2
0.0,0.0,0.0,14726,11084,34095,36462,31402,2
0.0,0.0,0.0,14786,11109,34130,36010,32075,2
0.0,0.0,0.0,14786,11121,34130,35528,32633,2
0.0,0.0,0.0,14861,11121,34200,35018,33337,2
0.0,0.0,0.0,14922,11109,34200,34447,34026,2
0.0,0.0,0.0,14922,11109,34130,34060,35127,2
0.0,0.0,0.0,14876,11109,34060,34130,36235,2
0.0,0.0,0.0,14846,11109,34026,34200,36310,2
0.0,0.0,0.0,14846,11109,34026,34200,36235,2
0.0,0.0,0.0,14861,11121,33991,34306,36197,2
0.0,0.0,0.0,15013,11109,33956,34200,37152,2
0.0,0.0,0.0,15104,11109,33852,33921,38707,2
0.0,0.0,0.0,15104,11121,33783,33508,40824,2
0.0,0.0,0.0,15288,11133,33921,33645,41309,2
0.0,0.0,0.0,15335,11133,33921,33576,41622,2
0.0,0.0,0.0,15459,11133,33852,33576,41757,2
0.0,0.0,0.0,15459,11121,33748,33371,41577,2
0.0,0.0,0.0,15366,11133,33714,33168,41443,2
0.0,0.0,0.0,15150,11109,33645,33371,40736,2
0.0,0.0,0.0,15058,11133,33611,33371,40562,2
0.0,0.0,0.0,15058,11157,33439,33371,40519,2
0.0,0.0,0.0,15058,11109,33337,33474,40346,2
0.0,0.0,0.0,15089,11133,33134,33508,40389,2
0.0,0.0,0.0,15013,11133,33033,33542,39663,2
0.0,0.0,0.0,15028,11084,32932,32932,39244,2
0.0,0.0,0.0,14967,11096,32666,32699,38871,2
0.0,0.0,0.0,15028,11109,32599,32932,39036,2
0.0,0.0,0.0,15104,11653,32765,33576,39244,2
0.0,0.0,0.0,15242,12530,32999,34026,38748,2
0.0,0.0,0.0,15211,12086,33033,33748,37940,2
0.0,0.0,0.0,15211,11703,32999,33576,37741,2
0.0,0.0,0.0,15150,11628,32866,33474,37622,2
0.0,0.0,0.0,15119,11465,32765,33474,37583,2
0.0,0.0,0.0,15150,11341,32699,33371,37583,2
0.0,0.0,0.0,15181,11304,32533,33439,37701,2
0.0,0.0,0.0,15242,11932,32765,33956,38382,2
0.0,0.0,0.0,15211,12215,32765,33887,38019,2
0.0,0.0,0.0,15211,12163,32765,33783,37860,2
0.0,0.0,0.0,15150,11804,32765,33714,37781,2
0.0,0.0,0.0,15119,11628,32732,33645,37701,2
0.0,0.0,0.0,15104,11640,32533,33474,37622,2
0.0,0.0,0.0,15119,11957,32500,33439,37701,2
0.0,0.0,0.0,15058,12320,32533,33337,37465,2
0.0,0.0,0.0,15089,11957,32500,33236,37347,2
0.0,0.0,0.0,15089,11817,32369,33134,37347,2
0.0,0.0,0.0,15028,11653,32238,33100,37386,2
0.0,0.0,0.0,15013,11503,32140,32999,37191,2
0.0,0.0,0.0,14967,11440,32108,32832,37152,2
0.0,0.0,0.0,14937,11428,32173,32765,37152,2
0.0,0.0,0.0,14952,11906,32140,32799,37152,2
0.0,0.0,0.0,14861,12346,32173,32899,37075,2
0.0,0.0,0.0,14846,12267,32043,32832,36805,2
0.0,0.0,0.0,14786,11703,31849,32633,36614,2
0.0,0.0,0.0,14801,11540,31785,32699,36614,2
0.0,0.0,0.0,14801,12137,31913,32966,36614,2
0.0,0.0,0.0,14786,12905,32010,33100,36462,2
0.0,0.0,0.0,14786,12690,31946,33100,36462,2
0.0,0.0,0.0,14756,12556,32075,33033,36462,2
0.0,0.0,0.0,14756,12163,32043,32999,36386,2
0.0,0.0,0.0,14801,12770,32043,33236,36348,2
0.0,0.0,0.0,14771,12504,32010,33033,36235,2
0.0,0.0,0.0,14726,12176,31978,32966,36235,2
0.0,0.0,0.0,14756,12124,31785,32966,36197,2
0.0,0.0,0.0,14756,12215,31720,32832,36348,2
0.0,0.0,0.0,14801,12241,31752,32666,36272,2
0.0,0.0,0.0,14937,12293,31656,32566,36424,2
0.0,0.0,0.0,15135,12267,31656,32303,36998,2
0.0,0.0,0.0,15273,12293,31785,32043,37230,2
0.0,0.0,0.0,15397,12267,31849,31817,37465,2
0.0,0.0,0.0,15288,12215,31849,31913,37230,2
0.0,0.0,0.0,15273,12254,31849,32173,37075,2
0.0,0.0,0.0,15181,12215,31913,32238,36843,2
0.0,0.0,0.0,15181,12189,31881,32238,36882,2
0.0,0.0,0.0,15165,12280,31881,32271,36728,2
0.0,0.0,0.0,15150,12306,31849,32369,36767,2
0.0,0.0,0.0,15150,12320,31817,32666,36920,2
0.0,0.0,0.0,15150,12189,31881,32799,37036,2
0.0,0.0,0.0,15181,12163,31881,32633,36998,2
0.0,0.0,0.0,15150,12124,31849,32633,36998,2
0.0,0.0,0.0,15150,12099,31849,32633,36998,2
0.0,0.0,0.0,15211,12189,31881,32765,37152,2
0.0,0.0,0.0,15428,12215,32238,33439,37701,2
0.0,0.0,0.0,15459,12202,32402,33611,37701,2
0.0,0.0,0.0,15459,12137,32435,33714,37543,2
0.0,0.0,0.0,15366,12009,32336,33474,37308,2
0.0,0.0,0.0,15350,11957,32303,33303,37308,2
0.0,0.0,0.0,15335,11868,32238,33303,37269,2
0.0,0.0,0.0,15288,11804,32238,33202,37191,2
0.0,0.0,0.0,15319,11766,32173,33134,37036,2
0.0,0.0,0.0,15288,11944,32173,33100,37075,2
0.0,0.0,0.0,15288,12690,32238,33236,36998,2
0.0,0.0,0.0,15211,12504,32173,33269,36959,2
0.0,0.0,0.0,15196,12021,32173,33033,36882,2
0.0,0.0,0.0,15211,11754,32108,32932,36920,2
0.0,0.0,0.0,15211,11766,32043,32899,36767,2
0.0,0.0,0.0,15242,11754,32108,32899,36767,2
0.0,0.0,0.0,15242,11741,32108,32932,36767,2
0.0,0.0,0.0,15335,11779,32173,33168,36767,2
0.0,0.0,0.0,15350,11779,32303,33236,36767,2
0.0,0.0,0.0,15304,11754,32303,33236,36652,2
0.0,0.0,0.0,15288,11728,32173,33168,36499,2
0.0,0.0,0.0,15304,11741,32043,32999,36690,2
0.0,0.0,0.0,15288,11716,32043,32966,36576,2
0.0,0.0,0.0,15443,11703,32108,33033,36652,2
0.0,0.0,0.0,15615,11703,32238,33236,36690,2
0.0,0.0,0.0,16060,11766,32932,33714,36843,2
0.0,0.0,0.0,16222,12124,32999,33852,36920,2
0.0,0.0,0.0,15964,12477,32765,33714,36767,2
0.0,0.0,0.0,15741,12189,32500,33236,36614,2
0.0,0.0,0.0,15631,12112,32402,33067,36462,2
0.0,0.0,0.0,15584,12346,32369,33033,36462,2
0.0,0.0,0.0,15521,12280,32303,33033,36538,2
0.0,0.0,0.0,15490,12280,32303,33202,36386,2
0.0,0.0,0.0,15506,12267,32369,33474,36462,2
0.0,0.0,0.0,15490,12267,32402,33645,36462,2
0.0,0.0,0.0,15490,12189,32336,33439,36462,2
0.0,0.0,0.0,15490,12009,32238,33168,36386,2
0.0,0.0,0.0,15475,11855,32140,33033,36462,2
0.0,0.0,0.0,15428,11728,32108,32932,36310,2
0.0,0.0,0.0,15412,11603,32108,32899,36310,2
0.0,0.0,0.0,15459,11565,32108,32899,36310,2
0.0,0.0,0.0,15459,11453,32140,32832,36386,2
0.0,0.0,0.0,15397,11428,32075,32899,36348,2
0.0,0.0,0.0,15459,11428,32043,32932,36386,2
0.0,0.0,0.0,15412,11453,31978,32866,36310,2
0.0,0.0,0.0,15459,11754,32043,32899,36310,2
0.0,0.0,0.0,15443,12293,31978,32966,36310,2
0.0,0.0,0.0,15475,13964,31978,33100,36348,2
0.0,0.0,0.0,15521,14137,31913,33100,36310,2
0.0,0.0,0.0,15521,14108,31849,33100,36235,2
0.0,0.0,0.0,15475,14079,31785,33134,36310,2
0.0,0.0,0.0,15490,14079,31785,33100,36272,2
0.0,0.0,0.0,15475,14050,31720,33067,36235,2
0.0,0.0,0.0,15459,14036,31720,33100,36160,2
0.0,0.0,0.0,15443,14064,31688,33067,36160,2
0.0,0.0,0.0,15428,14050,31656,33033,36160,2
0.0,0.0,0.0,15428,14036,31624,33033,36197,2
0.0,0.0,0.0,15459,14064,31624,33067,36122,2
0.0,0.0,0.0,15428,14518,31720,33134,36235,2
0.0,0.0,0.0,15443,14607,31720,33100,36085,2
0.0,0.0,0.0,15412,14297,31688,33100,36047,2
0.0,0.0,0.0,15397,14577,31720,33134,36235,2
0.0,0.0,0.0,15412,15304,31656,33134,36160,2
0.0,0.0,0.0,15397,15181,31624,33100,36010,2
0.0,0.0,0.0,15397,14997,31656,33100,36047,2
0.0,0.0,0.0,15366,14846,31624,33100,36085,2
0.0,0.0,0.0,15366,14741,31656,33033,36197,2
0.0,0.0,0.0,15397,14726,31624,32765,36499,2
0.0,0.0,0.0,15412,14726,31720,31720,38341,2
0.0,0.0,0.0,15553,14741,31785,31025,39327,2
0.0,0.0,0.0,15615,14696,31785,30776,39244,2
0.0,0.0,0.0,15584,14681,31720,30900,38748,2
0.0,0.0,0.0,15521,14621,31720,31213,38789,2
0.0,0.0,0.0,15521,14607,31720,31244,38707,2
0.0,0.0,0.0,15521,14577,31720,31402,38748,2
0.0,0.0,0.0,15521,14547,31624,31656,38912,2
0.0,0.0,0.0,15490,14547,31624,31720,38995,2
0.0,0.0,0.0,15490,14562,31593,31881,39411,2
0.0,0.0,0.0,15600,14532,31656,32369,40346,2
0.0,0.0,0.0,15600,14518,31752,33508,41132,2
0.0,0.0,0.0,15615,14547,32010,34731,42166,2
0.0,0.0,0.0,15600,14547,32043,34839,42029,2
0.0,0.0,0.0,15584,14532,31913,34624,41533,2
0.0,0.0,0.0,15553,14518,31849,34660,41221,2
0.0,0.0,0.0,15647,14547,31913,34731,41577,2
0.0,0.0,0.0,15663,14547,31785,35455,41667,2
0.0,0.0,0.0,15647,14562,31785,35787,41848,2
0.0,0.0,0.0,15647,14488,31785,35639,41577,2
0.0,0.0,0.0,15600,14473,31752,35455,41488,2
0.0,0.0,0.0,15584,14399,31720,35345,41399,2
0.0,0.0,0.0,15584,14326,31720,35199,41221,2
0.0,0.0,0.0,15553,14311,31624,35018,41132,2
0.0,0.0,0.0,15521,14311,31593,34982,40868,2
0.0,0.0,0.0,15521,14311,31593,35055,40519,2
0.0,0.0,0.0,15490,14282,31720,35163,40002,2
0.0,0.0,0.0,15397,14253,31752,35602,39244,2
0.0,0.0,0.0,15288,14195,31720,36160,38180,2
0.0,0.0,0.0,15273,14180,31720,36197,37741,2
0.0,0.0,0.0,15242,14195,31720,36235,37543,2
0.0,0.0,0.0,15227,14166,31688,36310,36462,2
0.0,0.0,0.0,15227,14137,31593,36160,36235,2
0.0,0.0,0.0,15211,14137,31593,36010,36424,2
0.0,0.0,0.0,15227,14122,31561,35418,36690,2
0.0,0.0,0.0,15227,14108,31465,34982,37036,2
0.0,0.0,0.0,15242,14108,31402,34376,37860,2
0.0,0.0,0.0,15258,14108,31370,33576,39327,2
0.0,0.0,0.0,15258,14108,31402,32999,39705,2
0.0,0.0,0.0,15273,14108,31370,32899,39452,2
0.0,0.0,0.0,15273,14050,31339,32899,39244,2
0.0,0.0,0.0,15227,13978,31307,32899,38912,2
0.0,0.0,0.0,15273,14036,31276,32799,38707,2
0.0,0.0,0.0,15273,14021,31213,32500,38585,2
0.0,0.0,0.0,15335,14079,31087,31913,38503,2
0.0,0.0,0.0,15397,14108,31087,31213,38585,2
0.0,0.0,0.0,15412,14108,30994,30715,38180,2
0.0,0.0,0.0,15397,14122,31087,30838,38059,2
0.0,0.0,0.0,15335,14137,31056,30776,37900,2
0.0,0.0,0.0,15319,14108,31213,31529,38180,2
0.0,0.0,0.0,15273,14108,31181,32108,38341,2
0.0,0.0,0.0,15335,14108,31213,32832,38625,2
0.0,0.0,0.0,15335,14050,31213,33576,38544,2
0.0,0.0,0.0,15397,14021,31307,34696,38100,2
0.0,0.0,0.0,15366,13992,31339,35055,37583,2
0.0,0.0,0.0,15397,13978,31465,35712,37269,2
0.0,0.0,0.0,15350,13964,31402,35565,37230,2
0.0,0.0,0.0,15366,13935,31339,35455,37075,2
0.0,0.0,0.0,15350,13906,31402,35127,37075,2
0.0,0.0,0.0,15335,13806,31339,34982,37191,2
0.0,0.0,0.0,15335,13792,31339,34874,37114,2
0.0,0.0,0.0,15335,13735,31244,34767,37230,2
0.0,0.0,0.0,15335,13735,31213,34731,37191,2
0.0,0.0,0.0,15366,13679,31213,34589,37152,2
0.0,0.0,0.0,15350,13608,31150,34553,37075,2
0.0,0.0,0.0,15350,13482,31213,34482,37152,2
0.0,0.0,0.0,15366,13287,31087,34447,37114,2
0.0,0.0,0.0,15335,12972,31119,34341,37114,2
0.0,0.0,0.0,15335,12477,31025,34200,37075,2
0.0,0.0,0.0,15335,12267,30962,34130,37075,2
0.0,0.0,0.0,15319,12228,30962,34060,36998,2
0.0,0.0,0.0,15335,12267,30962,34060,36959,2
0.0,0.0,0.0,15288,12293,30962,34026,36920,2
0.0,0.0,0.0,15304,12320,30931,34026,36959,2
0.0,0.0,0.0,15288,12346,30962,33991,36998,2
0.0,0.0,0.0,15288,12346,30869,33956,36920,2
0.0,0.0,0.0,15273,12346,30869,33991,36920,2
0.0,0.0,0.0,15288,12385,30900,33956,36998,2
0.0,0.0,0.0,15242,12490,30900,33991,36920,2
0.0,0.0,0.0,15242,12438,30838,33887,36920,2
0.0,0.0,0.0,15242,12530,30838,33921,36882,2
0.0,0.0,0.0,15242,12690,30900,33921,36959,2
0.0,0.0,0.0,15273,13749,30962,33991,36843,2
0.0,0.0,0.0,15273,14922,31087,34095,36843,2
0.0,0.0,0.0,15273,15227,30994,34026,36767,2
0.0,0.0,0.0,15273,14488,30962,33921,36843,2
0.0,0.0,0.0,15273,14429,30869,33852,36882,2
0.0,0.0,0.0,15273,14399,30900,33783,36843,2
0.0,0.0,0.0,15288,14370,30931,33887,36767,2
0.0,0.0,0.0,15273,14370,30869,33852,36882,2
0.0,0.0,0.0,15273,14370,30900,33852,36805,2
0.0,0.0,0.0,15273,14341,30869,33783,36690,2
0.0,0.0,0.0,15273,14370,30900,33852,36728,2
0.0,0.0,0.0,15273,14268,30838,33817,36767,2
0.0,0.0,0.0,15288,14282,30838,33783,36843,2
0.0,0.0,0.0,15288,14311,30838,33817,36920,2
0.0,0.0,0.0,15288,14297,30838,33852,36959,2
0.0,0.0,0.0,15288,14209,30838,33852,37075,2
0.0,0.0,0.0,15335,14209,30900,33783,37075,2
0.0,0.0,0.0,15319,14195,30869,33852,37075,2
0.0,0.0,0.0,15335,14195,30838,33748,36959,2
0.0,0.0,0.0,15335,14195,30838,33714,36959,2
0.0,0.0,0.0,15335,14137,30869,33748,36843,2
0.0,0.0,0.0,15288,14137,30838,33714,36843,2
0.0,0.0,0.0,15319,14108,30807,33748,36882,2
0.0,0.0,0.0,15335,14108,30900,33679,36920,2
0.0,0.0,0.0,15288,14036,30900,33714,36959,2
0.0,0.0,0.0,15288,13964,30838,33645,36882,2
0.0,0.0,0.0,15366,13964,30962,33645,36690,2
0.0,0.0,0.0,15397,13878,31339,33991,36197,2
0.0,0.0,0.0,15443,14503,31593,34946,35861,2
0.0,0.0,0.0,15397,14224,31307,34553,35712,2
0.0,0.0,0.0,15397,13566,31056,34200,35712,2
0.0,0.0,0.0,15459,13524,30994,34060,35639,2
0.0,0.0,0.0,15397,13482,30900,33956,35565,2
0.0,0.0,0.0,15397,13468,30962,33991,35639,2
0.0,0.0,0.0,15381,13398,30962,33887,35565,2
0.0,0.0,0.0,15397,13287,30962,33852,35676,2
0.0,0.0,0.0,15397,13150,30962,33817,35639,2
0.0,0.0,0.0,15366,12851,30931,33748,35565,2
0.0,0.0,0.0,15366,12783,30838,33611,35565,2
0.0,0.0,0.0,15319,12649,30776,33439,35492,2
0.0,0.0,0.0,15288,12636,30715,33371,35528,2
0.0,0.0,0.0,15288,12636,30684,33337,35455,2
0.0,0.0,0.0,15288,12610,30715,33371,35418,2
0.0,0.0,0.0,15288,12610,30715,33371,35418,2
0.0,0.0,0.0,15288,12851,30715,33439,35345,2
0.0,0.0,0.0,15273,13068,30684,33508,35345,2
0.0,0.0,0.0,15288,13122,30745,33611,35455,2
0.0,0.0,0.0,15258,13454,30715,33542,35309,2
0.0,0.0,0.0,15273,13863,30715,33576,35272,2
0.0,0.0,0.0,15242,14547,30745,33542,35345,2
0.0,0.0,0.0,15211,14786,30715,33576,35418,2
0.0,0.0,0.0,15273,15397,30715,33611,35345,2
0.0,0.0,0.0,15242,15304,30715,33542,35345,2
0.0,0.0,0.0,15242,15227,30684,33576,35382,2
0.0,0.0,0.0,15211,14473,30684,33508,35309,2
0.0,0.0,0.0,15211,13735,30622,33371,35418,2
0.0,0.0,0.0,15165,13177,30622,33371,35309,2
0.0,0.0,0.0,15196,13013,30591,33337,35345,2
0.0,0.0,0.0,15165,12530,30591,33303,35345,2
0.0,0.0,0.0,15165,12451,30622,33337,35272,2
0.0,0.0,0.0,15165,12346,30591,33303,35309,2
0.0,0.0,0.0,15150,12320,30530,33303,35309,2
0.0,0.0,0.0,15181,12398,30530,33236,35236,2
0.0,0.0,0.0,15181,12676,30591,33337,35272,2
0.0,0.0,0.0,15181,12851,30499,33439,35272,2
0.0,0.0,0.0,15211,12972,30530,33439,35309,2
0.0,0.0,0.0,15181,13027,30530,33439,35309,2
0.0,0.0,0.0,15211,13054,30530,33371,35199,2
0.0,0.0,0.0,15196,13068,30530,33439,35236,2
0.0,0.0,0.0,15211,13013,30530,33439,35199,2
0.0,0.0,0.0,15211,13013,30499,33439,35272,2
0.0,0.0,0.0,15181,12851,30469,33371,35272,2
0.0,0.0,0.0,15227,12797,30438,33303,35309,2
0.0,0.0,0.0,15165,12783,30469,33303,35272,2
0.0,0.0,0.0,15150,12743,30469,33303,35272,2
0.0,0.0,0.0,15165,12797,30469,33303,35236,2
0.0,0.0,0.0,15165,12810,30469,33337,35309,2
0.0,0.0,0.0,15181,12824,30408,33303,35236,2
0.0,0.0,0.0,15150,12959,30469,33337,35236,2
0.0,0.0,0.0,15165,13013,30499,33303,35199,2
0.0,0.0,0.0,15196,13622,30561,33337,35272,2
0.0,0.0,0.0,15211,13735,30591,33439,35272,2
0.0,0.0,0.0,15211,13580,30591,33405,35236,2
0.0,0.0,0.0,15242,13566,30561,33439,35272,2
0.0,0.0,0.0,15242,13426,30469,33439,35272,2
0.0,0.0,0.0,15242,13357,30499,33645,35418,2
0.0,0.0,0.0,15211,13412,30499,33852,35492,2
0.0,0.0,0.0,15242,13412,30469,33887,35639,2
0.0,0.0,0.0,15242,13301,30469,33887,35712,2
0.0,0.0,0.0,15273,13068,30408,33645,35861,2
0.0,0.0,0.0,15335,12864,30347,33337,35898,2
0.0,0.0,0.0,15288,12636,30286,33236,36010,2
0.0,0.0,0.0,15273,12477,30286,33168,35935,2
0.0,0.0,0.0,15273,13218,30469,33337,36197,2
0.0,0.0,0.0,15211,13068,30499,33405,36197,2
0.0,0.0,0.0,15181,13027,30530,33371,36160,2
0.0,0.0,0.0,15165,12932,30591,33371,36197,2
0.0,0.0,0.0,15165,12851,30622,33371,36160,2
0.0,0.0,0.0,15181,12610,30561,33303,36160,2
0.0,0.0,0.0,15211,12202,30499,33236,36085,2
0.0,0.0,0.0,15165,11957,30499,33202,36010,2
0.0,0.0,0.0,15227,11932,30469,33202,35972,2
0.0,0.0,0.0,15211,11881,30469,33134,35972,2
0.0,0.0,0.0,15181,11906,30408,33100,35972,2
0.0,0.0,0.0,15165,11855,30317,33168,35972,2
0.0,0.0,0.0,15150,11741,30438,33168,35898,2
0.0,0.0,0.0,15119,11553,30530,33100,35861,2
0.0,0.0,0.0,15058,11503,30530,33168,35861,2
0.0,0.0,0.0,15089,11440,30499,33168,35712,2
0.0,0.0,0.0,15074,11440,30469,33100,35676,2
0.0,0.0,0.0,15058,11453,30530,33100,35639,2
0.0,0.0,0.0,15028,11640,30469,33100,35639,2
0.0,0.0,0.0,15028,11716,30469,33033,35749,2
0.0,0.0,0.0,14997,11779,30408,32966,35712,2
0.0,0.0,0.0,14997,11804,30377,32932,35712,2
0.0,0.0,0.0,15028,11804,30377,32899,35602,2
0.0,0.0,0.0,14997,11804,30347,32899,35676,2
0.0,0.0,0.0,15028,11779,30347,32932,35639,2
0.0,0.0,0.0,15013,11754,30286,32899,35565,2
0.0,0.0,0.0,15028,11779,30347,32932,35639,2
0.0,0.0,0.0,15028,11792,30317,32932,35602,2
0.0,0.0,0.0,15043,11804,30226,32899,35639,2
0.0,0.0,0.0,15028,11830,30256,32932,35639,2
0.0,0.0,0.0,15028,11817,30226,32932,35712,2
0.0,0.0,0.0,15043,11855,30256,32899,35676,2
0.0,0.0,0.0,15028,11855,30226,32932,35602,2
0.0,0.0,0.0,15028,11893,30226,32966,35565,2
0.0,0.0,0.0,15028,11893,30226,32899,35528,2
0.0,0.0,0.0,15043,11919,30226,32932,35712,2
0.0,0.0,0.0,15058,11970,30226,32932,35528,2
0.0,0.0,0.0,15043,12215,30226,32899,35602,2
0.0,0.0,0.0,15058,12320,30286,32899,35639,2
0.0,0.0,0.0,15058,12477,30256,32932,35565,2
0.0,0.0,0.0,15058,12424,30165,32899,35565,2
0.0,0.0,0.0,15043,12241,30165,32899,35602,2
0.0,0.0,0.0,15058,12112,30165,32899,35602,2
0.0,0.0,0.0,15028,12021,30165,32832,35565,2
0.0,0.0,0.0,14967,11983,30105,32765,35528,2
0.0,0.0,0.0,15043,11957,30105,32799,35565,2
0.0,0.0,0.0,15028,12060,30165,32899,35602,2
0.0,0.0,0.0,15028,12280,30165,32866,35565,2
0.0,0.0,0.0,14982,12610,30226,32832,35565,2
0.0,0.0,0.0,14997,12504,30165,32765,35676,2
0.0,0.0,0.0,15028,12176,30105,32699,35565,2
0.0,0.0,0.0,15013,12009,30045,32732,35565,2
0.0,0.0,0.0,14997,11906,30105,32765,35602,2
0.0,0.0,0.0,15028,11893,30045,32699,35565,2
0.0,0.0,0.0,15028,11906,30075,32732,35639,2
0.0,0.0,0.0,15028,12009,30105,32765,35492,2
0.0,0.0,0.0,15028,12124,30045,32666,35565,2
0.0,0.0,0.0,15028,12086,30105,32699,35565,2
0.0,0.0,0.0,15028,12047,30045,32666,35455,2
0.0,0.0,0.0,15028,11906,30075,32699,35528,2
0.0,0.0,0.0,15028,11855,30075,32699,35418,2
0.0,0.0,0.0,15058,11868,30105,32699,35602,2
0.0,0.0,0.0,15058,11881,29984,32633,35492,2
0.0,0.0,0.0,15058,11855,30045,32633,35565,2
0.0,0.0,0.0,15058,11868,30015,32633,35565,2
0.0,0.0,0.0,15058,11881,29984,32633,35492,2
0.0,0.0,0.0,15089,11868,30015,32633,35492,2
0.0,0.0,0.0,15058,11855,29984,32566,35602,2
0.0,0.0,0.0,15043,11868,29984,32666,35492,2
0.0,0.0,0.0,15058,11881,29984,32599,35492,2
0.0,0.0,0.0,15089,11817,29984,32599,35492,2
0.0,0.0,0.0,15089,11957,29984,32599,35565,2
0.0,0.0,0.0,15058,12451,30045,32732,35602,2
0.0,0.0,0.0,14967,12570,30045,32467,35565,2
0.0,0.0,0.0,15028,12583,30105,32500,35639,2
0.0,0.0,0.0,15013,12215,30015,32435,35639,2
0.0,0.0,0.0,15043,11804,29984,32500,35565,2
0.0,0.0,0.0,15058,11703,29984,32467,35565,2
0.0,0.0,0.0,15089,11703,29984,32369,35639,2
0.0,0.0,0.0,15089,11804,29984,32467,35565,2
0.0,0.0,0.0,14967,11881,29925,32369,35565,2
0.0,0.0,0.0,14922,12215,29925,32336,35565,2
0.0,0.0,0.0,14937,12215,29984,32336,35565,2
0.0,0.0,0.0,14967,11970,29865,32369,35565,2
0.0,0.0,0.0,14967,11754,29925,32369,35492,2
0.0,0.0,0.0,14967,11779,29865,32303,35418,2
0.0,0.0,0.0,14967,11881,29925,32271,35345,2
0.0,0.0,0.0,14967,11944,29925,32369,35455,2
0.0,0.0,0.0,14922,12060,29895,32369,35455,2
0.0,0.0,0.0,14967,11855,29895,32435,35492,2
0.0,0.0,0.0,14982,11653,29865,32500,35492,2
0.0,0.0,0.0,14982,11653,29865,32402,35309,2
0.0,0.0,0.0,14967,11665,29865,32435,35345,2
0.0,0.0,0.0,14937,11944,29865,32500,35345,2
0.0,0.0,0.0,14922,12163,29865,32369,35272,2
0.0,0.0,0.0,15028,12009,29865,32435,35345,2
0.0,0.0,0.0,14982,11932,29716,32369,35309,2
0.0,0.0,0.0,14967,11906,29686,32369,35309,2
0.0,0.0,0.0,14982,11728,29657,32369,35199,2
0.0,0.0,0.0,15028,11881,29686,32402,35272,2
0.0,0.0,0.0,14967,12451,29805,32435,35127,2
0.0,0.0,0.0,14967,12583,29835,32435,35236,2
0.0,0.0,0.0,14967,12372,29746,32369,35199,2
0.0,0.0,0.0,15028,11766,29746,32336,35199,2
0.0,0.0,0.0,15028,11716,29657,32369,35272,2
0.0,0.0,0.0,14982,11754,29746,32336,35199,2
0.0,0.0,0.0,14967,11855,29686,32435,35199,2
0.0,0.0,0.0,14982,11957,29686,32435,35199,2
0.0,0.0,0.0,14982,12267,29686,32533,35055,2
0.0,0.0,0.0,15058,13040,29865,32666,35163,2
0.0,0.0,0.0,15150,13749,30015,32832,35127,2
0.0,0.0,0.0,15150,13849,29984,32832,35127,2
0.0,0.0,0.0,15089,13191,29865,32633,35163,2
0.0,0.0,0.0,15058,12918,29835,32533,35018,2
0.0,0.0,0.0,15089,12783,29746,32500,35127,2
0.0,0.0,0.0,15043,12663,29746,32435,35091,2
0.0,0.0,0.0,15089,12543,29746,32435,35127,2
0.0,0.0,0.0,15058,12385,29716,32369,35091,2
0.0,0.0,0.0,15058,12163,29686,32336,35127,2
0.0,0.0,0.0,15028,12034,29686,32303,35018,2
0.0,0.0,0.0,15028,11970,29657,32303,35127,2
0.0,0.0,0.0,14967,11906,29686,32238,34982,2
0.0,0.0,0.0,14997,11932,29627,32369,35091,2
0.0,0.0,0.0,15058,13246,29835,32402,34982,2
0.0,0.0,0.0,15089,13849,29835,32402,35091,2
0.0,0.0,0.0,15058,12905,29686,32238,34982,2
0.0,0.0,0.0,15058,12267,29568,32173,34982,2
0.0,0.0,0.0,15028,12060,29568,32140,34982,2
0.0,0.0,0.0,15028,12176,29538,32140,34982,2
0.0,0.0,0.0,15089,13343,29835,32303,35055,2
0.0,0.0,0.0,15089,13622,29865,32303,34982,2
0.0,0.0,0.0,15028,12959,29657,32173,34946,2
0.0,0.0,0.0,14967,12280,29538,32108,34946,2
0.0,0.0,0.0,14982,11932,29538,32108,34874,2
0.0,0.0,0.0,14997,11932,29479,32075,34910,2
0.0,0.0,0.0,14982,12228,29509,32140,34982,2
0.0,0.0,0.0,15058,12905,29775,32173,34982,2
0.0,0.0,0.0,15028,12663,29627,32173,34982,2
0.0,0.0,0.0,14982,12021,29450,32075,34910,2
0.0,0.0,0.0,14952,11817,29509,32108,34839,2
0.0,0.0,0.0,14967,12424,29568,32108,34982,2
0.0,0.0,0.0,14982,13594,29984,32369,34946,2
0.0,0.0,0.0,14952,12959,29746,32173,34946,2
0.0,0.0,0.0,14967,12346,29627,32075,34839,2
0.0,0.0,0.0,14907,12293,29509,32108,34839,2
0.0,0.0,0.0,14967,12280,29509,32075,34839,2
0.0,0.0,0.0,14922,12770,29568,32173,34910,2
0.0,0.0,0.0,14937,12743,29538,32173,34839,2
0.0,0.0,0.0,14922,12649,29538,32108,34803,2
0.0,0.0,0.0,14952,12583,29509,32108,34767,2
0.0,0.0,0.0,14937,12530,29450,32108,34839,2
0.0,0.0,0.0,14907,12451,29509,32108,34839,2
0.0,0.0,0.0,14937,12267,29509,32010,34767,2
0.0,0.0,0.0,14937,12009,29450,32108,34803,2
0.0,0.0,0.0,14907,11842,29479,32043,34767,2
0.0,0.0,0.0,14937,11754,29509,32043,34839,2
0.0,0.0,0.0,14922,11703,29450,31978,34696,2
0.0,0.0,0.0,14922,11703,29450,32043,34803,2
0.0,0.0,0.0,14937,11665,29509,32043,34803,2
0.0,0.0,0.0,14922,11754,29450,32010,34731,2
0.0,0.0,0.0,14907,12009,29421,32108,34803,2
0.0,0.0,0.0,14846,12228,29450,32010,34839,2
0.0,0.0,0.0,14816,12346,29509,32010,34839,2
0.0,0.0,0.0,14786,12464,29568,31978,34910,2
0.0,0.0,0.0,14786,12385,29568,31946,34874,2
0.0,0.0,0.0,14756,12372,29597,31529,34982,2
0.0,0.0,0.0,14786,12267,29391,31025,34767,2
0.0,0.0,0.0,14786,12254,29216,30962,34839,2
0.0,0.0,0.0,14907,11932,29274,30900,34839,2
0.0,0.0,0.0,14907,11703,29865,31087,34839,2
0.0,0.0,0.0,14907,11855,29895,30994,34767,2
0.0,0.0,0.0,14876,12009,29746,31087,34696,2
0.0,0.0,0.0,14846,12176,29805,31244,34731,2
0.0,0.0,0.0,14786,12320,29716,31087,34696,2
0.0,0.0,0.0,14786,12385,29686,31119,34589,2
0.0,0.0,0.0,14831,12424,29657,31087,34696,2
0.0,0.0,0.0,14876,12241,29568,31025,34589,2
0.0,0.0,0.0,14967,11691,29509,30994,34589,2
0.0,0.0,0.0,14967,11741,29421,30962,34696,2
0.0,0.0,0.0,14922,11754,29421,30962,34624,2
0.0,0.0,0.0,14907,11957,29421,30931,34696,2
0.0,0.0,0.0,14861,12215,29421,30931,34660,2
0.0,0.0,0.0,14846,12267,29509,30931,34589,2
0.0,0.0,0.0,14876,11957,29509,30869,34624,2
0.0,0.0,0.0,14952,11628,29421,30900,34624,2
0.0,0.0,0.0,14967,11628,29391,30869,34624,2
0.0,0.0,0.0,14907,11728,29391,30869,34553,2
0.0,0.0,0.0,14801,12124,29421,30838,34553,2
0.0,0.0,0.0,14816,12280,29391,30869,34482,2
0.0,0.0,0.0,14861,11906,29450,30838,34553,2
0.0,0.0,0.0,14907,11665,29391,30807,34518,2
0.0,0.0,0.0,14861,11653,29304,30745,34447,2
0.0,0.0,0.0,14846,11919,29333,30745,34412,2
0.0,0.0,0.0,14846,11893,29274,30745,34447,2
0.0,0.0,0.0,14801,11830,29304,30745,34482,2
0.0,0.0,0.0,14801,11830,29274,30776,34412,2
0.0,0.0,0.0,14846,11804,29274,30745,34412,2
0.0,0.0,0.0,14846,11817,29274,30776,34447,2
0.0,0.0,0.0,14861,11766,29333,30745,34376,2
0.0,0.0,0.0,14861,11779,29216,30715,34341,2
0.0,0.0,0.0,14876,11754,29216,30684,34412,2
0.0,0.0,0.0,14861,11754,29274,30715,34412,2
0.0,0.0,0.0,14846,11728,29245,30715,34412,2
0.0,0.0,0.0,14861,11855,29274,30715,34341,2
0.0,0.0,0.0,14861,12215,29274,30715,34447,2
0.0,0.0,0.0,14907,12398,29304,30745,34482,2
0.0,0.0,0.0,14967,12477,29333,30745,34482,2
0.0,0.0,0.0,14982,12490,29333,30745,34553,2
0.0,0.0,0.0,14982,12690,29362,30776,34553,2
0.0,0.0,0.0,14967,12743,29333,30745,34482,2
0.0,0.0,0.0,14967,12864,29391,30715,34482,2
0.0,0.0,0.0,14907,12690,29274,30653,34376,2
0.0,0.0,0.0,14876,12451,29274,30653,34376,2
0.0,0.0,0.0,14846,12320,29274,30622,34341,2
0.0,0.0,0.0,14846,12346,29216,30715,34341,2
0.0,0.0,0.0,14876,12905,29391,30715,34412,2
0.0,0.0,0.0,14876,13524,29509,30745,34341,2
0.0,0.0,0.0,14876,13552,29509,30745,34341,2
0.0,0.0,0.0,14861,13068,29304,30653,34341,2
0.0,0.0,0.0,14861,12824,29304,30653,34376,2
0.0,0.0,0.0,14846,12636,29274,30653,34306,2
0.0,0.0,0.0,14846,12477,29216,30591,34271,2
0.0,0.0,0.0,14846,12398,29158,30591,34412,2
0.0,0.0,0.0,14846,12372,29100,30622,34306,2
0.0,0.0,0.0,14846,12320,29158,30591,34341,2
0.0,0.0,0.0,14846,12346,29158,30622,34412,2
0.0,0.0,0.0,14846,12346,29158,30591,34412,2
0.0,0.0,0.0,14861,12320,29158,30591,34412,2
0.0,0.0,0.0,14907,12280,29216,30653,34412,2
0.0,0.0,0.0,14891,12267,29158,30622,34447,2
0.0,0.0,0.0,14907,12021,29158,30530,34341,2
0.0,0.0,0.0,14967,11855,29158,30622,34341,2
0.0,0.0,0.0,14937,11804,29245,30591,34376,2
0.0,0.0,0.0,14952,11804,29042,30530,34341,2
0.0,0.0,0.0,14937,11868,29187,30591,34341,2
0.0,0.0,0.0,14907,12783,29274,30591,34341,2
0.0,0.0,0.0,14876,12636,29274,30530,34376,2
0.0,0.0,0.0,14861,12477,29158,30530,34341,2
0.0,0.0,0.0,14876,12346,29158,30499,34341,2
0.0,0.0,0.0,14861,12320,29100,30469,34235,2
0.0,0.0,0.0,14876,12320,29100,30469,34271,2
0.0,0.0,0.0,14846,12293,29100,30469,34341,2
0.0,0.0,0.0,14846,12267,29216,30469,34271,2
0.0,0.0,0.0,14846,12293,29100,30469,34341,2
0.0,0.0,0.0,14861,12267,29042,30469,34271,2
0.0,0.0,0.0,14876,12293,29100,30438,34341,2
0.0,0.0,0.0,14861,12267,29042,30499,34235,2
0.0,0.0,0.0,14861,12280,29100,30469,34271,2
0.0,0.0,0.0,14891,12267,29042,30561,34376,2
0.0,0.0,0.0,14967,12411,29071,30591,34696,2
0.0,0.0,0.0,14967,12385,29042,30591,34767,2
0.0,0.0,0.0,14997,12372,29100,30591,34946,2
0.0,0.0,0.0,14997,12346,29071,30408,35382,2
0.0,0.0,0.0,15028,12346,29013,30438,35382,2
0.0,0.0,0.0,15028,12320,29100,30347,35455,2
0.0,0.0,0.0,15058,12320,29042,30286,35935,2
0.0,0.0,0.0,15150,12267,29158,30195,36462,2
0.0,0.0,0.0,15273,12267,29216,30286,36920,2
0.0,0.0,0.0,15366,12124,29158,30165,37583,2
0.0,0.0,0.0,15900,12124,29509,30226,38301,2
0.0,0.0,0.0,16125,12060,29955,30165,38503,2
0.0,0.0,0.0,16189,12021,29984,29984,38341,2
0.0,0.0,0.0,16157,12009,29865,29805,38100,2
0.0,0.0,0.0,16093,11983,29775,29775,37980,2
0.0,0.0,0.0,16028,12009,29627,29627,37820,2
0.0,0.0,0.0,15964,11970,29657,29627,37900,2
0.0,0.0,0.0,15964,12009,29627,29568,37820,2
0.0,0.0,0.0,15916,11983,29657,29509,37701,2
0.0,0.0,0.0,15868,11983,29597,29568,37781,2
0.0,0.0,0.0,15837,11983,29538,29627,37900,2
0.0,0.0,0.0,15805,11983,29597,29627,37860,2
0.0,0.0,0.0,15773,11970,29597,29538,37701,2
0.0,0.0,0.0,15741,11983,29509,29479,37622,2
0.0,0.0,0.0,15741,11970,29450,29362,37543,2
0.0,0.0,0.0,15726,11957,29391,29216,37386,2
0.0,0.0,0.0,15773,11983,29421,29071,37308,2
0.0,0.0,0.0,15726,11983,29421,29100,37152,2
0.0,0.0,0.0,15710,11970,29450,29129,37152,2
0.0,0.0,0.0,15647,11957,29538,29274,37426,2
0.0,0.0,0.0,15584,11983,29657,29421,37426,2
0.0,0.0,0.0,15459,11957,29805,29746,37347,2
0.0,0.0,0.0,15258,11957,30226,30408,37230,2
0.0,0.0,0.0,15089,11970,30347,30994,37230,2
0.0,0.0,0.0,15058,11957,30499,31339,37230,2
0.0,0.0,0.0,15058,11983,30408,31244,37230,2
0.0,0.0,0.0,15043,11957,30377,31276,37230,2
0.0,0.0,0.0,15089,11957,30165,30653,37230,2
0.0,0.0,0.0,15475,12021,29925,30256,37465,2
0.0,0.0,0.0,15964,12150,29865,29984,37583,2
0.0,0.0,0.0,15789,12320,30015,30165,37152,2
0.0,0.0,0.0,15631,13054,30317,30347,37152,2
0.0,0.0,0.0,15490,13136,30469,30347,36920,2
0.0,0.0,0.0,15428,12743,30226,30045,36690,2
0.0,0.0,0.0,15366,12112,30045,29865,36805,2
0.0,0.0,0.0,15335,12009,29984,29984,36767,2
0.0,0.0,0.0,15335,12163,30105,30045,36805,2
0.0,0.0,0.0,15288,12690,30105,30105,36920,2
0.0,0.0,0.0,15273,13040,30165,30165,36959,2
0.0,0.0,0.0,15273,13343,30256,30226,36690,2
0.0,0.0,0.0,15273,13246,30165,30165,36690,2
0.0,0.0,0.0,15273,13081,30165,30165,36690,2
0.0,0.0,0.0,15211,12864,30135,30045,36614,2
0.0,0.0,0.0,15242,12770,30075,30045,36614,2
0.0,0.0,0.0,15242,12583,30105,29984,36690,2
0.0,0.0,0.0,15242,12280,30075,29984,36576,2
0.0,0.0,0.0,15211,12163,30105,30015,36538,2
0.0,0.0,0.0,15211,12112,30165,30015,36538,2
0.0,0.0,0.0,15211,12202,30105,29984,36538,2
0.0,0.0,0.0,15211,12918,30075,30105,36499,2
0.0,0.0,0.0,15227,14621,30165,30226,36538,2
0.0,0.0,0.0,15242,14458,30105,30165,36424,2
0.0,0.0,0.0,15227,13792,29984,30045,36386,2
0.0,0.0,0.0,15227,13622,29984,30045,36462,2
0.0,0.0,0.0,15211,13343,29895,29955,36386,2
0.0,0.0,0.0,15211,13068,29925,29984,36386,2
0.0,0.0,0.0,15181,12918,29865,29895,36462,2
0.0,0.0,0.0,15211,12783,29895,29925,36424,2
0.0,0.0,0.0,15165,12649,29865,29865,36310,2
0.0,0.0,0.0,15181,12477,29835,29895,36386,2
0.0,0.0,0.0,15150,12385,29865,29775,36310,2
0.0,0.0,0.0,15150,12372,29805,29835,36386,2
0.0,0.0,0.0,15150,12320,29775,29805,36310,2
0.0,0.0,0.0,15150,12306,29775,29775,36348,2
0.0,0.0,0.0,15150,12293,29805,29805,36348,2
0.0,0.0,0.0,15135,12293,29657,29775,36348,2
0.0,0.0,0.0,15150,12372,29746,29805,36386,2
0.0,0.0,0.0,15165,13027,29805,29925,36424,2
0.0,0.0,0.0,15165,13426,29865,29895,36386,2
0.0,0.0,0.0,15135,13122,29686,29746,36348,2
0.0,0.0,0.0,15089,12649,29597,29746,36310,2
0.0,0.0,0.0,15058,12320,29568,29657,36272,2
0.0,0.0,0.0,15119,12398,29568,29657,36160,2
0.0,0.0,0.0,15119,13454,29775,29746,36235,2
0.0,0.0,0.0,15104,13191,29627,29686,36160,2
0.0,0.0,0.0,15089,12636,29568,29627,36085,2
0.0,0.0,0.0,15089,12690,29568,29568,36047,2
0.0,0.0,0.0,15150,13921,29835,29775,36047,2
0.0,0.0,0.0,15150,13906,29627,29746,36047,2
0.0,0.0,0.0,15089,12959,29716,29686,36122,2
0.0,0.0,0.0,15104,13510,29538,29686,36085,2
0.0,0.0,0.0,15119,13749,29568,29746,36047,2
0.0,0.0,0.0,15058,13081,29479,29627,35935,2
0.0,0.0,0.0,15043,13594,29509,29746,36160,2
0.0,0.0,0.0,15089,14385,29716,29805,36010,2
0.0,0.0,0.0,15089,13821,29597,29746,36085,2
0.0,0.0,0.0,15089,13205,29450,29657,36085,2
0.0,0.0,0.0,15058,13136,29450,29597,36010,2
0.0,0.0,0.0,15058,13122,29391,29597,36010,2
0.0,0.0,0.0,15043,13122,29391,29568,35898,2
0.0,0.0,0.0,15028,13150,29391,29568,35898,2
0.0,0.0,0.0,15043,13122,29450,29568,35972,2
0.0,0.0,0.0,15028,13454,29450,29657,35898,2
0.0,0.0,0.0,15089,14050,29538,29716,36010,2
0.0,0.0,0.0,15089,14741,29805,29775,35898,2
0.0,0.0,0.0,15058,14458,29686,29746,35787,2
0.0,0.0,0.0,15058,14079,29627,29716,35861,2
0.0,0.0,0.0,15058,13679,29538,29657,35861,2
0.0,0.0,0.0,15058,13721,29479,29657,35824,2
0.0,0.0,0.0,15089,14741,29627,29746,35935,2
0.0,0.0,0.0,15089,14370,29568,29746,35861,2
0.0,0.0,0.0,15043,13068,29538,29597,35861,2
0.0,0.0,0.0,15028,12583,29568,29538,35861,2
0.0,0.0,0.0,15058,12905,29509,29657,35935,2
0.0,0.0,0.0,15089,14756,29568,29775,35972,2
0.0,0.0,0.0,15104,14726,29597,29805,35861,2
0.0,0.0,0.0,15089,14607,29568,29865,35935,2
0.0,0.0,0.0,15089,14021,29538,29746,35861,2
0.0,0.0,0.0,15058,13510,29509,29746,35787,2
0.0,0.0,0.0,15074,13054,29509,29657,35861,2
0.0,0.0,0.0,15058,12851,29568,29568,35935,2
0.0,0.0,0.0,15058,12610,29509,29509,35898,2
0.0,0.0,0.0,15058,12438,29509,29538,35861,2
0.0,0.0,0.0,15013,12163,29509,29568,35898,2
0.0,0.0,0.0,14997,11855,29509,29538,35935,2
0.0,0.0,0.0,15013,11728,29538,29568,35898,2
0.0,0.0,0.0,15028,11653,29509,29509,35935,2
0.0,0.0,0.0,14967,11603,29509,29509,35898,2
0.0,0.0,0.0,14967,11590,29479,29509,35898,2
0.0,0.0,0.0,14967,11603,29509,29509,35824,2
0.0,0.0,0.0,14967,11565,29479,29450,35787,2
0.0,0.0,0.0,14967,11603,29450,29450,35861,2
0.0,0.0,0.0,14952,11678,29450,29450,35787,2
0.0,0.0,0.0,14922,11983,29391,29391,35861,2
0.0,0.0,0.0,14907,12163,29304,29391,35787,2
0.0,0.0,0.0,14922,11932,29304,29333,35749,2
0.0,0.0,0.0,14907,11603,29333,29333,35824,2
0.0,0.0,0.0,14907,11528,29274,29304,35749,2
0.0,0.0,0.0,14922,11503,29274,29333,35861,2
0.0,0.0,0.0,14907,11465,29274,29304,35749,2
0.0,0.0,0.0,14907,11354,29245,29245,35824,2
0.0,0.0,0.0,14907,11255,29304,29274,35861,2
0.0,0.0,0.0,14907,11206,29274,29274,35787,2
0.0,0.0,0.0,14891,11206,29274,29216,35861,2
0.0,0.0,0.0,14907,11157,29216,29216,35861,2
0.0,0.0,0.0,14876,11157,29333,29216,35787,2
0.0,0.0,0.0,14907,11133,29304,29158,35787,2
0.0,0.0,0.0,14907,11084,29274,29158,35787,2
0.0,0.0,0.0,14891,11084,29245,29158,35824,2
0.0,0.0,0.0,14846,11060,29187,29042,35787,2
0.0,0.0,0.0,14801,11036,29216,29042,35787,2
0.0,0.0,0.0,14846,11036,29187,29013,35712,2
0.0,0.0,0.0,14846,11366,29071,28955,35712,2
0.0,0.0,0.0,14846,11553,29158,29071,35639,2
0.0,0.0,0.0,14846,12556,29245,29158,35712,2
0.0,0.0,0.0,14846,12959,29304,29216,35749,2
0.0,0.0,0.0,14846,13177,29304,29158,35565,2
0.0,0.0,0.0,14846,13122,29274,29216,35749,2
0.0,0.0,0.0,14846,12797,29187,29100,35565,2
0.0,0.0,0.0,14801,12636,29158,29071,35492,2
0.0,0.0,0.0,14801,12610,29158,29100,35565,2
0.0,0.0,0.0,14801,12346,29100,29071,35492,2
0.0,0.0,0.0,14786,12137,29042,29042,35565,2
0.0,0.0,0.0,14771,11932,29042,29013,35565,2
0.0,0.0,0.0,14786,11792,29013,28984,35565,2
0.0,0.0,0.0,14786,11678,29042,29013,35528,2
0.0,0.0,0.0,14741,11603,28984,28927,35418,2
0.0,0.0,0.0,14786,11515,28984,28869,35418,2
0.0,0.0,0.0,14786,11540,28927,28840,35418,2
0.0,0.0,0.0,14756,11628,28927,28840,35345,2
0.0,0.0,0.0,14756,12099,29042,28955,35382,2
0.0,0.0,0.0,14741,12124,29042,28927,35345,2
0.0,0.0,0.0,14726,12047,28984,28898,35418,2
0.0,0.0,0.0,14741,11855,28898,28869,35418,2
0.0,0.0,0.0,14726,12372,29042,28927,35455,2
0.0,0.0,0.0,14756,13150,29274,29042,35382,2
0.0,0.0,0.0,14741,13594,29333,29129,35418,2
0.0,0.0,0.0,14756,12851,29071,28984,35272,2
0.0,0.0,0.0,14741,12372,29042,28955,35309,2
0.0,0.0,0.0,14726,12176,28984,28927,35345,2
0.0,0.0,0.0,14726,11919,28955,28927,35272,2
0.0,0.0,0.0,14726,11779,28927,28869,35382,2
0.0,0.0,0.0,14696,11653,28927,28869,35272,2
0.0,0.0,0.0,14726,11515,28927,28812,35345,2
0.0,0.0,0.0,14726,11416,28927,28812,35418,2
0.0,0.0,0.0,14666,11403,28840,28697,35345,2
0.0,0.0,0.0,14666,11465,28869,28754,35418,2
0.0,0.0,0.0,14696,12073,28869,28812,35382,2
0.0,0.0,0.0,14726,13013,28984,28869,35309,2
0.0,0.0,0.0,14756,13735,29274,29013,35382,2
0.0,0.0,0.0,14681,13287,29100,28955,35236,2
0.0,0.0,0.0,14681,13081,28955,28927,35236,2
0.0,0.0,0.0,14666,12610,28927,28840,35272,2
0.0,0.0,0.0,14681,12372,28840,28812,35199,2
0.0,0.0,0.0,14666,11957,28812,28812,35199,2
0.0,0.0,0.0,14666,11540,28869,28812,35272,2
0.0,0.0,0.0,14666,11354,28869,28812,35382,2
0.0,0.0,0.0,14651,11329,28812,28812,35345,2
0.0,0.0,0.0,14666,11317,28754,28754,35272,2
0.0,0.0,0.0,14666,11416,28726,28726,35272,2
0.0,0.0,0.0,14711,12610,28840,28840,35345,2
0.0,0.0,0.0,14681,13232,29042,28927,35272,2
0.0,0.0,0.0,14696,13482,29216,29071,35163,2
0.0,0.0,0.0,14666,13205,29071,29100,35127,2
0.0,0.0,0.0,14621,12810,28927,29013,34982,2
0.0,0.0,0.0,14636,12398,28812,28869,35018,2
0.0,0.0,0.0,14636,11830,28812,28812,35163,2
0.0,0.0,0.0,14621,11553,28812,28812,35199,2
0.0,0.0,0.0,14636,11453,28754,28754,35199,2
0.0,0.0,0.0,14621,11403,28812,28754,35272,2
0.0,0.0,0.0,14666,11603,28812,28812,35345,2
0.0,0.0,0.0,14696,12477,28869,28898,35272,2
0.0,0.0,0.0,14666,12797,28927,28927,35127,2
0.0,0.0,0.0,14666,12636,28812,28869,35055,2
0.0,0.0,0.0,14666,12424,28754,28869,35091,2
0.0,0.0,0.0,14666,12398,28754,28840,35091,2
0.0,0.0,0.0,14681,12073,28754,28754,35127,2
0.0,0.0,0.0,14696,11766,28726,28754,35199,2
0.0,0.0,0.0,14696,11653,28754,28697,35309,2
0.0,0.0,0.0,14786,11515,28869,28697,35382,2
0.0,0.0,0.0,14756,11465,28812,28612,35418,2
0.0,0.0,0.0,14741,11403,28840,28555,35565,2
0.0,0.0,0.0,14786,11304,28812,28498,35565,2
0.0,0.0,0.0,14801,11268,28840,28527,35345,2
0.0,0.0,0.0,14786,11206,28869,28527,35565,2
0.0,0.0,0.0,14786,11219,28812,28442,35455,2
0.0,0.0,0.0,14756,11219,28840,28414,35382,2
0.0,0.0,0.0,14726,11206,28812,28385,35455,2
0.0,0.0,0.0,14726,11304,28697,28414,35455,2
0.0,0.0,0.0,14666,11317,28612,28414,35236,2
0.0,0.0,0.0,14681,11354,28640,28385,35272,2
0.0,0.0,0.0,14666,11503,28640,28357,35309,2
0.0,0.0,0.0,14636,11804,28612,28385,35345,2
0.0,0.0,0.0,14696,12021,28640,28357,35418,2
0.0,0.0,0.0,14861,12797,28812,28555,35712,2
0.0,0.0,0.0,14907,13232,28984,28697,35565,2
0.0,0.0,0.0,14967,13510,29391,29158,35309,2
0.0,0.0,0.0,14997,13412,29568,29333,35163,2
0.0,0.0,0.0,15288,13454,29925,29835,35127,2
0.0,0.0,0.0,15273,13315,29805,29805,35163,2
0.0,0.0,0.0,15135,13122,29568,29509,35091,2
0.0,0.0,0.0,15089,13027,29450,29450,35055,2
0.0,0.0,0.0,15043,12451,29362,29216,35163,2
0.0,0.0,0.0,15028,12112,29333,29071,35018,2
0.0,0.0,0.0,14967,11728,29216,28927,35055,2
0.0,0.0,0.0,14967,11503,29158,28812,35055,2
0.0,0.0,0.0,14922,11465,29158,28812,35055,2
0.0,0.0,0.0,14907,11453,29071,28812,34982,2
0.0,0.0,0.0,14846,11453,29042,28754,34982,2
0.0,0.0,0.0,14876,11490,29042,28726,35018,2
0.0,0.0,0.0,14846,11703,28984,28726,34839,2
0.0,0.0,0.0,14861,12424,29071,28754,34731,2
0.0,0.0,0.0,14876,13122,29274,28840,34767,2
0.0,0.0,0.0,14846,13524,29421,29042,34731,2
0.0,0.0,0.0,14801,13921,29568,29216,34696,2
0.0,0.0,0.0,14846,14326,29657,29216,34696,2
0.0,0.0,0.0,14846,14108,29657,29274,34553,2
0.0,0.0,0.0,14846,14079,29627,29304,34624,2
0.0,0.0,0.0,14831,13935,29597,29274,34589,2
0.0,0.0,0.0,14846,13906,29568,29304,34660,2
0.0,0.0,0.0,14801,13821,29509,29216,34553,2
0.0,0.0,0.0,14801,13679,29509,29216,34589,2
0.0,0.0,0.0,14801,13622,29421,29216,34624,2
0.0,0.0,0.0,14786,13510,29391,29158,34553,2
0.0,0.0,0.0,14801,13454,29333,29129,34518,2
0.0,0.0,0.0,14801,13287,29333,29100,34553,2
0.0,0.0,0.0,14801,12851,29333,29042,34553,2
0.0,0.0,0.0,14801,12596,29274,28955,34624,2
0.0,0.0,0.0,14786,12490,29216,28927,34518,2
0.0,0.0,0.0,14786,12099,29129,28726,34553,2
0.0,0.0,0.0,14756,11855,29042,28697,34624,2
0.0,0.0,0.0,14786,11779,28984,28697,34518,2
0.0,0.0,0.0,14801,11728,29042,28754,34624,2
0.0,0.0,0.0,14786,11716,29071,28812,34624,2
0.0,0.0,0.0,14801,11716,29100,28726,34660,2
0.0,0.0,0.0,14846,11703,29100,28783,34624,2
0.0,0.0,0.0,14846,11716,29042,28754,34624,2
0.0,0.0,0.0,14846,11703,29042,28812,34696,2
0.0,0.0,0.0,14846,11703,29158,28812,34696,2
0.0,0.0,0.0,14876,11754,29042,28812,34696,2
0.0,0.0,0.0,14846,11792,29042,28754,34696,2
0.0,0.0,0.0,14861,11932,29071,28754,34660,2
0.0,0.0,0.0,14831,12215,29042,28783,34731,2
0.0,0.0,0.0,14801,12636,29158,28812,34696,2
0.0,0.0,0.0,14846,13538,29274,29042,34839,2
0.0,0.0,0.0,14891,14326,29479,29216,34839,2
0.0,0.0,0.0,14907,14846,29686,29333,34767,2
0.0,0.0,0.0,14937,15397,29835,29391,34839,2
0.0,0.0,0.0,14967,15710,29865,29716,34839,2
0.0,0.0,0.0,14937,15663,29865,29746,34839,2
0.0,0.0,0.0,14891,15058,29686,29746,34767,2
0.0,0.0,0.0,14846,14532,29746,29627,34696,2
0.0,0.0,0.0,14846,14311,29657,29568,34767,2
0.0,0.0,0.0,14846,14151,29568,29597,34731,2
0.0,0.0,0.0,14846,13679,29538,29391,34767,2
0.0,0.0,0.0,14786,13287,29450,29304,34839,2
0.0,0.0,0.0,14786,12932,29421,29245,34839,2
0.0,0.0,0.0,14771,12610,29333,29187,34839,2
0.0,0.0,0.0,14756,12124,29333,29158,34839,2
0.0,0.0,0.0,14786,12009,29333,29129,34696,2
0.0,0.0,0.0,14756,11906,29333,29100,34660,2
0.0,0.0,0.0,14726,11868,29274,29071,34696,2
0.0,0.0,0.0,14741,11855,29245,29042,34696,2
