GyroX,GyroY,GyroZ,Thumb,Index,Middle,Ring,Pinky,Gesture
0.0,0.0,0.0,16189,10301,38341,36010,40912,2
0.0,0.0,0.0,16173,10325,38180,35935,40868,2
0.0,0.0,0.0,16173,10301,38100,35861,40868,2
0.0,0.0,0.0,16189,10325,38059,35787,40780,2
0.0,0.0,0.0,16189,10313,38019,35676,40736,2
0.0,0.0,0.0,16173,10301,37940,35712,40519,2
0.0,0.0,0.0,16189,10325,37980,35639,40432,2
0.0,0.0,0.0,16189,10325,37940,35565,40432,2
0.0,0.0,0.0,16189,10313,37980,35565,40432,2
0.0,0.0,0.0,16173,10325,37980,35418,40173,2
0.0,0.0,0.0,16222,10325,37860,35309,40088,2
0.0,0.0,0.0,16157,10313,37940,35272,40002,2
0.0,0.0,0.0,16173,10313,37820,35309,39874,2
0.0,0.0,0.0,16157,10325,37781,35199,40002,2
0.0,0.0,0.0,16222,10325,37701,35199,39874,2
0.0,0.0,0.0,16222,10313,37622,35127,39747,2
0.0,0.0,0.0,16189,10313,37583,34982,39663,2
0.0,0.0,0.0,16222,10325,37504,34982,39327,2
0.0,0.0,0.0,16222,10313,37465,34874,39244,2
0.0,0.0,0.0,16173,10394,37426,34731,39077,2
0.0,0.0,0.0,16125,10499,37230,34412,38666,2
0.0,0.0,0.0,16157,10535,37075,34271,38666,2
0.0,0.0,0.0,16157,10441,36920,34130,38503,2
0.0,0.0,0.0,16189,10348,36767,34235,38341,2
0.0,0.0,0.0,16222,10371,36805,34165,38544,2
0.0,0.0,0.0,16238,10348,36767,34130,38422,2
0.0,0.0,0.0,16125,10441,36728,34026,38180,2
0.0,0.0,0.0,16093,10558,36614,33783,38059,2
0.0,0.0,0.0,16157,10499,36462,33645,37940,2
0.0,0.0,0.0,16206,10359,36462,33611,37940,2
0.0,0.0,0.0,16157,10371,36348,33576,37860,2
0.0,0.0,0.0,16109,10441,36310,33474,37701,2
0.0,0.0,0.0,16093,10676,36310,33439,37465,2
0.0,0.0,0.0,16287,10594,36047,33067,37386,2
0.0,0.0,0.0,16287,10348,36010,32966,37426,2
0.0,0.0,0.0,16254,10336,36010,32932,37386,2
0.0,0.0,0.0,16157,10488,36122,32932,37230,2
0.0,0.0,0.0,16109,10582,36047,32832,37230,2
0.0,0.0,0.0,16125,10441,35935,32799,37152,2
0.0,0.0,0.0,16141,10359,35935,32699,36959,2
0.0,0.0,0.0,16109,10488,35935,32799,36959,2
0.0,0.0,0.0,16109,10641,36010,32832,36920,2
0.0,0.0,0.0,16157,10546,35824,32633,36767,2
0.0,0.0,0.0,16157,10394,35861,32566,36690,2
0.0,0.0,0.0,16093,10418,35861,32666,36538,2
0.0,0.0,0.0,16093,10441,35861,32633,36499,2
0.0,0.0,0.0,16093,10418,35824,32666,36499,2
0.0,0.0,0.0,16060,10441,35712,32633,36499,2
0.0,0.0,0.0,16093,10418,35712,32533,36499,2
0.0,0.0,0.0,16076,10418,35749,32533,36538,2
0.0,0.0,0.0,16109,10418,35712,32566,36614,2
0.0,0.0,0.0,16093,10418,35639,32500,36538,2
0.0,0.0,0.0,16093,10418,35712,32500,36538,2
0.0,0.0,0.0,16125,10429,35712,32500,36499,2
0.0,0.0,0.0,16093,10418,35639,32500,36462,2
0.0,0.0,0.0,16109,10418,35639,32402,36386,2
0.0,0.0,0.0,16173,10418,35676,32500,36462,2
0.0,0.0,0.0,16222,10394,35602,32435,36462,2
0.0,0.0,0.0,16206,10418,35639,32435,36538,2
0.0,0.0,0.0,16222,10418,35565,32369,36499,2
0.0,0.0,0.0,16189,10394,35565,32369,36499,2
0.0,0.0,0.0,16206,10394,35418,32369,36348,2
0.0,0.0,0.0,16189,10418,35418,32369,36386,2
0.0,0.0,0.0,16189,10394,35455,32271,36424,2
0.0,0.0,0.0,16222,10394,35418,32238,36462,2
0.0,0.0,0.0,16222,10394,35455,32238,36462,2
0.0,0.0,0.0,16173,10394,35418,32238,36462,2
0.0,0.0,0.0,16157,10394,35418,32238,36424,2
0.0,0.0,0.0,16173,10394,35382,32238,36310,2
0.0,0.0,0.0,16157,10394,35345,32205,36424,2
0.0,0.0,0.0,16157,10418,35345,32173,36348,2
0.0,0.0,0.0,16157,10535,35345,32108,36272,2
0.0,0.0,0.0,16093,10629,35272,32043,36310,2
0.0,0.0,0.0,16076,10582,35272,32043,36310,2
0.0,0.0,0.0,16060,10582,35272,31978,36272,2
0.0,0.0,0.0,16076,10558,35199,31978,36197,2
0.0,0.0,0.0,16060,10535,35199,31978,36235,2
0.0,0.0,0.0,16044,10535,35272,32010,36197,2
0.0,0.0,0.0,16060,10535,35236,31946,36197,2
0.0,0.0,0.0,16076,10546,35199,31978,36235,2
0.0,0.0,0.0,16093,10535,35127,31978,36272,2
0.0,0.0,0.0,16060,10535,35163,31978,36235,2
0.0,0.0,0.0,16076,10535,35127,31849,36235,2
0.0,0.0,0.0,16060,10558,35199,31881,36235,2
0.0,0.0,0.0,16093,10546,35163,31913,36197,2
0.0,0.0,0.0,16093,10546,35163,31881,36160,2
0.0,0.0,0.0,16093,10582,35272,31913,36085,2
0.0,0.0,0.0,16028,10700,35272,31881,36047,2
0.0,0.0,0.0,16028,10819,35272,31849,35972,2
0.0,0.0,0.0,16028,10891,35345,31881,35898,2
0.0,0.0,0.0,16028,10843,35272,31881,35861,2
0.0,0.0,0.0,15980,10843,35236,31913,35935,2
0.0,0.0,0.0,16028,10807,35236,31849,35824,2
0.0,0.0,0.0,16044,10819,35199,31849,35787,2
0.0,0.0,0.0,15980,10819,35199,31785,35861,2
0.0,0.0,0.0,15996,10819,35127,31785,35787,2
0.0,0.0,0.0,15996,10783,35163,31752,35749,2
0.0,0.0,0.0,15980,10783,35055,31785,35787,2
0.0,0.0,0.0,15996,10807,35127,31720,35712,2
0.0,0.0,0.0,15996,10771,35091,31720,35712,2
0.0,0.0,0.0,15980,10783,35091,31752,35749,2
0.0,0.0,0.0,15996,10771,35055,31720,35712,2
0.0,0.0,0.0,16028,10748,35018,31752,35749,2
0.0,0.0,0.0,16028,10748,34982,31720,35749,2
0.0,0.0,0.0,15996,10748,35018,31688,35749,2
0.0,0.0,0.0,15996,10724,34982,31593,35712,2
0.0,0.0,0.0,15980,10724,34982,31656,35749,2
0.0,0.0,0.0,15980,10748,34982,31593,35712,2
0.0,0.0,0.0,15980,10724,34982,31624,35602,2
0.0,0.0,0.0,15996,10748,34982,31593,35639,2
0.0,0.0,0.0,16012,10748,34839,31529,35676,2
0.0,0.0,0.0,15980,10748,34982,31593,35712,2
0.0,0.0,0.0,15996,10771,34839,31529,35602,2
0.0,0.0,0.0,15996,10771,34874,31529,35639,2
0.0,0.0,0.0,15996,10748,34874,31561,35676,2
0.0,0.0,0.0,16028,10759,34874,31593,35639,2
0.0,0.0,0.0,16028,10771,34767,31593,35639,2
0.0,0.0,0.0,16028,10771,34839,31497,35639,2
0.0,0.0,0.0,16012,10771,34803,31593,35565,2
0.0,0.0,0.0,16028,10783,34803,31465,35639,2
0.0,0.0,0.0,16028,10795,34803,31465,35565,2
0.0,0.0,0.0,16060,10819,34839,31465,35565,2
0.0,0.0,0.0,16028,10795,34803,31529,35565,2
0.0,0.0,0.0,16060,10807,34767,31465,35565,2
0.0,0.0,0.0,16060,10819,34767,31529,35565,2
0.0,0.0,0.0,16093,10819,34803,31497,35639,2
0.0,0.0,0.0,16060,10819,34839,31497,35565,2
0.0,0.0,0.0,16093,10819,34839,31561,35565,2
0.0,0.0,0.0,16093,10831,34839,31497,35565,2
0.0,0.0,0.0,16060,10843,34767,31529,35565,2
0.0,0.0,0.0,16125,10819,34767,31529,35565,2
0.0,0.0,0.0,16093,10867,34731,31529,35528,2
0.0,0.0,0.0,16093,10843,34767,31529,35528,2
0.0,0.0,0.0,16125,10819,34767,31529,35565,2
0.0,0.0,0.0,16093,10819,34731,31593,35565,2
0.0,0.0,0.0,16093,10807,34660,31688,35528,2
0.0,0.0,0.0,16093,10819,34660,31465,35455,2
0.0,0.0,0.0,16093,10795,34624,31497,35272,2
0.0,0.0,0.0,16093,10819,34624,31402,35127,2
0.0,0.0,0.0,16093,10819,34624,31465,35127,2
0.0,0.0,0.0,16093,10819,34589,31465,35163,2
0.0,0.0,0.0,16093,10795,34624,31465,35163,2
0.0,0.0,0.0,16093,10819,34624,31402,35199,2
0.0,0.0,0.0,16093,10831,34553,31402,35055,2
0.0,0.0,0.0,16093,10819,34553,31465,35127,2
0.0,0.0,0.0,16093,10819,34589,31465,35127,2
0.0,0.0,0.0,16060,10831,34553,31402,35127,2
0.0,0.0,0.0,16093,10867,34553,31434,35127,2
0.0,0.0,0.0,16093,10867,34589,31402,35127,2
0.0,0.0,0.0,16060,10843,34553,31434,35018,2
0.0,0.0,0.0,16093,10867,34553,31402,35127,2
0.0,0.0,0.0,16060,10867,34589,31339,35091,2
0.0,0.0,0.0,16093,10867,34589,31307,35018,2
0.0,0.0,0.0,16093,10891,34553,31276,34946,2
0.0,0.0,0.0,16125,10891,34553,31370,35055,2
0.0,0.0,0.0,16093,10915,34553,31307,35055,2
0.0,0.0,0.0,16093,10915,34482,31276,35018,2
0.0,0.0,0.0,16093,10915,34518,31339,34946,2
0.0,0.0,0.0,16109,10915,34482,31213,35018,2
0.0,0.0,0.0,16109,10915,34447,31213,35055,2
0.0,0.0,0.0,16109,10915,34447,31213,34910,2
0.0,0.0,0.0,16076,10867,34447,31213,34910,2
0.0,0.0,0.0,16093,10795,34235,31150,34910,2
0.0,0.0,0.0,16076,10724,34271,31150,34910,2
0.0,0.0,0.0,16109,10676,34271,31150,34946,2
0.0,0.0,0.0,16093,10676,34271,30994,34839,2
0.0,0.0,0.0,16093,10641,34271,31150,34946,2
0.0,0.0,0.0,16125,10676,34412,31087,34874,2
0.0,0.0,0.0,16093,10939,34271,30962,34767,2
0.0,0.0,0.0,16093,11024,34200,30962,34767,2
0.0,0.0,0.0,16060,11012,34200,30962,34660,2
0.0,0.0,0.0,16093,10915,34130,30900,34624,2
0.0,0.0,0.0,16093,10771,33991,30838,34553,2
0.0,0.0,0.0,16109,10641,33956,30776,34482,2
0.0,0.0,0.0,16157,10605,33852,30838,34589,2
0.0,0.0,0.0,16141,10582,33852,30776,34589,2
0.0,0.0,0.0,16109,10582,33783,30776,34518,2
0.0,0.0,0.0,16093,10783,33748,30653,34447,2
0.0,0.0,0.0,16060,10939,33852,30745,34447,2
0.0,0.0,0.0,16060,10975,33852,30715,34341,2
0.0,0.0,0.0,16093,10927,33714,30622,34341,2
0.0,0.0,0.0,16093,10867,33645,30530,34200,2
0.0,0.0,0.0,16093,10653,33611,30499,34271,2
0.0,0.0,0.0,16125,10629,33611,30530,34341,2
0.0,0.0,0.0,16109,10617,33576,30469,34271,2
0.0,0.0,0.0,16109,10582,33576,30499,34200,2
0.0,0.0,0.0,16093,10676,33576,30469,34271,2
0.0,0.0,0.0,16060,10771,33576,30377,34165,2
0.0,0.0,0.0,16060,10867,33508,30408,34235,2
0.0,0.0,0.0,16093,10831,33439,30347,34200,2
0.0,0.0,0.0,16093,10819,33508,30347,34130,2
0.0,0.0,0.0,16093,10819,33439,30377,34130,2
0.0,0.0,0.0,16093,10795,33439,30347,34130,2
0.0,0.0,0.0,16093,10795,33371,30286,34026,2
0.0,0.0,0.0,16109,10759,33439,30286,34165,2
0.0,0.0,0.0,16093,10771,33405,30347,34026,2
0.0,0.0,0.0,16060,10891,33439,30317,34026,2
0.0,0.0,0.0,16044,10915,33439,30286,33991,2
0.0,0.0,0.0,16060,10927,33508,30286,33991,2
0.0,0.0,0.0,16093,10855,33405,30286,34060,2
0.0,0.0,0.0,16109,10748,33337,30165,34130,2
0.0,0.0,0.0,16093,10771,33269,30226,34130,2
0.0,0.0,0.0,16125,10771,33202,30226,34200,2
0.0,0.0,0.0,16125,10819,33269,30377,34412,2
0.0,0.0,0.0,16157,10891,33303,30469,34341,2
0.0,0.0,0.0,16141,10987,33236,30469,34341,2
0.0,0.0,0.0,16060,11036,33303,30591,34130,2
0.0,0.0,0.0,16093,10963,33236,30469,34200,2
0.0,0.0,0.0,16060,10915,33168,30377,34130,2
0.0,0.0,0.0,16060,10759,33168,30286,34200,2
0.0,0.0,0.0,15996,10771,33100,30377,34130,2
0.0,0.0,0.0,16028,10867,33100,30347,34200,2
0.0,0.0,0.0,15996,10963,33100,30347,34130,2
0.0,0.0,0.0,16028,11012,33168,30347,34026,2
0.0,0.0,0.0,16028,10963,33033,30347,34130,2
0.0,0.0,0.0,16028,10915,33033,30256,34026,2
0.0,0.0,0.0,16060,10724,33100,30347,34200,2
0.0,0.0,0.0,16028,10676,32999,30317,34130,2
0.0,0.0,0.0,16060,10676,33067,30347,34130,2
0.0,0.0,0.0,16060,10653,33067,30347,34165,2
0.0,0.0,0.0,16060,10676,33067,30286,34165,2
0.0,0.0,0.0,16060,10629,33168,30317,34130,2
0.0,0.0,0.0,16028,10629,33134,30347,34165,2
0.0,0.0,0.0,16060,10629,33236,30377,34130,2
0.0,0.0,0.0,16044,10629,33202,30286,34271,2
0.0,0.0,0.0,16028,10629,33168,30317,34235,2
0.0,0.0,0.0,16076,10641,33134,30286,34271,2
0.0,0.0,0.0,16028,10819,33134,30286,34271,2
0.0,0.0,0.0,16060,11012,33100,30226,34165,2
0.0,0.0,0.0,16028,11060,33067,30226,34130,2
0.0,0.0,0.0,16012,11036,33033,30195,34060,2
0.0,0.0,0.0,16028,11024,33033,30226,34095,2
0.0,0.0,0.0,16060,11012,32966,30165,34095,2
0.0,0.0,0.0,16060,10927,32932,30165,34060,2
0.0,0.0,0.0,16093,10795,33067,30195,34130,2
0.0,0.0,0.0,16060,10771,33134,30195,34060,2
0.0,0.0,0.0,16060,10748,33168,30165,34165,2
0.0,0.0,0.0,16028,10748,33100,30165,34130,2
0.0,0.0,0.0,16028,10771,33168,30165,34130,2
0.0,0.0,0.0,16012,10927,33100,30165,33991,2
0.0,0.0,0.0,15996,11072,33100,30075,33991,2
0.0,0.0,0.0,15996,11012,32966,30045,33991,2
0.0,0.0,0.0,16060,10748,32966,30105,33852,2
0.0,0.0,0.0,16060,10629,32932,30045,33956,2
0.0,0.0,0.0,16060,10629,32899,30045,33887,2
0.0,0.0,0.0,16060,10629,32999,30045,33991,2
0.0,0.0,0.0,16012,10771,32932,30045,34026,2
0.0,0.0,0.0,15996,11060,33033,30075,33921,2
0.0,0.0,0.0,15964,11157,33100,30075,33783,2
0.0,0.0,0.0,15964,11024,32899,30015,33714,2
0.0,0.0,0.0,15980,10748,32832,30045,33817,2
0.0,0.0,0.0,15964,10676,32832,29984,33852,2
0.0,0.0,0.0,15948,10724,32899,29955,33714,2
0.0,0.0,0.0,15932,11012,32899,30015,33645,2
0.0,0.0,0.0,15916,11060,32832,29984,33576,2
0.0,0.0,0.0,15916,10927,32699,29984,33576,2
0.0,0.0,0.0,15948,10783,32699,29895,33576,2
0.0,0.0,0.0,15964,10759,32699,29984,33576,2
0.0,0.0,0.0,15932,11084,32899,29925,33439,2
0.0,0.0,0.0,15964,11255,33439,30226,33405,2
0.0,0.0,0.0,15980,11157,33236,30015,33303,2
0.0,0.0,0.0,16028,10987,32966,29984,33439,2
0.0,0.0,0.0,16028,10891,32832,29925,33337,2
0.0,0.0,0.0,15980,10819,32899,29925,33371,2
0.0,0.0,0.0,15964,11060,32899,29984,33303,2
0.0,0.0,0.0,15900,11255,33303,29984,33236,2
0.0,0.0,0.0,15821,11170,33168,29925,33100,2
0.0,0.0,0.0,15932,10915,32932,29865,33269,2
0.0,0.0,0.0,15964,10795,32799,29835,33303,2
0.0,0.0,0.0,15964,10759,32765,29805,33371,2
0.0,0.0,0.0,15964,10748,32832,29746,33371,2
0.0,0.0,0.0,15980,10700,32699,29865,33303,2
0.0,0.0,0.0,15980,10700,32699,29805,33337,2
0.0,0.0,0.0,15964,10712,32799,29746,33337,2
0.0,0.0,0.0,15932,10712,32699,29746,33236,2
0.0,0.0,0.0,15964,10748,32765,29746,33202,2
0.0,0.0,0.0,15916,10819,32732,29746,33337,2
0.0,0.0,0.0,15900,11060,32732,29627,33100,2
0.0,0.0,0.0,15900,11133,32732,29657,33100,2
0.0,0.0,0.0,15868,11084,32699,29597,33067,2
0.0,0.0,0.0,15932,10843,32566,29627,33067,2
0.0,0.0,0.0,15932,10724,32500,29627,33236,2
0.0,0.0,0.0,15932,10700,32533,29686,33202,2
0.0,0.0,0.0,15900,10795,32599,29627,33168,2
0.0,0.0,0.0,15916,10831,32566,29568,33168,2
0.0,0.0,0.0,15916,10879,32500,29568,33236,2
0.0,0.0,0.0,15916,10867,32500,29627,33236,2
0.0,0.0,0.0,15932,10867,32500,29627,33100,2
0.0,0.0,0.0,15900,10903,32435,29627,33202,2
0.0,0.0,0.0,15932,10879,32402,29568,33100,2
0.0,0.0,0.0,15900,10903,32435,29509,33168,2
0.0,0.0,0.0,15916,10915,32435,29568,33134,2
0.0,0.0,0.0,15900,10915,32435,29538,33168,2
0.0,0.0,0.0,15884,10927,32402,29538,33168,2
0.0,0.0,0.0,15900,10891,32369,29568,33168,2
0.0,0.0,0.0,15916,10855,32369,29538,33100,2
0.0,0.0,0.0,15900,10843,32369,29538,33168,2
0.0,0.0,0.0,15900,10867,32303,29538,33100,2
0.0,0.0,0.0,15900,10867,32369,29568,33134,2
0.0,0.0,0.0,15900,10915,32369,29568,33168,2
0.0,0.0,0.0,15900,11036,32435,29509,33033,2
0.0,0.0,0.0,15900,11206,32467,29509,33033,2
0.0,0.0,0.0,15868,11157,32369,29509,32966,2
0.0,0.0,0.0,15900,10987,32303,29450,33033,2
0.0,0.0,0.0,15900,10819,32303,29538,33067,2
0.0,0.0,0.0,15932,10819,32271,29509,33067,2
0.0,0.0,0.0,15948,10819,32303,29509,33033,2
0.0,0.0,0.0,15916,10915,32303,29509,33033,2
0.0,0.0,0.0,15900,11084,32303,29450,32932,2
0.0,0.0,0.0,15900,11206,32303,29479,32932,2
0.0,0.0,0.0,15900,11157,32271,29450,32999,2
0.0,0.0,0.0,15900,11084,32238,29479,32932,2
0.0,0.0,0.0,15916,11072,32205,29450,32966,2
0.0,0.0,0.0,15900,11109,32173,29509,32966,2
0.0,0.0,0.0,15916,11157,32173,29421,32999,2
0.0,0.0,0.0,15900,11145,32173,29421,32899,2
0.0,0.0,0.0,15932,11096,32173,29391,32899,2
0.0,0.0,0.0,15964,10963,32108,29304,32899,2
0.0,0.0,0.0,15964,10927,32108,29333,32899,2
0.0,0.0,0.0,15964,10831,32043,29274,33033,2
0.0,0.0,0.0,16028,10748,32043,29362,33033,2
0.0,0.0,0.0,15964,10700,32043,29333,32966,2
0.0,0.0,0.0,15964,10700,32140,29421,32966,2
0.0,0.0,0.0,15980,10819,32075,29391,33067,2
0.0,0.0,0.0,15964,10819,32010,29333,32966,2
0.0,0.0,0.0,15964,10843,32075,29333,32932,2
0.0,0.0,0.0,15964,10867,32043,29274,32966,2
0.0,0.0,0.0,15964,10879,32043,29304,32966,2
0.0,0.0,0.0,15964,10891,32010,29304,32932,2
0.0,0.0,0.0,15964,10939,32010,29333,32932,2
0.0,0.0,0.0,15964,11012,32010,29274,32899,2
0.0,0.0,0.0,15964,11060,32043,29304,32932,2
0.0,0.0,0.0,15964,11084,32108,29274,32932,2
0.0,0.0,0.0,15996,11109,32010,29274,32899,2
0.0,0.0,0.0,15964,11157,32075,29304,32932,2
0.0,0.0,0.0,15964,11170,32043,29333,32999,2
0.0,0.0,0.0,15980,11243,32075,29333,32966,2
0.0,0.0,0.0,15964,11255,32075,29274,33033,2
0.0,0.0,0.0,15980,11317,32173,29362,32932,2
0.0,0.0,0.0,15980,11304,32173,29333,32899,2
0.0,0.0,0.0,15980,11304,32108,29333,32999,2
0.0,0.0,0.0,15964,11304,32075,29333,32966,2
0.0,0.0,0.0,15980,11304,32075,29274,32899,2
0.0,0.0,0.0,15980,11304,32075,29333,32932,2
0.0,0.0,0.0,15996,11304,32043,29274,32899,2
0.0,0.0,0.0,15980,11268,32075,29304,32899,2
0.0,0.0,0.0,15916,11255,32043,29216,32932,2
0.0,0.0,0.0,15964,11255,32010,29274,32832,2
0.0,0.0,0.0,15964,11133,32010,29245,32999,2
0.0,0.0,0.0,15980,11219,32010,29216,32899,2
0.0,0.0,0.0,15964,11206,32010,29245,32832,2
0.0,0.0,0.0,15948,11182,32075,29216,32899,2
0.0,0.0,0.0,15980,11182,32010,29216,32899,2
0.0,0.0,0.0,15964,11182,31978,29245,32832,2
0.0,0.0,0.0,15964,11182,31978,29216,33033,2
0.0,0.0,0.0,15964,11157,32010,29333,32932,2
0.0,0.0,0.0,15980,11170,31978,29158,32832,2
0.0,0.0,0.0,15980,11182,31978,29158,32899,2
0.0,0.0,0.0,15964,11157,31913,29187,32832,2
0.0,0.0,0.0,15996,11157,31978,29216,32866,2
0.0,0.0,0.0,15964,11157,31913,29158,32899,2
0.0,0.0,0.0,15964,11157,31946,29187,32899,2
0.0,0.0,0.0,15964,11157,31978,29216,32899,2
0.0,0.0,0.0,15964,11121,31881,29158,32899,2
0.0,0.0,0.0,15964,11157,31881,29216,32866,2
0.0,0.0,0.0,15996,11157,31913,29216,32899,2
0.0,0.0,0.0,15964,11182,31946,29216,32899,2
0.0,0.0,0.0,15964,11157,31849,29158,32765,2
0.0,0.0,0.0,15996,11157,31881,29158,32832,2
0.0,0.0,0.0,15964,11157,31849,29158,32899,2
0.0,0.0,0.0,15964,11157,31849,29216,32899,2
0.0,0.0,0.0,15964,11145,31913,29158,32832,2
0.0,0.0,0.0,15964,11157,31881,29187,32765,2
0.0,0.0,0.0,15948,11157,31913,29216,32899,2
0.0,0.0,0.0,15964,11145,31913,29100,32866,2
0.0,0.0,0.0,15948,11133,31913,29216,32799,2
0.0,0.0,0.0,15948,11133,31913,29158,32899,2
0.0,0.0,0.0,15932,11121,31849,29100,32899,2
0.0,0.0,0.0,15964,11121,31881,29187,32765,2
0.0,0.0,0.0,15980,11121,31688,29100,32832,2
0.0,0.0,0.0,15964,11145,31881,29129,32765,2
0.0,0.0,0.0,15964,11133,31913,29100,32832,2
0.0,0.0,0.0,15964,11145,31881,29158,32765,2
0.0,0.0,0.0,15964,11157,31849,29100,32832,2
0.0,0.0,0.0,15964,11157,31849,29158,32832,2
0.0,0.0,0.0,15964,11133,31881,29158,32799,2
0.0,0.0,0.0,15964,11121,31849,29129,32799,2
0.0,0.0,0.0,15964,11157,31785,29129,32765,2
0.0,0.0,0.0,15964,11109,31785,29100,32765,2
0.0,0.0,0.0,15948,11170,31849,29100,32765,2
0.0,0.0,0.0,15932,11157,31849,29158,32832,2
0.0,0.0,0.0,15964,11157,31849,29100,32832,2
0.0,0.0,0.0,15948,11157,31785,29100,32699,2
0.0,0.0,0.0,15916,11157,31817,29129,32832,2
0.0,0.0,0.0,15964,11157,31785,29100,32765,2
0.0,0.0,0.0,15964,11157,31785,29071,32765,2
0.0,0.0,0.0,15964,11121,31849,29100,32765,2
0.0,0.0,0.0,15964,11157,31817,29129,32765,2
0.0,0.0,0.0,15964,11121,31785,29100,32765,2
0.0,0.0,0.0,15932,11157,31785,29100,32765,2
0.0,0.0,0.0,15932,11157,31817,29100,32765,2
0.0,0.0,0.0,15932,11157,31817,29042,32832,2
0.0,0.0,0.0,15900,11157,31817,29042,32832,2
0.0,0.0,0.0,15964,11157,31785,29042,32732,2
0.0,0.0,0.0,15916,11157,31817,29100,32799,2
0.0,0.0,0.0,15964,11157,31752,29042,32765,2
0.0,0.0,0.0,15900,11170,31817,29071,32765,2
0.0,0.0,0.0,15900,11157,31752,29042,32732,2
0.0,0.0,0.0,15932,11133,31752,29071,32765,2
0.0,0.0,0.0,15964,11121,31785,29042,32832,2
0.0,0.0,0.0,15900,11133,31785,29100,32799,2
0.0,0.0,0.0,15932,11133,31752,29042,32699,2
0.0,0.0,0.0,15932,11109,31752,29013,32699,2
0.0,0.0,0.0,15900,11109,31752,29042,32765,2
0.0,0.0,0.0,15932,11109,31752,29042,32666,2
0.0,0.0,0.0,15948,11109,31752,29042,32699,2
0.0,0.0,0.0,15916,11121,31752,28984,32765,2
0.0,0.0,0.0,15932,11109,31720,29042,32732,2
0.0,0.0,0.0,15964,11109,31752,29042,32765,2
0.0,0.0,0.0,15916,11109,31720,29013,32732,2
0.0,0.0,0.0,15916,11109,31720,29042,32765,2
0.0,0.0,0.0,15964,11133,31720,29013,32666,2
0.0,0.0,0.0,15916,11109,31624,28984,32666,2
0.0,0.0,0.0,15964,11121,31720,29042,32699,2
0.0,0.0,0.0,15964,11121,31720,29042,32732,2
0.0,0.0,0.0,15964,11109,31720,29013,32699,2
0.0,0.0,0.0,15964,11109,31720,29042,32765,2
0.0,0.0,0.0,15932,11109,31720,29042,32699,2
0.0,0.0,0.0,15932,11109,31720,29042,32732,2
0.0,0.0,0.0,15964,11109,31720,28955,32765,2
0.0,0.0,0.0,15964,11036,31593,28955,32765,2
0.0,0.0,0.0,15964,10963,31624,28984,32765,2
0.0,0.0,0.0,15996,10939,31624,28927,32765,2
0.0,0.0,0.0,15980,10927,31624,28955,32765,2
0.0,0.0,0.0,15964,10927,31593,28984,32799,2
0.0,0.0,0.0,15964,10939,31624,28955,32799,2
0.0,0.0,0.0,15980,10951,31529,28955,32666,2
0.0,0.0,0.0,15964,10939,31561,29013,32799,2
0.0,0.0,0.0,15980,10915,31529,28984,32765,2
0.0,0.0,0.0,15980,10963,31497,28927,32699,2
0.0,0.0,0.0,15996,10963,31593,28927,32732,2
0.0,0.0,0.0,15980,10963,31561,28984,32699,2
0.0,0.0,0.0,15964,10987,31529,28927,32666,2
0.0,0.0,0.0,15964,10975,31529,28984,32699,2
0.0,0.0,0.0,15964,10987,31465,28955,32765,2
0.0,0.0,0.0,15964,10963,31529,28984,32732,2
0.0,0.0,0.0,15980,10987,31529,28927,32633,2
0.0,0.0,0.0,15964,10975,31529,28984,32765,2
0.0,0.0,0.0,15964,10963,31497,28927,32732,2
0.0,0.0,0.0,15948,10963,31529,28984,32699,2
0.0,0.0,0.0,15964,10987,31465,28898,32765,2
0.0,0.0,0.0,15964,10987,31465,28955,32699,2
0.0,0.0,0.0,15980,10987,31529,28898,32699,2
0.0,0.0,0.0,15948,10963,31465,28955,32699,2
0.0,0.0,0.0,15964,10963,31497,28927,32699,2
0.0,0.0,0.0,15964,10975,31465,28869,32666,2
0.0,0.0,0.0,15996,10987,31497,28898,32765,2
0.0,0.0,0.0,15948,10927,31497,28927,32666,2
0.0,0.0,0.0,15964,10987,31529,28927,32765,2
0.0,0.0,0.0,15948,11012,31497,28898,32799,2
0.0,0.0,0.0,15964,11012,31465,28898,32699,2
0.0,0.0,0.0,15932,11024,31465,28898,32633,2
0.0,0.0,0.0,15964,11012,31434,28927,32699,2
0.0,0.0,0.0,15964,11012,31465,28869,32699,2
0.0,0.0,0.0,15916,10999,31402,28927,32633,2
0.0,0.0,0.0,15900,11012,31465,28927,32633,2
0.0,0.0,0.0,15948,11024,31434,28840,32699,2
0.0,0.0,0.0,15916,11060,31465,28869,32633,2
0.0,0.0,0.0,15916,11060,31370,28812,32633,2
0.0,0.0,0.0,15900,11060,31465,28927,32732,2
0.0,0.0,0.0,15900,11060,31465,28898,32633,2
0.0,0.0,0.0,15932,11084,31402,28869,32599,2
0.0,0.0,0.0,15964,11096,31497,28927,32732,2
0.0,0.0,0.0,15964,11121,31529,28927,32699,2
0.0,0.0,0.0,15964,11109,31497,28927,32633,2
0.0,0.0,0.0,15964,11109,31465,28840,32566,2
0.0,0.0,0.0,15964,11109,31465,28869,32633,2
0.0,0.0,0.0,15916,11109,31465,28812,32566,2
0.0,0.0,0.0,15932,11109,31402,28869,32599,2
0.0,0.0,0.0,15932,11109,31402,28812,32633,2
0.0,0.0,0.0,15932,11096,31370,28840,32633,2
0.0,0.0,0.0,15932,11084,31402,28812,32500,2
0.0,0.0,0.0,15932,11060,31402,28840,32566,2
0.0,0.0,0.0,15932,11012,31434,28869,32633,2
0.0,0.0,0.0,15964,10963,31465,28869,32633,2
0.0,0.0,0.0,15916,11024,31402,28812,32566,2
0.0,0.0,0.0,15932,11084,31402,28869,32633,2
0.0,0.0,0.0,15900,11292,31465,28812,32566,2
0.0,0.0,0.0,15900,11379,31465,28754,32533,2
0.0,0.0,0.0,15900,11268,31370,28783,32533,2
0.0,0.0,0.0,15916,11255,31339,28754,32467,2
0.0,0.0,0.0,15932,11206,31339,28726,32500,2
0.0,0.0,0.0,15900,11206,31276,28726,32435,2
0.0,0.0,0.0,15932,11194,31244,28669,32435,2
0.0,0.0,0.0,15932,11170,31339,28697,32500,2
0.0,0.0,0.0,15964,11182,31339,28697,32500,2
0.0,0.0,0.0,15932,11182,31276,28726,32500,2
0.0,0.0,0.0,15900,11206,31276,28754,32435,2
0.0,0.0,0.0,15900,11170,31276,28697,32435,2
0.0,0.0,0.0,15900,11206,31244,28697,32435,2
0.0,0.0,0.0,15900,11182,31244,28697,32402,2
0.0,0.0,0.0,15900,11182,31244,28697,32500,2
0.0,0.0,0.0,15900,11182,31276,28697,32435,2
0.0,0.0,0.0,15932,11182,31244,28669,32402,2
0.0,0.0,0.0,15916,11157,31213,28697,32500,2
0.0,0.0,0.0,15932,11170,31213,28640,32402,2
0.0,0.0,0.0,15916,11182,31244,28697,32435,2
0.0,0.0,0.0,15900,11182,31244,28669,32402,2
0.0,0.0,0.0,15916,11206,31213,28640,32500,2
0.0,0.0,0.0,15900,11182,31213,28697,32435,2
0.0,0.0,0.0,15916,11170,31244,28697,32500,2
0.0,0.0,0.0,15900,11182,31181,28612,32500,2
0.0,0.0,0.0,15948,11182,31213,28640,32402,2
0.0,0.0,0.0,15932,11170,31244,28583,32467,2
0.0,0.0,0.0,15964,11157,31213,28640,32467,2
0.0,0.0,0.0,16060,11157,31119,28697,32500,2
0.0,0.0,0.0,16060,11109,31213,28669,32533,2
0.0,0.0,0.0,16060,11024,31119,28612,32533,2
0.0,0.0,0.0,16060,11024,31150,28697,32533,2
0.0,0.0,0.0,16060,11036,31119,28669,32500,2
0.0,0.0,0.0,16028,11072,31150,28697,32467,2
0.0,0.0,0.0,16028,11060,31119,28612,32500,2
0.0,0.0,0.0,16028,11060,31119,28640,32402,2
0.0,0.0,0.0,15996,11072,31181,28612,32369,2
0.0,0.0,0.0,16028,11109,31087,28612,32435,2
0.0,0.0,0.0,16028,11109,31150,28640,32402,2
0.0,0.0,0.0,16012,11096,31087,28612,32500,2
0.0,0.0,0.0,15980,11084,31087,28640,32500,2
0.0,0.0,0.0,15996,11109,31119,28583,32402,2
0.0,0.0,0.0,16028,11109,31087,28583,32435,2
0.0,0.0,0.0,16028,11109,31087,28583,32369,2
0.0,0.0,0.0,15996,11109,31025,28612,32435,2
0.0,0.0,0.0,16012,11109,31150,28583,32402,2
0.0,0.0,0.0,16012,11096,31119,28612,32435,2
0.0,0.0,0.0,16028,11072,31087,28583,32435,2
0.0,0.0,0.0,16028,11036,31087,28555,32435,2
0.0,0.0,0.0,16028,11121,31025,28583,32435,2
0.0,0.0,0.0,16028,11084,31087,28640,32369,2
0.0,0.0,0.0,16028,11109,31025,28583,32500,2
0.0,0.0,0.0,16028,11133,31087,28583,32369,2
0.0,0.0,0.0,15996,11109,31087,28583,32500,2
0.0,0.0,0.0,16012,11109,31087,28583,32435,2
0.0,0.0,0.0,16028,11133,31056,28583,32369,2
0.0,0.0,0.0,15996,11121,31025,28583,32435,2
0.0,0.0,0.0,16028,11121,31025,28555,32369,2
0.0,0.0,0.0,16028,11121,31087,28583,32435,2
0.0,0.0,0.0,15996,11121,31025,28640,32435,2
0.0,0.0,0.0,15996,11109,31025,28583,32500,2
0.0,0.0,0.0,16012,11109,30994,28583,32435,2
0.0,0.0,0.0,15996,11133,31025,28527,32435,2
0.0,0.0,0.0,15996,11121,31025,28583,32435,2
0.0,0.0,0.0,16028,11109,30994,28527,32402,2
0.0,0.0,0.0,15996,11121,31087,28527,32402,2
0.0,0.0,0.0,15996,11109,31025,28555,32435,2
0.0,0.0,0.0,15996,11109,30962,28527,32435,2
0.0,0.0,0.0,15996,11133,31025,28527,32369,2
0.0,0.0,0.0,15996,11133,30994,28527,32369,2
0.0,0.0,0.0,15996,11109,30994,28555,32369,2
0.0,0.0,0.0,15964,11109,30994,28527,32369,2
0.0,0.0,0.0,16028,11109,30962,28498,32402,2
0.0,0.0,0.0,15980,11133,30962,28527,32369,2
0.0,0.0,0.0,15996,11121,30962,28527,32369,2
0.0,0.0,0.0,15980,11109,30962,28527,32435,2
0.0,0.0,0.0,15980,11121,30994,28527,32402,2
0.0,0.0,0.0,15980,11121,30962,28498,32402,2
0.0,0.0,0.0,15980,11109,30994,28527,32435,2
0.0,0.0,0.0,15996,11109,30962,28583,32369,2
0.0,0.0,0.0,15996,11109,30900,28442,32369,2
0.0,0.0,0.0,15964,11109,30962,28470,32369,2
0.0,0.0,0.0,15996,11109,30931,28470,32369,2
0.0,0.0,0.0,15980,11109,30962,28527,32435,2
0.0,0.0,0.0,15980,11109,30994,28498,32369,2
0.0,0.0,0.0,15964,11109,30900,28498,32369,2
0.0,0.0,0.0,15964,11109,30869,28498,32402,2
0.0,0.0,0.0,15964,11109,30962,28470,32369,2
0.0,0.0,0.0,15964,11133,30931,28498,32369,2
0.0,0.0,0.0,15964,11109,30962,28498,32369,2
0.0,0.0,0.0,15964,11109,30962,28498,32435,2
0.0,0.0,0.0,15996,11145,30994,28470,32303,2
0.0,0.0,0.0,15964,11109,30900,28470,32369,2
0.0,0.0,0.0,15964,11109,30962,28498,32369,2
0.0,0.0,0.0,15964,11109,30931,28470,32369,2
0.0,0.0,0.0,15964,11109,30931,28470,32303,2
0.0,0.0,0.0,16012,11133,30900,28498,32369,2
0.0,0.0,0.0,15980,11109,30869,28470,32369,2
0.0,0.0,0.0,15980,11133,30869,28470,32303,2
0.0,0.0,0.0,15964,11121,30869,28470,32303,2
0.0,0.0,0.0,15964,11109,30900,28470,32271,2
0.0,0.0,0.0,15964,11133,30838,28414,32303,2
0.0,0.0,0.0,15964,11109,30869,28442,32303,2
0.0,0.0,0.0,15980,11084,30838,28470,32336,2
0.0,0.0,0.0,16028,11060,30869,28470,32369,2
0.0,0.0,0.0,15964,11060,30869,28470,32336,2
0.0,0.0,0.0,15964,11060,30869,28357,32303,2
0.0,0.0,0.0,15996,11024,30776,28414,32238,2
0.0,0.0,0.0,15996,10987,30776,28470,32271,2
0.0,0.0,0.0,15964,10963,30838,28470,32303,2
0.0,0.0,0.0,15996,10915,30838,28414,32238,2
0.0,0.0,0.0,15964,10999,30776,28414,32303,2
0.0,0.0,0.0,15932,11304,30807,28385,32271,2
0.0,0.0,0.0,15964,11428,30807,28357,32173,2
0.0,0.0,0.0,15916,11478,30869,28414,32238,2
0.0,0.0,0.0,15916,11416,30838,28357,32238,2
0.0,0.0,0.0,15900,11403,30776,28301,32205,2
0.0,0.0,0.0,15916,11219,30715,28301,32238,2
0.0,0.0,0.0,15980,11133,30684,28357,32205,2
0.0,0.0,0.0,15964,11072,30622,28301,32271,2
0.0,0.0,0.0,15916,11072,30622,28357,32303,2
0.0,0.0,0.0,15948,11060,30591,28301,32238,2
0.0,0.0,0.0,15916,11231,30622,28301,32238,2
0.0,0.0,0.0,15900,11478,30653,28301,32173,2
0.0,0.0,0.0,15868,11503,30684,28301,32043,2
0.0,0.0,0.0,15884,11416,30684,28301,32140,2
0.0,0.0,0.0,15868,11354,30591,28189,32075,2
0.0,0.0,0.0,15900,11206,30561,28245,32173,2
0.0,0.0,0.0,15900,11157,30561,28301,32173,2
0.0,0.0,0.0,15900,11145,30715,28357,32238,2
0.0,0.0,0.0,15900,11157,30715,28301,32271,2
0.0,0.0,0.0,15900,11170,30715,28385,32173,2
0.0,0.0,0.0,15868,11329,30745,28301,32238,2
0.0,0.0,0.0,15852,11603,30776,28414,32238,2
0.0,0.0,0.0,15868,11628,30838,28357,32205,2
0.0,0.0,0.0,15837,11528,30807,28357,32173,2
0.0,0.0,0.0,15868,11304,30653,28357,32336,2
0.0,0.0,0.0,15868,11206,30622,28329,32303,2
0.0,0.0,0.0,15868,11170,30591,28301,32271,2
0.0,0.0,0.0,15868,11182,30591,28329,32336,2
0.0,0.0,0.0,15837,11280,30653,28357,32271,2
0.0,0.0,0.0,15789,11553,30622,28245,32108,2
0.0,0.0,0.0,15821,11615,30715,28301,32108,2
0.0,0.0,0.0,15789,11465,30591,28245,32010,2
0.0,0.0,0.0,15789,11453,30561,28217,32043,2
0.0,0.0,0.0,15852,11379,30530,28133,32043,2
0.0,0.0,0.0,15837,11329,30469,28105,32108,2
0.0,0.0,0.0,15837,11268,30469,28133,32108,2
0.0,0.0,0.0,15837,11206,30469,28133,32108,2
0.0,0.0,0.0,15837,11182,30377,28105,32140,2
0.0,0.0,0.0,15868,11206,30408,28161,32173,2
0.0,0.0,0.0,15837,11170,30408,28133,32108,2
0.0,0.0,0.0,15837,11366,30469,28133,32043,2
0.0,0.0,0.0,15789,11453,30469,28133,32108,2
0.0,0.0,0.0,15837,11317,30347,28133,32010,2
0.0,0.0,0.0,15964,11024,30317,28161,32238,2
0.0,0.0,0.0,16028,11024,30286,28105,32205,2
0.0,0.0,0.0,15996,11024,30286,28022,32205,2
0.0,0.0,0.0,15964,11133,30286,28077,32140,2
0.0,0.0,0.0,15964,11366,30286,28022,32173,2
0.0,0.0,0.0,15932,11528,30377,28022,32043,2
0.0,0.0,0.0,15964,11665,30377,28049,32108,2
0.0,0.0,0.0,15932,11716,30530,28105,32043,2
0.0,0.0,0.0,15964,11855,30561,28049,32043,2
0.0,0.0,0.0,15964,11855,30499,28077,32043,2
0.0,0.0,0.0,15964,11919,30591,28077,32010,2
0.0,0.0,0.0,15964,12086,30715,28133,31978,2
0.0,0.0,0.0,15964,12267,30900,28245,31978,2
0.0,0.0,0.0,15996,12320,30838,28245,31913,2
0.0,0.0,0.0,15964,12530,30994,28245,31913,2
0.0,0.0,0.0,15948,12716,31087,28245,31849,2
0.0,0.0,0.0,15964,12716,31025,28245,31849,2
0.0,0.0,0.0,15964,12716,31025,28301,31849,2
0.0,0.0,0.0,15964,12690,30962,28245,31849,2
0.0,0.0,0.0,15964,12743,31025,28245,31752,2
0.0,0.0,0.0,15964,12851,30994,28245,31849,2
0.0,0.0,0.0,15964,12905,31056,28217,31881,2
0.0,0.0,0.0,15932,12959,31025,28273,31752,2
0.0,0.0,0.0,15964,13081,31056,28189,31849,2
0.0,0.0,0.0,15964,13177,31087,28245,31752,2
0.0,0.0,0.0,15964,13068,30962,28189,31752,2
0.0,0.0,0.0,15964,12959,30931,28189,31817,2
0.0,0.0,0.0,15964,12959,30900,28189,31785,2
0.0,0.0,0.0,15980,12905,30838,28161,31785,2
0.0,0.0,0.0,15964,12837,30776,28161,31785,2
0.0,0.0,0.0,15964,12756,30745,28161,31720,2
0.0,0.0,0.0,15948,12690,30715,28161,31720,2
0.0,0.0,0.0,15980,12649,30715,28133,31752,2
0.0,0.0,0.0,15964,12583,30715,28133,31785,2
0.0,0.0,0.0,15916,12556,30684,28189,31785,2
0.0,0.0,0.0,15964,12398,30622,28133,31849,2
0.0,0.0,0.0,15980,12086,30591,28133,31785,2
0.0,0.0,0.0,15964,11881,30530,28133,31849,2
0.0,0.0,0.0,15964,11766,30561,28105,31817,2
0.0,0.0,0.0,15964,11754,30530,28133,31881,2
0.0,0.0,0.0,15964,11906,30499,28105,31881,2
0.0,0.0,0.0,15980,12306,30622,28161,31849,2
0.0,0.0,0.0,15900,12556,30715,28189,31720,2
0.0,0.0,0.0,15916,12163,30591,28133,31688,2
0.0,0.0,0.0,15900,11653,30622,28133,31688,2
0.0,0.0,0.0,15900,11553,30561,28133,31752,2
0.0,0.0,0.0,15916,11354,30591,28077,31785,2
0.0,0.0,0.0,15900,11329,30530,28077,31785,2
0.0,0.0,0.0,15916,11255,30530,28049,31720,2
0.0,0.0,0.0,15900,11255,30499,28077,31785,2
0.0,0.0,0.0,15900,11206,30530,28077,31785,2
0.0,0.0,0.0,15884,11206,30469,28049,31785,2
0.0,0.0,0.0,15900,11182,30469,28049,31720,2
0.0,0.0,0.0,15837,11170,30530,28049,31656,2
0.0,0.0,0.0,15900,11170,30499,28022,31688,2
0.0,0.0,0.0,15916,11121,30530,28049,31720,2
0.0,0.0,0.0,15964,11145,30469,28077,31688,2
0.0,0.0,0.0,15932,11096,30469,28022,31688,2
0.0,0.0,0.0,15916,11084,30499,28022,31752,2
0.0,0.0,0.0,15916,11109,30469,28049,31785,2
0.0,0.0,0.0,15916,11084,30469,28022,31913,2
0.0,0.0,0.0,15900,11060,30408,28049,31785,2
0.0,0.0,0.0,15900,11060,30469,28049,31817,2
0.0,0.0,0.0,15916,11036,30438,28022,31849,2
0.0,0.0,0.0,15948,11060,30408,28022,31817,2
0.0,0.0,0.0,15900,11036,30469,28022,31720,2
0.0,0.0,0.0,15932,11084,30469,27966,31752,2
0.0,0.0,0.0,15868,11109,30377,27966,31720,2
0.0,0.0,0.0,15916,11133,30347,27966,31720,2
0.0,0.0,0.0,15884,11133,30377,27939,31720,2
