GyroX,GyroY,GyroZ,Thumb,Index,Middle,Ring,Pinky,Gesture
-13,5,-1,19708,16565,12891,12215,11944,1
-24,4,-10,19708,16450,12932,12215,11957,1
16,11,2,19766,16499,12945,12228,11906,1
16,2,6,19805,16483,12905,12163,11868,1
-2,-2,-1,19689,16483,12959,12150,11881,1
4,3,-3,19708,16549,12932,12137,11957,1
11,-5,4,19766,16450,12972,12228,11970,1
-8,13,-6,19766,16565,12905,12176,11893,1
-6,2,-3,19727,16450,12905,12163,11932,1
0,22,-11,19766,16450,12999,12176,11919,1
-4,16,-6,19882,16549,12999,12163,11932,1
-109,32,-33,20196,17478,12905,12215,11970,1
-14,-60,-22,20256,17722,13027,13510,15181,1
-38,-18,-49,20555,17774,13693,15459,17220,1
-61,30,30,21229,18057,13384,13821,13454,1
-26,-4,20,21818,18326,13301,12918,12060,1
12,-60,26,21796,18290,13315,12703,11678,1
1,-32,17,21648,18254,13218,12676,11565,1
11,-17,20,21627,18129,13218,12504,11453,1
-57,-22,31,21291,18362,13191,12372,11354,1
-18,-86,56,20961,19554,13315,12333,11403,1
-22,-26,10,20899,20256,13232,12359,11304,1
26,93,5,22488,21064,13274,12320,11403,1
47,-8,37,24318,21882,13398,12320,11379,1
-3,-40,-6,25019,22053,13343,12346,11354,1
-58,-7,-9,25616,22313,13301,12293,11416,1
-58,79,-35,26099,22401,13232,12267,11354,1
-8,14,-2,25894,22488,13260,12320,11354,1
-11,-22,1,25869,22313,13191,12189,11329,1
5,-14,17,25216,21924,13191,12215,11329,1
14,-16,12,24702,21563,13301,12215,11329,1
11,-59,23,23754,20859,13287,12267,11403,1
23,-46,85,23684,20716,13232,12346,11391,1
-26,1,-16,23522,20636,13232,12320,11366,1
-38,105,-19,23569,20475,13287,12293,11403,1
11,26,-5,23499,20256,13315,12254,11354,1
11,7,-22,23777,20216,13218,12293,11403,1
15,70,-13,24582,20275,13274,12346,11428,1
-25,-20,-2,25616,20039,13343,12372,11403,1
-4,24,-11,27581,19458,13315,12346,11453,1
27,37,-4,28612,19249,13287,12320,11428,1
-42,35,-11,27499,19005,13343,12346,11465,1
-9,25,-18,27256,18968,13287,12280,11403,1
38,26,-7,26882,18987,13343,12280,11465,1
44,8,-1,26618,18931,13218,12346,11403,1
22,1,4,26047,18857,13287,12267,11416,1
33,-13,13,24921,18783,13315,12346,11379,1
-40,-1,9,24462,18838,13274,12372,11453,1
-26,-10,-4,24058,19005,13301,12267,11379,1
-34,-12,-4,23870,18949,13287,12280,11379,1
-46,-31,5,23940,18949,13287,12372,11453,1
11,-35,26,23800,18949,13343,12267,11366,1
-1,-60,18,23754,18875,13343,12267,11553,1
116,-5,8,23777,18857,13136,12320,11565,1
92,-2,11,23684,18727,12663,12086,11628,1
48,-73,39,23754,18820,12530,12073,11703,1
-40,-60,-4,23615,18727,12504,12137,11653,1
191,-17,28,23569,18727,12398,12086,11703,1
99,-17,16,23316,18820,12267,12163,11754,1
43,-88,-2,23294,18912,11881,11957,11628,1
-50,-2,-13,23316,18931,11653,11741,11565,1
-16,57,-22,23203,18783,11615,11653,11565,1
-26,-28,14,23408,18783,11553,11665,11428,1
-35,13,0,23499,18801,11540,11615,11428,1
-3,-24,0,23431,18857,11565,11628,11292,1
-48,-33,6,23477,18727,11553,11565,11243,1
6,-10,6,23431,18727,11603,11603,11206,1
3,-11,15,23522,18783,11603,11603,11182,1
22,18,1,23499,18654,11528,11615,11255,1
12,-12,0,23522,18635,11515,11640,11182,1
-19,31,-6,23431,18709,11565,11603,11133,1
8,36,-10,23615,18727,11503,11540,11206,1
29,21,1,23569,18709,11465,11515,11170,1
14,48,-56,23499,18562,11540,11553,11182,1
-10,-2,-4,23431,18581,11540,11553,11206,1
-22,-1,1,23339,18635,11578,11590,11206,1
-12,-11,0,23271,18617,11553,11553,11206,1
-24,-6,-1,23022,18562,11628,11528,11157,1
2,-11,7,22488,18635,11653,11540,11170,1
-8,11,-3,22335,18727,11578,11615,11255,1
57,-6,0,21903,18783,11665,11578,11206,1
17,-34,13,21312,18562,11665,11653,11231,1
40,24,-11,21291,18004,11678,11565,11170,1
22,22,-8,21167,17565,11716,11678,11255,1
-34,8,-43,21796,17933,11754,11665,11194,1
28,38,-18,23157,18581,11691,11754,11219,1
31,30,-37,23847,19005,11792,11779,11231,1
30,-48,-8,23454,18987,12112,12215,11428,1
3,14,7,22932,18894,12623,12756,12124,1
-22,-27,19,22776,18691,12610,12864,13622,1
-45,10,0,22731,18672,12623,12824,13177,1
-21,-34,12,22687,18672,12610,12743,12215,1
10,-32,-14,22843,18635,12583,12636,11804,1
3,-17,0,22955,18635,12636,12477,11603,1
26,26,-3,23022,18635,12556,12451,11403,1
-52,-24,15,23044,18599,12517,12163,11206,1
-13,-36,30,23022,18635,12424,12009,11157,1
59,35,-16,23044,18562,12464,12060,11157,1
28,13,14,22576,18562,12490,12009,11109,1
-42,-3,1,22140,18562,12438,12060,11036,1
40,-19,17,21860,18417,12530,11970,11121,1
-16,-12,4,21500,16949,12583,11957,11121,1
33,38,-10,21458,16983,12490,12009,11157,1
-42,31,29,21500,17084,12504,12086,11121,1
-20,-33,48,21458,17426,12530,12112,11206,1
-33,-64,30,21416,18218,12770,12060,11255,1
-15,-4,25,21416,18801,12932,12047,11170,1
17,26,4,21882,19458,12918,12060,11206,1
86,67,-100,24081,20375,13122,12086,11268,1
35,-36,0,23800,21500,13964,12060,11194,1
-96,-1,-19,23248,22576,14681,12073,11157,1
-1,-62,26,22709,23431,15150,12086,11255,1
-20,4,18,22488,23316,14922,11983,11219,1
87,84,-32,22977,22621,13665,12009,11219,1
2,31,15,24058,22357,13013,11754,11182,1
-21,-30,13,24606,22226,13095,11665,11206,1
-17,7,4,25241,22357,13040,11653,11170,1
10,19,9,25616,22576,13013,11691,11109,1
-16,71,-31,25666,22932,13260,11703,11157,1
29,12,-26,25843,23431,13863,11728,11170,1
-54,-53,6,24921,23362,14399,11703,11157,1
-56,-70,8,23940,22932,14726,11804,11109,1
52,68,-15,23847,22709,14666,11754,11170,1
-29,1,-5,23730,22621,14922,11766,11109,1
-97,-81,13,22488,21903,15568,12009,11157,1
18,-9,3,22665,21839,15397,12021,11096,1
-5,-45,9,22887,21946,14952,12009,11194,1
19,-74,24,22932,21860,14532,12060,11121,1
13,11,9,23157,21882,14370,12047,11170,1
14,3,4,24152,22226,14326,11970,11133,1
15,37,-1,24654,22488,14311,12060,11182,1
13,6,-4,24606,22357,14268,12034,11194,1
21,-10,0,24438,22357,14326,11983,11121,1
-3,8,-3,24129,22248,14166,12060,11157,1
10,14,7,24129,22226,14180,11970,11206,1
-33,-13,5,23847,22226,14209,12021,11194,1
12,-21,16,23522,22140,14224,11983,11157,1
-2,-23,10,23225,21882,14370,12009,11157,1
52,-12,7,22754,22053,14195,12009,11170,1
14,22,-11,22444,21796,14253,12060,11182,1
34,-15,17,22335,21458,14268,12021,11231,1
4,-6,9,22313,20981,14311,12034,11255,1
28,-5,12,22248,20535,14253,12060,11231,1
-20,-22,-3,22140,20256,14268,12047,11243,1
27,-36,11,22053,20019,14253,12124,11170,1
13,10,0,21903,18057,14209,12073,11255,1
21,19,-4,21903,17101,14195,12163,11243,1
-2,25,-7,22053,16966,14137,12137,11219,1
51,20,3,22226,16882,14122,12060,11280,1
42,23,-9,22401,16865,14137,12086,11255,1
-16,28,-9,22754,17203,14108,12060,11182,1
-21,46,7,23615,17739,14064,12060,11268,1
-81,-15,6,24129,18093,13906,12034,11231,1
-21,-29,21,24438,18344,13878,12034,11231,1
52,-11,33,24271,18236,13468,11932,11206,1
1,-53,-8,23615,18093,13357,11919,11206,1
-14,-3,26,23339,17862,13260,11893,11157,1
36,-21,22,23090,17565,13260,11855,11072,1
45,-44,50,22335,16615,13191,11868,11133,1
-25,33,-24,21967,16615,13232,11957,11109,1
-12,-29,-1,21839,16681,13232,11868,11121,1
14,15,-12,21754,16681,13315,11868,11182,1
-3,-37,-12,22053,16781,13246,11906,11060,1
-98,13,-49,22865,17374,13287,11919,11182,1
-29,-23,-3,22754,17687,13274,11906,11133,1
-35,-12,1,22687,17845,13371,12009,11121,1
59,-64,27,22754,17547,13357,11957,11206,1
26,28,-9,22665,16815,13274,11970,11170,1
30,-7,6,22843,16516,13301,11957,11121,1
24,-14,3,23271,16206,13371,11996,11121,1
39,3,-15,23180,16157,13398,12021,11109,1
-24,-4,1,23022,16206,13384,11957,11170,1
57,-20,-10,22466,16271,13287,11983,11121,1
-42,-15,-13,22248,16173,13357,12021,11121,1
23,-18,-5,21818,16254,13384,11906,11121,1
-11,-4,-14,21584,16157,13357,11996,11206,1
35,3,-3,21312,16222,13287,11919,11206,1
34,0,-9,21084,16303,13343,11983,11145,1
-12,-16,4,20899,16352,13260,11906,11170,1
-25,3,-12,20737,16434,13343,11919,11109,1
32,-6,7,20636,16549,13274,11906,11182,1
-2,1,-8,20475,16681,13260,11919,11194,1
32,-22,10,20415,16831,13287,12009,11109,1
-41,-5,-3,20236,16949,13287,11983,11170,1
-15,-25,14,20078,17033,13287,11983,11206,1
-12,-9,-10,19999,16932,13260,11906,11206,1
32,3,2,19921,17084,13357,11906,11157,1
-19,-9,1,19843,17050,13315,11868,11109,1
-22,-42,2,19669,16949,13343,12009,11182,1
-3,-25,2,19535,16966,13287,11919,11121,1
2,3,4,19344,16831,13287,11932,11182,1
-13,12,-5,19401,16815,13260,11919,11109,1
12,0,-5,19306,16882,13260,11868,11206,1
-1,-19,-2,19325,16815,13343,12009,11206,1
-10,-24,-19,19268,16898,13343,11893,11133,1
13,-3,-7,19287,16831,13287,11970,11121,1
-18,0,-22,19344,16831,13357,11881,11182,1
-29,11,-18,19212,16815,13357,11944,11072,1
13,-1,3,19193,16882,13357,11906,11182,1
2,-1,-7,19155,16748,13287,12009,11133,1
8,1,3,19155,16848,13343,11970,11170,1
1,-12,1,19155,16865,13301,11983,11145,1
1,-12,6,19099,16831,13357,11919,11157,1
11,-5,-3,19155,16831,13287,11893,11206,1
3,6,0,19118,16798,13287,12009,11109,1
3,2,1,19155,16831,13357,11957,11231,1
-19,11,-4,19155,16781,13287,11906,11121,1
-2,-15,5,19155,16748,13301,11983,11109,1
19,5,3,19080,16815,13315,11970,11170,1
9,6,11,19080,16748,13246,12009,11145,1
-29,4,-14,19212,16999,13301,11957,11170,1
30,-10,7,19458,17237,13301,11906,11206,1
-33,-21,6,19708,17220,13371,12009,11157,1
-37,2,-2,20039,17374,13371,11906,11206,1
-46,2,4,20275,17495,13329,11996,11157,1
-16,20,-6,20236,17600,13371,11919,11219,1
-21,5,2,20256,17530,13398,11970,11121,1
4,-13,8,20275,17600,13398,11932,11206,1
-15,-28,9,20315,17652,13315,11970,11206,1
-7,7,-6,20415,17634,13412,11996,11121,1
-20,0,3,20555,17652,13398,11983,11121,1
-28,35,-9,20555,17704,13398,11919,11206,1
-20,-3,-2,20495,17704,13412,11970,11170,1
-12,25,-6,20676,17986,13343,11957,11206,1
-50,5,-10,20879,18417,13343,11919,11170,1
4,2,-7,20879,18894,13384,12009,11231,1
4,13,-14,20838,19212,13412,11957,11206,1
0,5,5,20716,19306,13371,11957,11157,1
6,25,9,20355,19099,13426,11983,11170,1
62,22,-5,20157,18894,13412,11970,11170,1
0,8,0,20157,18857,13384,11957,11182,1
-50,-5,12,20157,18801,13343,11906,11121,1
-38,35,-29,20475,18931,13384,11957,11170,1
-8,22,-16,21064,19155,13412,11906,11206,1
-28,-22,-21,21542,19344,13412,11970,11206,1
9,0,-13,21690,19477,13357,11996,11157,1
25,34,-17,21648,19439,13384,12009,11157,1
6,-40,-18,21563,19458,13398,11932,11206,1
-39,4,-21,21291,19287,13426,11983,11206,1
9,12,5,21125,19174,13329,12009,11194,1
-15,5,0,21002,19231,13412,11957,11206,1
5,43,-14,21208,19155,13412,11970,11206,1
2,13,-3,21563,19382,13329,11919,11121,1
23,-20,2,21754,19306,13371,11957,11170,1
48,-24,22,21627,19193,13412,12009,11133,1
-18,-9,-5,21500,19099,13440,12021,11170,1
34,-25,-12,21648,18931,13454,12009,11157,1
-20,10,-5,21542,18894,13357,12009,11219,1
11,-37,14,21754,18820,13454,11932,11182,1
-14,9,3,21711,18875,13398,12009,11170,1
17,10,-1,21882,18838,13398,12009,11206,1
-7,-12,-5,21924,18820,13398,11957,11170,1
9,15,5,21989,18489,13412,11957,11170,1
27,6,-14,22096,18453,13357,11932,11206,1
-1,10,-2,21989,18453,13371,11957,11219,1
-42,18,6,21818,18581,13454,11970,11219,1
-6,-25,0,21690,18654,13440,12009,11157,1
-3,-39,8,21627,18968,13384,11983,11170,1
18,-27,7,21627,19024,13454,12021,11133,1
22,-8,6,21796,19212,13398,11957,11182,1
-24,-3,4,21754,19458,13440,12009,11170,1
-33,-2,13,21924,19477,13524,12021,11170,1
-52,8,-4,22270,19612,13454,12009,11170,1
50,19,-11,22576,19612,13566,11957,11170,1
-2,-5,-7,22709,19497,13468,12047,11170,1
-7,27,13,23067,19497,13468,11983,11255,1
-11,14,-12,23203,19458,13552,11957,11255,1
14,17,-2,23477,19458,13510,11957,11255,1
-6,10,-15,24223,19306,13454,12009,11170,1
-17,46,-20,24534,19043,13398,11957,11231,1
-11,20,-4,24654,18949,13357,11970,11170,1
35,-18,-1,25142,18508,13412,12034,11170,1
54,24,-24,25818,17704,13412,11932,11157,1
87,4,-16,26099,17050,13371,11970,11231,1
55,22,-13,26150,16336,13357,11932,11157,1
20,10,5,26022,16303,13357,11957,11219,1
38,-25,-5,25591,16319,13343,11957,11219,1
-57,-4,-3,25390,16565,13412,11970,11194,1
9,2,-4,25591,16765,13412,11983,11157,1
-38,33,-4,25996,17135,13384,11970,11170,1
-1,23,-15,26461,17392,13454,12047,11255,1
-9,-13,-6,26566,17495,13398,12060,11219,1
-5,-5,13,26749,17547,13412,12060,11280,1
4,-33,12,26618,17565,13371,12034,11194,1
-5,-51,-4,26253,17254,13398,12009,11255,1
-45,-10,12,25341,17237,13398,11983,11268,1
-3,9,23,24848,17289,13468,11996,11268,1
-24,1,-8,24081,17722,13510,11957,11268,1
0,-10,8,23294,18544,13454,12073,11268,1
8,8,-1,22955,19231,13594,12009,11243,1
1,7,3,22665,20355,13849,12073,11219,1
-8,20,2,22444,21167,14238,12073,11268,1
-15,26,-5,22335,21479,14253,12060,11194,1
-13,28,-11,22687,21375,14282,12124,11255,1
9,-35,18,23294,21437,14209,12060,11243,1
4,-21,-7,23824,21416,13949,12150,11255,1
30,-27,5,23940,21270,13665,12047,11255,1
8,-25,10,23894,21208,13524,11983,11194,1
53,23,27,23777,21043,13246,12009,11109,1
31,24,3,23754,20940,12837,11893,11182,1
19,35,-19,23615,20838,12320,11855,11109,1
27,5,-19,23499,20859,12073,11691,11121,1
-21,-11,-18,23477,20716,11893,11553,11157,1
-11,-35,4,23316,20798,11868,11553,11157,1
8,8,2,23339,20575,11830,11553,11060,1
-4,-17,23,23135,20636,12124,11565,11072,1
32,-18,5,22999,20555,12124,11603,11072,1
22,7,20,22887,20555,12086,11553,11145,1
49,-4,9,22798,20515,12189,11578,11109,1
-17,-31,13,22798,20475,12280,11703,11060,1
3,-24,6,22843,20515,12359,11653,11084,1
-17,16,3,22665,20535,12346,11653,11157,1
-39,-24,-7,22687,20415,12490,11766,11206,1
-34,16,-8,22599,20335,12891,11804,11157,1
-8,7,4,22621,20415,13287,11868,11133,1
-27,-25,-7,22532,20475,13749,12490,11170,1
-2,-12,-2,22510,20415,13863,12959,11206,1
-25,-52,-17,22554,20395,14473,13735,11182,1
-32,-9,5,22466,20275,14518,13935,11268,1
-19,21,6,22401,20375,14414,13707,11243,1
23,30,-9,22423,20355,14488,13426,11255,1
-24,19,-11,22401,20335,15150,13454,11170,1
13,40,-10,22379,20315,15900,13863,11206,1
-28,-18,1,22423,20295,16287,14967,11231,1
-1,-1,-7,22401,20315,16222,15789,11182,1
-1,-19,3,22313,20295,16076,16125,11255,1
-1,4,-13,22313,20315,15964,16254,11206,1
19,-2,12,22335,20216,16028,16549,11231,1
-14,-12,-2,22335,20176,15852,16516,11243,1
12,-8,17,22226,20157,15757,16319,11317,1
0,11,5,22183,20196,15104,15028,11231,1
1,13,9,22140,20236,14696,13921,11231,1
29,23,-1,22140,20157,14429,13357,11255,1
35,20,2,22183,20236,14007,12636,11194,1
-29,-12,0,22140,20157,13964,12583,11354,1
-14,-19,11,22053,20256,13892,12716,12490,1
4,-26,-1,22075,20176,13949,12649,12636,1
0,5,-6,21989,20216,13892,12676,12690,1
-32,6,-8,22075,20157,14108,13068,12810,1
-15,16,-8,22075,20176,14562,13566,12610,1
-36,-30,8,22532,20176,14444,13524,12215,1
-10,12,5,22423,20236,14488,13468,12176,1
19,-3,15,22313,20315,14444,13357,12163,1
0,12,-1,22226,20176,14297,13287,11906,1
1,-14,10,22270,20236,14311,13095,11653,1
-1,15,-3,22161,20176,14166,12972,11416,1
17,14,4,22183,20216,14224,12851,11304,1
7,9,-7,22096,20196,14122,12770,11194,1
28,4,9,22096,20137,14137,12810,11170,1
-6,17,16,22053,20157,14122,12770,11206,1
-3,-15,9,22118,20078,14050,12810,11121,1
-6,-1,2,21967,20019,14122,12716,11157,1
-23,-19,0,21924,20039,14137,12756,11194,1
-34,-13,-3,21924,20078,14093,12770,11170,1
8,7,10,21967,19921,14108,12797,11182,1
-8,19,-10,21882,19999,14036,12797,11157,1
1,5,1,21924,19941,14122,12690,11170,1
3,5,-4,21818,19999,14036,12743,11206,1
-14,-8,5,21754,19960,14093,12756,11206,1
-24,-8,7,21796,19999,14108,12743,11206,1
-1,-10,-3,21754,19999,14036,12703,11170,1
23,10,-3,21796,19999,14036,12703,11206,1
27,1,0,21796,19882,14122,12770,11157,1
13,15,-10,21860,19921,14137,12690,11206,1
6,14,1,21818,19785,14108,12703,11219,1
11,-9,-2,21989,19573,14021,12797,11121,1
8,-18,-2,21967,19231,14137,12770,11157,1
-17,14,1,22532,17374,14036,12663,11206,1
28,-16,-11,23431,16882,13992,12756,11157,1
-20,-13,-9,23022,16698,13964,12730,11206,1
15,29,-8,22488,16287,14050,12730,11219,1
9,41,-18,21818,16352,14036,12730,11145,1
-16,29,-23,21690,17845,13964,12663,11157,1
-3,-13,1,21584,18147,14007,12783,11157,1
26,-20,12,21479,18057,14021,12810,11206,1
-51,-10,-15,21500,18022,14036,12824,11553,1
18,8,-8,21354,18057,13935,12824,11906,1
-15,-8,-4,21395,18004,13921,12905,12918,1
-2,0,-1,21291,17933,13935,12959,13454,1
-7,-16,0,21312,17845,13992,12959,13636,1
-15,0,-4,21250,17915,13992,12972,14137,1
-11,7,3,21291,17809,14036,12905,14786,1
-6,-5,6,21250,17862,13992,12918,14846,1
13,11,5,21312,17809,13906,12972,14861,1
8,3,-2,21312,17792,14021,12878,14741,1
-2,0,7,21291,17774,13935,12959,14547,1
8,19,-7,21291,17880,14050,12918,14370,1
-9,4,0,21291,17792,13964,12905,14238,1
-5,0,-2,21375,17862,13906,12851,14268,1
24,-8,10,21416,17827,13992,12932,14224,1
-9,14,-5,21416,17933,13906,12810,13538,1
5,-16,7,21542,17986,13992,12864,13468,1
-26,-28,1,21563,17862,13906,12797,13524,1
5,4,4,21775,18004,13978,12905,13232,1
27,11,17,21733,17898,13949,12824,12636,1
-10,-2,-6,21882,17915,14021,12743,11868,1
24,22,1,21860,17951,13935,12583,11728,1
2,20,1,21733,18004,13863,12649,11628,1
35,19,7,21839,18022,13849,12636,11615,1
-2,13,-11,21818,17951,13792,12623,11565,1
-1,6,1,21711,17915,13749,12504,11565,1
-32,10,-8,21796,17951,13792,12583,11653,1
13,28,11,21627,17986,13707,12610,11653,1
7,12,-1,21648,17986,13693,12610,11565,1
4,7,-1,21627,17774,13735,12530,11553,1
-19,26,-10,21270,17565,13679,12438,11703,1
33,-13,10,21250,17600,13735,12543,11615,1
-25,-10,-14,21064,16815,13735,12543,11553,1
9,20,-2,20961,16815,13735,12610,11553,1
-5,-28,-7,20879,16632,13792,12517,11628,1
38,-11,-20,20555,16665,13707,12583,11603,1
8,-38,16,20395,16598,13081,12385,11553,1
53,7,-11,20335,16565,12124,11970,11428,1
-45,-4,3,20315,16516,11919,11906,11354,1
-52,-24,24,20275,16615,11957,11893,11379,1
56,4,19,20078,16549,11906,11804,11416,1
1,37,-5,20236,16615,11893,11653,11268,1
-18,-16,-3,20335,16615,11868,11653,11182,1
-1,10,3,20315,16598,11804,11628,11206,1
3,-5,11,20196,16698,11842,11603,11219,1
12,-21,20,20236,16681,12228,11653,11206,1
5,-9,0,20295,16715,12636,11855,11317,1
-32,-11,7,20676,16831,12543,11855,11255,1
-13,-8,5,20696,17443,12851,11881,11304,1
-6,-27,5,20838,17986,12797,11957,11268,1
-46,-27,7,21064,18599,12918,11855,11317,1
5,0,-2,21375,19382,13109,11932,11255,1
-13,-9,7,21500,19824,13163,11970,11329,1
-28,13,-6,21839,20395,13412,11983,11231,1
22,13,-5,22140,20515,13468,11906,11268,1
23,44,16,22096,20455,13454,11957,11255,1
-13,10,-1,21989,20395,13538,11957,11329,1
-2,6,-14,22075,20415,13524,12009,11255,1
-17,-7,-6,21967,20375,13580,11983,11304,1
-11,5,3,21989,20737,13778,12060,11219,1
14,8,-1,21989,20737,13764,12060,11304,1
11,10,-9,22510,20961,13906,12009,11255,1
14,25,-2,23316,21002,13863,12086,11317,1
47,-30,15,23964,21084,13749,12124,11268,1
0,-13,-4,24318,21291,13749,12124,11268,1
7,-22,7,24318,21270,13792,12112,11304,1
3,-22,-14,24129,21064,13778,12124,11354,1
-1,-21,10,23940,21043,13764,12060,11255,1
22,-22,12,23684,20798,13749,12021,11317,1
33,7,5,23638,20656,13735,12112,11255,1
15,-24,12,23546,20575,13650,12047,11329,1
2,-29,7,23431,20256,13650,12060,11280,1
10,-13,8,23248,19921,13679,12034,11280,1
-18,15,-4,23248,18727,13693,12124,11329,1
28,1,-10,23294,18272,13594,12099,11243,1
58,16,-48,23157,18344,12530,11957,11268,1
117,23,-2,23044,18290,11792,11703,11231,1
29,60,-15,23067,18344,11653,11678,11206,1
0,30,-15,23044,18290,11603,11503,11170,1
4,77,-28,22843,18326,11565,11391,11219,1
-17,-20,-20,22776,18272,11603,11379,11243,1
-35,-23,-36,22843,18272,11515,11366,11133,1
18,-38,20,22843,18362,11503,11304,10963,1
-14,-19,2,22820,18362,11553,11366,11012,1
-21,-1,11,22843,18254,11440,11317,10975,1
33,72,-13,22731,18254,11540,11304,10963,1
-57,-26,19,22776,18236,11515,11317,11024,1
-6,-19,3,22599,18236,11540,11465,10999,1
-7,19,0,22554,18290,11528,11478,10963,1
-14,-28,17,22621,18272,11653,11403,11060,1
-6,27,-9,22554,18236,11691,11428,11072,1
-16,-58,1,22488,18272,12060,11528,11084,1
-34,-4,-12,22357,18236,12241,11628,11084,1
22,8,6,22401,18254,12359,11716,11157,1
-18,-16,-5,22248,18200,12878,12009,11157,1
-3,2,-2,22313,18290,13566,12424,11206,1
-23,-54,-6,22161,18272,14816,13384,11157,1
-37,-16,-9,22292,18254,15663,14952,11280,1
24,21,-2,22096,18272,15948,15397,11206,1
-16,-12,0,22183,18236,16206,15335,11268,1
-1,10,-7,22226,18147,16222,15058,11304,1
-4,-11,-3,22053,18200,16044,15663,12797,1
-15,-14,18,22140,18236,15741,15104,12756,1
1,5,7,22140,18200,15584,14816,12810,1
-2,9,-2,22075,18272,15490,14607,13081,1
46,35,-6,22140,18254,15350,14666,13013,1
-9,-8,5,21989,18272,15350,14666,12596,1
-3,20,5,22183,18236,15335,14238,12424,1
-21,36,-16,22313,18362,15104,14036,12690,1
15,-29,4,22205,18308,14967,14195,13191,1
-5,2,-8,22335,18344,14952,14209,13371,1
18,5,11,22665,18453,15028,14238,13246,1
-3,-3,10,23800,18562,14967,14108,12570,1
24,31,11,24534,18875,14831,13538,12359,1
42,12,-4,24946,18857,14666,13398,12060,1
-13,64,-18,25869,19363,14607,13343,11906,1
37,63,0,26882,19902,14636,13218,11766,1
6,8,-12,27418,20196,14547,13260,11766,1
6,29,-12,27966,20555,14577,13232,11653,1
-17,58,-8,28812,20981,14473,13232,11665,1
-20,7,-13,29627,21312,14562,13232,11703,1
25,-3,-1,29158,21208,14503,13068,11703,1
22,-2,4,29158,21270,14488,13095,11728,1
-4,6,-7,28984,21125,14592,13095,11590,1
25,-24,8,28754,21208,14532,13177,11703,1
3,-3,7,28726,21064,14518,13081,11678,1
12,6,6,28697,21167,14547,13177,11703,1
7,4,7,28527,21022,14592,13136,11703,1
-14,-14,-1,28357,21125,14577,13068,11603,1
6,2,-1,28133,21022,14592,13040,11703,1
2,4,2,27581,20818,14562,13177,11603,1
-3,13,-3,27527,20777,14577,13068,11678,1
-3,-9,-6,27554,20656,14577,13136,11665,1
17,-10,3,27527,20757,14473,13068,11678,1
2,22,0,27581,20696,14385,13068,11578,1
42,-10,3,27391,20716,14311,13013,11553,1
-57,10,-22,27911,20961,14370,12918,11553,1
13,19,4,29479,21500,14326,12972,11553,1
-21,-11,0,29686,21796,14341,12959,11590,1
12,-48,8,29597,21818,14311,12905,11515,1
32,-9,0,29071,21733,14355,12878,11465,1
20,6,3,28754,21563,14355,12905,11478,1
0,-2,11,28612,21416,14326,12905,11453,1
-9,-28,-3,28077,21105,14370,12851,11453,1
-22,-10,-2,27800,20899,14311,12905,11428,1
-14,1,-6,27718,20777,14311,12810,11503,1
-9,5,3,27691,20798,14399,12905,11540,1
20,23,-5,27800,20757,14341,12905,11528,1
10,-12,-19,28077,20798,14370,12878,11465,1
19,-9,5,27939,20899,14311,12905,11465,1
16,24,7,28385,20818,14399,12810,11503,1
20,-11,0,27911,20879,14297,12905,11453,1
-10,-9,-2,27041,20375,14341,12810,11503,1
-42,-31,-16,26228,19941,14370,12918,11453,1
42,-31,13,25291,19249,14385,12851,11515,1
70,68,-8,24897,19231,13707,12663,11403,1
-1,40,-11,24824,19174,12690,12112,11379,1
-37,-27,9,24678,19268,12504,12021,11317,1
-13,-18,16,24630,19268,12543,12009,11329,1
-9,14,1,24606,19174,12570,12034,11366,1
13,-3,1,24630,19306,12372,11944,11317,1
32,23,13,24630,19325,12099,11540,11317,1
-22,8,-15,24534,19174,11970,11478,11255,1
-20,-16,13,24438,19249,11906,11366,11280,1
10,34,-1,24534,19306,11983,11366,11219,1
20,-23,18,24510,19212,11983,11366,11243,1
66,-8,15,24510,19231,12163,11428,11219,1
6,-113,37,24342,19249,12543,11830,11341,1
17,2,0,23847,19080,12703,11944,11754,1
-24,-10,1,23569,19174,12690,11881,11754,1
5,-13,-2,23615,19193,12716,11957,11703,1
34,15,2,23592,19061,12703,11919,11716,1
-21,-11,-1,23522,19061,12703,11919,12163,1
-46,-8,13,23339,19080,12690,11957,12346,1
-19,-5,6,23022,19005,12690,11919,12280,1
-17,16,24,22754,18894,12797,11932,12086,1
-68,-5,-3,21989,19249,12905,11983,12021,1
12,2,-15,21967,19344,12905,12021,11957,1
10,-26,23,23090,19477,13027,12060,11983,1
-9,26,-23,24438,19960,13150,12060,11932,1
38,6,5,25291,20475,13218,12034,11881,1
29,29,-6,25616,20636,13246,11983,11741,1
7,-1,-5,25316,20716,13287,11970,11804,1
10,-76,-6,24702,20475,13964,12504,11754,1
33,23,-2,23894,20117,14532,13136,11804,1
7,2,5,23661,20098,14503,13040,12163,1
15,-13,12,23294,19843,14238,12959,12150,1
13,17,-4,23203,19843,14195,12918,12189,1
32,23,-1,22843,19766,14064,12905,12150,1
9,41,-25,22843,19631,14180,12878,12112,1
28,36,-66,22335,19155,14151,12918,12112,1
-2,15,-12,22053,18931,14180,13068,12112,1
-31,-43,25,21989,18931,14137,13095,12163,1
-2,-12,15,22488,18857,14137,12999,12163,1
-4,38,1,22932,18987,14050,13068,12163,1
9,-1,-7,23022,18987,14050,13027,12163,1
19,-2,-7,22731,18949,14007,13027,12060,1
-8,31,-6,22665,18949,14108,13013,12073,1
-5,1,-7,22510,18912,14108,13040,12163,1
54,30,3,22554,18949,14108,13027,12073,1
24,30,1,22379,18857,14093,12959,12073,1
31,50,11,22335,18949,14021,12972,12112,1
-65,9,-73,22423,18912,14079,12959,12124,1
-67,108,-35,22401,18820,13978,13027,12060,1
23,218,-12,22401,18783,14036,13013,12112,1
61,168,-41,22248,18453,14108,12959,12112,1
-163,24,-67,22205,18417,14064,12918,12137,1
-87,55,-84,22140,18435,14007,12918,12086,1
116,186,26,22140,18344,14007,13013,12112,1
-25,-18,-19,22140,18362,14108,12918,12124,1
137,-91,111,22140,18344,14021,13013,12073,1
-102,-77,0,22096,18435,14036,12918,12060,1
24,-107,49,22226,18435,14108,13013,12124,1
150,-182,-86,22248,18344,14079,12959,12112,1
56,57,-39,22313,18308,14108,12905,12047,1
19,-18,45,21839,18164,14195,12959,12073,1
115,21,-34,21882,18129,14108,13027,12124,1
52,-20,27,23522,18599,14021,12851,12060,1
14,35,24,24366,19024,13863,12676,11944,1
58,-40,-15,24848,19231,13384,12215,11830,1
-27,-18,-21,25216,19420,13205,12086,11779,1
-33,40,-69,25793,19477,13136,12124,11779,1
24,31,5,25616,19554,13109,12099,11804,1
-96,15,-44,25390,19477,13205,12112,11817,1
69,98,-23,25019,19401,13191,12060,11830,1
85,-28,41,24921,19439,13232,12112,11893,1
-53,31,-32,24799,19268,13218,12137,11881,1
26,-34,11,24678,19193,13232,12228,11906,1
-6,0,4,24630,19155,13287,12215,11970,1
8,18,17,24606,19268,13301,12280,11932,1
0,43,-18,25093,19497,13301,12359,11932,1
18,34,5,26513,20157,13246,12293,11932,1
32,37,20,27229,20575,13412,12293,11919,1
14,-2,18,27202,20595,13412,12372,11906,1
-12,-24,-17,27148,20575,13454,12320,11932,1
6,-29,17,26331,20098,13524,12398,12009,1
-25,-71,-11,25044,19344,13454,12477,12021,1
59,17,-46,23707,18562,13524,12490,11957,1
10,2,32,22999,17722,13538,12451,12009,1
-17,3,2,22887,17289,13510,12490,11944,1
-12,15,2,22643,17306,13510,12477,12009,1
-13,10,-4,22709,17306,13454,12543,11932,1
21,9,-12,22643,17306,13412,12438,12009,1
-16,-8,-12,22510,17169,13566,12504,12009,1
36,12,5,22510,16815,13482,12530,12009,1
-4,6,-6,22335,16352,13384,12477,11957,1
-28,-30,29,22140,16665,13454,12583,11957,1
-173,-19,31,21903,16882,13468,12583,11970,1
43,-8,17,22161,17033,13566,12570,11970,1
14,9,0,22161,17067,13524,12583,11983,1
3,-12,3,22226,17323,13566,12490,11983,1
-25,-19,-7,22379,17220,13552,12504,11983,1
11,0,7,22488,17340,13524,12556,12060,1
26,45,-6,22932,17774,13510,12543,11957,1
6,24,11,23431,18236,13566,12543,12034,1
