GyroX,GyroY,GyroZ,Thumb,Index,Middle,Ring,Pinky,Gesture
0,0,0,21946,11024,11503,32238,25793,3
0,0,0,21967,10999,11528,32173,25742,3
0,0,0,21903,10987,11528,32108,25616,3
0,0,0,21924,11012,11515,32010,25666,3
0,0,0,21903,11012,11515,32010,25616,3
0,0,0,21924,10975,11515,31978,25591,3
0,0,0,21882,11012,11515,31946,25440,3
0,0,0,21818,10975,11528,31849,25515,3
0,0,0,21882,10975,11503,31785,25490,3
0,0,0,21967,10975,11503,31849,25365,3
0,0,0,22053,10975,11528,31656,25291,3
0,0,0,22096,10975,11503,31720,25291,3
0,0,0,22270,11012,11628,31720,25291,3
0,0,0,22887,11157,12163,31656,25341,3
0,0,0,23339,11157,12215,31593,25316,3
0,0,0,23661,11170,12424,31497,25192,3
0,0,0,23477,11121,12372,31465,25093,3
0,0,0,23385,11133,12346,31434,25093,3
0,0,0,23135,11157,12346,31370,24995,3
0,0,0,22955,11157,12280,31339,24946,3
0,0,0,22754,11109,12176,31244,24995,3
0,0,0,22599,11157,12137,31244,24921,3
0,0,0,22554,11157,12047,31244,24921,3
0,0,0,22140,11109,11842,31150,24702,3
0,0,0,22053,11072,11855,30994,24654,3
0,0,0,21989,11084,11804,31087,24606,3
0,0,0,21924,11060,11766,30931,24630,3
0,0,0,21989,11109,11754,30962,24606,3
0,0,0,21967,11109,11766,30931,24582,3
0,0,0,21967,11133,11754,30900,24534,3
0,0,0,21924,11133,11665,30869,24558,3
0,0,0,21882,11084,11553,30807,24558,3
0,0,0,21796,11060,11465,30745,24438,3
0,0,0,21754,11060,11453,30715,24342,3
0,0,0,21796,11060,11428,30591,24294,3
0,0,0,21711,11036,11403,30591,24294,3
0,0,0,21711,11012,11416,30408,24129,3
0,0,0,21584,11012,11403,30408,24152,3
0,0,0,21627,11012,11366,30377,24058,3
0,0,0,21542,11012,11317,30377,24176,3
0,0,0,21500,10975,11354,30408,24199,3
0,0,0,21479,11012,11304,30408,24176,3
0,0,0,21416,11012,11231,30347,24152,3
0,0,0,21291,10963,11133,30347,23987,3
0,0,0,21229,10939,11109,30408,23987,3
0,0,0,21208,10963,11084,30347,24034,3
0,0,0,21208,10939,11060,30377,24011,3
0,0,0,21208,10987,11060,30317,23940,3
0,0,0,21167,10963,11060,30347,23940,3
0,0,0,21064,10963,11036,30317,23870,3
0,0,0,21064,10963,11048,30256,23870,3
0,0,0,21084,10963,11024,30165,23894,3
0,0,0,21084,10963,11060,30226,23847,3
0,0,0,21084,10939,11024,30286,23940,3
0,0,0,21064,10975,11109,30226,23847,3
0,0,0,21250,10975,11084,30105,23800,3
0,0,0,21125,10963,11072,30105,23847,3
0,0,0,22248,11012,11133,29746,23522,3
0,0,0,23157,11060,11280,29627,23569,3
0,0,0,22865,11012,11206,29657,23499,3
0,0,0,22754,11012,11206,29597,23499,3
0,0,0,22510,10987,11182,29627,23431,3
0,0,0,22096,11012,11157,29627,23431,3
0,0,0,21711,10963,11084,29568,23294,3
0,0,0,21563,10939,11060,29509,23339,3
0,0,0,21395,10963,11060,29391,23225,3
0,0,0,21208,10915,11036,29450,23135,3
0,0,0,21208,10939,11012,29333,23112,3
0,0,0,21125,10939,10975,29362,23044,3
0,0,0,21187,10939,10987,29304,22999,3
0,0,0,21146,10951,11012,29391,23022,3
0,0,0,21187,10903,11012,29509,22932,3
0,0,0,21416,10903,11024,29479,22776,3
0,0,0,21648,10939,11060,29187,22401,3
0,0,0,21375,10915,11060,28927,22379,3
0,0,0,21229,10915,11036,28812,22313,3
0,0,0,21125,10915,10987,28754,22161,3
0,0,0,21084,10915,11012,28697,22140,3
0,0,0,20879,10915,10963,28583,22118,3
0,0,0,20798,10891,10975,28498,22140,3
0,0,0,20595,10915,10975,28555,22053,3
0,0,0,20555,10915,10975,28470,22096,3
0,0,0,20535,10891,10963,28470,22096,3
0,0,0,20515,10915,10963,28414,22053,3
0,0,0,20415,10891,10975,28357,22053,3
0,0,0,20435,10879,10963,28470,22010,3
0,0,0,20555,10915,10963,28583,22075,3
0,0,0,20676,10915,10963,28442,21967,3
0,0,0,20676,10879,10939,28357,21924,3
0,0,0,20818,10915,10927,28583,21860,3
0,0,0,20899,10915,10963,28385,21882,3
0,0,0,20879,10915,10963,28470,21796,3
0,0,0,20961,10915,10987,28385,21796,3
0,0,0,21084,10915,11012,28414,21796,3
0,0,0,21022,10915,11012,28442,21818,3
0,0,0,21084,10939,10987,28301,21796,3
0,0,0,20961,10963,10987,28357,21711,3
0,0,0,20818,10927,10987,28301,21690,3
0,0,0,20716,10927,11012,28022,21648,3
0,0,0,20676,10903,10999,28022,21627,3
0,0,0,20676,10927,10987,28049,21584,3
0,0,0,20636,10915,10987,28077,21648,3
0,0,0,20555,10927,10987,28077,21563,3
0,0,0,20575,10915,10987,28133,21669,3
0,0,0,20676,10927,11012,27911,21500,3
0,0,0,20636,10963,10975,27939,21458,3
0,0,0,20676,10975,10987,27828,21542,3
0,0,0,20636,10963,10975,27939,21187,3
0,0,0,20737,10939,11012,27994,20879,3
0,0,0,20859,10963,10987,27856,21250,3
0,0,0,20838,10939,10987,27939,20920,3
0,0,0,20859,10939,10963,27939,20818,3
0,0,0,20838,10927,10987,27883,20961,3
0,0,0,20879,10939,10963,27828,20798,3
0,0,0,20879,10915,10987,27828,20879,3
0,0,0,20798,10915,10987,27828,20676,3
0,0,0,20798,10951,10987,27883,20636,3
0,0,0,20716,10963,10975,27718,21291,3
0,0,0,20555,10939,11012,27095,21627,3
0,0,0,20415,10987,10987,26592,21606,3
0,0,0,20615,10987,10975,26409,21542,3
0,0,0,20555,11012,10987,25894,21395,3
0,0,0,20575,10975,10987,25691,21291,3
0,0,0,21416,11012,10963,24727,20818,3
0,0,0,22053,11084,10999,22075,21395,3
0,0,0,21167,11012,11024,22843,23157,3
0,0,0,21125,11060,10987,23203,23339,3
0,0,0,21250,11060,11036,23385,23661,3
0,0,0,20737,11012,11024,23203,23112,3
0,0,0,20315,11024,11072,23271,22977,3
0,0,0,20157,11012,11109,23203,22754,3
0,0,0,20098,10975,11060,23203,22576,3
0,0,0,20098,10975,11060,23090,22510,3
0,0,0,20157,10975,11024,22932,22423,3
0,0,0,20137,10975,11036,22865,22357,3
0,0,0,20117,11012,11036,22776,22140,3
0,0,0,20335,10987,11048,22798,21989,3
0,0,0,20435,10963,11012,22798,21967,3
0,0,0,20515,10999,11060,22754,21860,3
0,0,0,20555,11012,11048,22687,21775,3
0,0,0,20475,10963,11012,22665,21733,3
0,0,0,20335,10963,11012,22599,21711,3
0,0,0,20395,10963,11060,22488,21669,3
0,0,0,20615,10987,11012,22444,21606,3
0,0,0,20636,10951,11036,22510,21563,3
0,0,0,20636,10975,11060,22488,21584,3
0,0,0,20676,10975,11024,22510,21542,3
0,0,0,20636,10975,11060,22488,21542,3
0,0,0,20636,10963,11048,22423,21479,3
0,0,0,20656,10963,11036,22510,21458,3
0,0,0,20595,10975,11012,22532,21458,3
0,0,0,20535,10939,11060,22532,21479,3
0,0,0,20495,10975,11012,22532,21458,3
0,0,0,20535,10963,11024,22444,21458,3
0,0,0,20475,10927,11012,22510,21416,3
0,0,0,20475,10963,11060,22488,21312,3
0,0,0,20475,10963,11060,22423,21291,3
0,0,0,20495,10975,11060,22423,21375,3
0,0,0,20495,10951,11012,22444,21375,3
0,0,0,20515,10939,11024,22444,21229,3
0,0,0,20555,10939,11060,22444,21291,3
0,0,0,20555,10963,11024,22444,21291,3
0,0,0,20535,10963,11060,22444,21208,3
0,0,0,20475,10963,11060,22401,21250,3
0,0,0,20415,10951,11012,22401,21229,3
0,0,0,20435,10963,11060,22357,21229,3
0,0,0,20475,10939,11036,22401,21167,3
0,0,0,20475,10963,11024,22401,21084,3
0,0,0,20535,10951,11060,22401,21208,3
0,0,0,20495,10975,11024,22423,21208,3
0,0,0,20415,10939,11024,22401,21208,3
0,0,0,20355,10939,11024,22313,21125,3
0,0,0,20335,10939,11060,22401,21125,3
0,0,0,20395,10963,11012,22357,21146,3
0,0,0,20335,10975,11060,22357,21105,3
0,0,0,20375,10975,11024,22357,21125,3
0,0,0,20315,10975,11060,22357,21064,3
0,0,0,20395,10975,11084,22401,21105,3
0,0,0,20395,10963,11084,22357,21022,3
0,0,0,20395,10939,11060,22357,21064,3
0,0,0,20555,10927,11109,22444,21125,3
0,0,0,20757,10963,11109,22423,21229,3
0,0,0,20920,10951,11109,22488,21291,3
0,0,0,21146,10963,11109,22576,21521,3
0,0,0,21064,10963,11182,22576,21733,3
0,0,0,20879,10963,11182,22532,21733,3
0,0,0,20555,10951,11182,22313,21627,3
0,0,0,20636,10963,11317,22401,21479,3
0,0,0,21043,10975,11453,22423,21500,3
0,0,0,21125,10987,11478,22313,21229,3
0,0,0,21270,11012,11453,22423,21064,3
0,0,0,21416,10999,11440,22576,20818,3
0,0,0,21967,11036,11515,22576,20961,3
0,0,0,22183,11084,11565,22599,21002,3
0,0,0,22140,11219,11728,22776,20961,3
0,0,0,21860,11255,11766,22798,20798,3
0,0,0,21627,11268,11842,22754,20495,3
0,0,0,21291,11255,11855,22599,20495,3
0,0,0,21064,11280,11881,22488,20335,3
0,0,0,21043,11255,11855,22488,20375,3
0,0,0,20981,11255,11855,22313,20315,3
0,0,0,20961,11206,11868,22357,20256,3
0,0,0,20961,11206,11855,22313,20275,3
0,0,0,20961,11206,11855,22313,20236,3
0,0,0,20899,11170,11830,22292,20256,3
0,0,0,20859,11157,11842,22292,20236,3
0,0,0,20838,11157,11817,22313,20176,3
0,0,0,20859,11170,11906,22313,20236,3
0,0,0,20859,11170,11919,22292,20256,3
0,0,0,20757,11170,11906,22292,20176,3
0,0,0,20636,11170,11868,22270,20176,3
0,0,0,20395,11121,11653,22226,20176,3
0,0,0,20315,11072,11428,22205,20236,3
0,0,0,20236,11024,11304,22140,20176,3
0,0,0,20196,11024,11255,22140,20176,3
0,0,0,20157,11012,11231,22140,20157,3
0,0,0,20157,11024,11243,22140,20157,3
0,0,0,20196,10975,11206,22096,20176,3
0,0,0,20295,10975,11182,22096,20157,3
0,0,0,20315,10987,11182,22183,20216,3
0,0,0,20395,10963,11157,22161,20236,3
0,0,0,20435,10987,11206,22226,20236,3
0,0,0,20415,11012,11255,22205,20196,3
0,0,0,20555,11024,11428,22161,20098,3
0,0,0,20575,11024,11428,21989,20196,3
0,0,0,20555,11012,11416,21946,20039,3
0,0,0,20335,11024,11440,21946,19766,3
0,0,0,20236,11012,11428,21839,19727,3
0,0,0,20216,11024,11440,21775,19631,3
0,0,0,20117,11012,11416,21818,19612,3
0,0,0,20078,10999,11403,21796,19689,3
0,0,0,20117,11060,11416,21711,19612,3
0,0,0,20078,11036,11453,21711,19592,3
0,0,0,20078,11060,11416,21711,19631,3
0,0,0,20039,11024,11403,21754,19535,3
0,0,0,20098,11048,11416,21775,19612,3
0,0,0,20196,11060,11453,21733,19612,3
0,0,0,20098,11024,11416,21711,19516,3
0,0,0,20078,11012,11416,21669,19554,3
0,0,0,20098,11024,11453,21711,19554,3
0,0,0,20196,11036,11428,21711,19535,3
0,0,0,20216,11012,11465,21690,19516,3
0,0,0,20196,11060,11465,21648,19477,3
0,0,0,20176,11060,11465,21690,19516,3
0,0,0,20176,11012,11453,21648,19458,3
0,0,0,20137,11024,11465,21711,19477,3
0,0,0,20039,11060,11453,21606,19458,3
0,0,0,20078,11060,11428,21627,19497,3
0,0,0,20098,11036,11453,21627,19458,3
0,0,0,20098,11060,11465,21606,19458,3
0,0,0,20019,11048,11478,21584,19458,3
0,0,0,20078,11036,11465,21563,19439,3
0,0,0,19960,11024,11478,21627,19382,3
0,0,0,19999,11024,11428,21627,19516,3
0,0,0,19941,11024,11428,21584,19420,3
0,0,0,20039,11048,11453,21606,19401,3
0,0,0,20078,11024,11428,21627,19382,3
0,0,0,20157,11012,11416,21542,19306,3
0,0,0,20236,11024,11453,21542,19306,3
0,0,0,20196,11060,11440,21563,19231,3
0,0,0,20157,11060,11453,21542,19231,3
0,0,0,20275,11036,11453,21479,19306,3
0,0,0,20256,11048,11403,21458,19174,3
0,0,0,20216,11060,11416,21500,19193,3
0,0,0,20157,11060,11416,21479,19155,3
0,0,0,20117,11024,11416,21542,19231,3
0,0,0,20098,11060,11440,21542,19174,3
0,0,0,20078,11060,11440,21521,19174,3
0,0,0,20078,11012,11440,21521,19193,3
0,0,0,20058,11024,11453,21458,19118,3
0,0,0,20098,11048,11428,21458,19043,3
0,0,0,20039,11036,11428,21479,19080,3
0,0,0,20098,11024,11416,21458,19043,3
0,0,0,20137,11060,11428,21416,19024,3
0,0,0,20058,11048,11440,21395,18931,3
0,0,0,20098,11060,11416,21375,18709,3
0,0,0,20098,11060,11416,21333,18691,3
0,0,0,20078,11024,11403,21416,18709,3
0,0,0,20058,11012,11416,21354,18654,3
0,0,0,19999,11048,11416,21395,18635,3
0,0,0,19999,11060,11403,21291,18562,3
0,0,0,19999,11012,11440,21375,18672,3
0,0,0,19941,11036,11403,21312,18617,3
0,0,0,19921,11048,11403,21375,18635,3
0,0,0,19902,11036,11416,21291,18599,3
0,0,0,19863,11036,11428,21291,18581,3
0,0,0,19863,11060,11403,21291,18526,3
0,0,0,19843,11012,11440,21312,18508,3
0,0,0,19843,11036,11428,21291,18508,3
0,0,0,19785,11024,11428,21250,18544,3
0,0,0,19805,11048,11403,21291,18489,3
0,0,0,19785,11012,11403,21312,18489,3
0,0,0,19766,11024,11416,21250,18435,3
0,0,0,19785,11024,11416,21250,18489,3
0,0,0,19766,11048,11403,21250,18435,3
0,0,0,19766,11024,11403,21291,18489,3
0,0,0,19766,11024,11428,21229,18435,3
0,0,0,19766,11024,11403,21229,18435,3
0,0,0,19746,11060,11428,21291,18435,3
0,0,0,19727,11060,11453,21291,18435,3
0,0,0,19727,11036,11416,21291,18435,3
0,0,0,19689,11036,11440,21229,18417,3
0,0,0,19766,11036,11403,21208,18435,3
0,0,0,19708,11060,11403,21229,18453,3
0,0,0,19708,11072,11453,21270,18417,3
0,0,0,19689,11060,11416,21208,18380,3
0,0,0,19689,11024,11453,21208,18435,3
0,0,0,19689,11048,11428,21291,18417,3
0,0,0,19689,11024,11416,21208,18380,3
0,0,0,19708,11024,11403,21208,18399,3
0,0,0,19689,11024,11465,21229,18417,3
0,0,0,19689,11060,11440,21229,18344,3
0,0,0,19650,11036,11428,21291,18344,3
0,0,0,19689,11048,11428,21208,18326,3
0,0,0,19669,11036,11440,21229,18308,3
0,0,0,19689,11036,11453,21229,18344,3
0,0,0,19689,11048,11478,21208,18326,3
0,0,0,19689,11060,11428,21229,18308,3
0,0,0,19689,11060,11453,21208,18290,3
0,0,0,19631,11036,11428,21208,18272,3
0,0,0,19689,11036,11453,21064,17392,3
0,0,0,19863,11060,11453,21229,18746,3
0,0,0,20078,11060,11453,21125,18581,3
0,0,0,20335,11012,11428,21043,18526,3
0,0,0,20879,11060,11453,21146,18526,3
0,0,0,20981,11072,11503,21270,18489,3
0,0,0,20859,11060,11503,21333,18326,3
0,0,0,20515,11072,11478,21229,18236,3
0,0,0,20535,11060,11465,21064,18057,3
0,0,0,20475,11072,11515,21064,18129,3
0,0,0,20415,11072,11528,21043,18022,3
0,0,0,20475,11072,11528,21064,18022,3
0,0,0,20818,11060,11503,21043,18004,3
0,0,0,21416,11060,11503,21105,17986,3
0,0,0,22292,11072,11478,20981,18004,3
0,0,0,22798,11060,11515,20899,17986,3
0,0,0,22205,11060,11503,20899,17951,3
0,0,0,21882,11024,11465,20818,17933,3
0,0,0,22401,11036,11453,20757,17862,3
0,0,0,22270,11048,11478,20798,17915,3
0,0,0,21648,11036,11465,20838,17862,3
0,0,0,21796,11048,11503,20818,17951,3
0,0,0,21711,11060,11453,20961,18022,3
0,0,0,21333,11060,11465,21064,18075,3
0,0,0,20716,11024,11465,21043,18057,3
0,0,0,20415,11060,11453,21002,18057,3
0,0,0,20256,11060,11453,20961,18004,3
0,0,0,20176,11060,11478,20920,18022,3
0,0,0,20098,11060,11465,20899,17951,3
0,0,0,20117,11048,11453,20818,17880,3
0,0,0,19980,11060,11453,20859,17880,3
0,0,0,19941,11048,11478,20757,17862,3
0,0,0,19843,11036,11453,20777,17880,3
0,0,0,20575,11060,11465,20696,17774,3
0,0,0,21291,11072,11478,20495,17669,3
0,0,0,21416,11060,11528,20455,17634,3
0,0,0,21437,11060,11503,20315,17582,3
0,0,0,21711,11060,11503,20315,17652,3
0,0,0,21796,11060,11503,20196,17582,3
0,0,0,21648,11060,11553,20236,17582,3
0,0,0,21563,11072,11515,20176,17565,3
0,0,0,21395,11060,11503,20216,17530,3
0,0,0,21208,11084,11503,20236,17461,3
0,0,0,21125,11133,11515,20176,17426,3
0,0,0,20961,11157,11503,20157,17461,3
0,0,0,21043,11157,11503,20157,17461,3
0,0,0,20818,11133,11515,20157,17443,3
0,0,0,20777,11145,11465,20098,17409,3
0,0,0,20818,11121,11503,20137,17409,3
0,0,0,20798,11170,11515,20157,17426,3
0,0,0,20716,11182,11515,20098,17392,3
0,0,0,20676,11157,11503,20098,17357,3
0,0,0,20716,11170,11503,20117,17409,3
0,0,0,20636,11170,11515,20098,17357,3
0,0,0,20656,11170,11503,20078,17357,3
0,0,0,20636,11182,11515,20098,17392,3
0,0,0,20716,11354,11703,20137,17340,3
0,0,0,20676,11379,11716,20157,17426,3
0,0,0,20636,11354,11703,20078,17374,3
0,0,0,20615,11354,11678,20078,17306,3
0,0,0,20676,11354,11691,20078,17289,3
0,0,0,20575,11366,11703,20078,17323,3
0,0,0,20615,11366,11703,20098,17306,3
0,0,0,20615,11366,11716,20078,17289,3
0,0,0,20535,11329,11716,20098,17306,3
0,0,0,20515,11317,11678,20078,17340,3
0,0,0,20515,11231,11628,20098,17306,3
0,0,0,20555,11255,11615,20117,17306,3
0,0,0,20555,11206,11578,20039,17323,3
0,0,0,20777,11206,11528,20098,17306,3
0,0,0,20636,11206,11528,20078,17237,3
0,0,0,20495,11206,11540,20039,17289,3
0,0,0,20475,11170,11515,20078,17289,3
0,0,0,20455,11170,11503,20058,17237,3
0,0,0,20899,11206,11503,19941,17357,3
0,0,0,21627,11206,11540,19980,17880,3
0,0,0,21796,11157,11528,19921,17986,3
0,0,0,21754,11206,11528,19921,18057,3
0,0,0,21711,11206,11515,19902,17933,3
0,0,0,21818,11206,11503,19921,18004,3
0,0,0,21882,11206,11515,19921,17986,3
0,0,0,21754,11182,11515,19980,17880,3
0,0,0,21711,11219,11515,19921,17862,3
0,0,0,21563,11231,11515,19921,17845,3
0,0,0,21627,11206,11515,19941,17880,3
0,0,0,21521,11182,11553,19921,17951,3
0,0,0,21627,11206,11553,19999,18039,3
0,0,0,21648,11182,11528,20078,18075,3
0,0,0,21648,11182,11515,20058,18022,3
0,0,0,21627,11194,11515,20019,17986,3
0,0,0,21606,11206,11528,20039,17933,3
0,0,0,21500,11182,11515,19941,17915,3
0,0,0,21416,11170,11515,19941,17915,3
0,0,0,21333,11206,11515,19941,17915,3
0,0,0,21333,11157,11503,19999,17898,3
0,0,0,21229,11157,11503,19999,17862,3
0,0,0,21167,11109,11428,19999,17845,3
0,0,0,20899,10963,11133,19882,17722,3
0,0,0,20676,10915,10987,19785,17739,3
0,0,0,20435,10843,10915,19766,17669,3
0,0,0,20315,10867,10879,19766,17652,3
0,0,0,20395,10831,10819,19766,17704,3
0,0,0,20236,10807,10795,19689,17634,3
0,0,0,20157,10783,10783,19708,17634,3
0,0,0,20078,10783,10783,19708,17652,3
0,0,0,20256,10819,10783,19689,17582,3
0,0,0,19921,10807,10771,19941,17652,3
0,0,0,19439,10771,10783,19960,17634,3
0,0,0,19306,10748,10771,19941,17652,3
0,0,0,19231,10748,10795,19960,17634,3
0,0,0,19155,10748,10783,19921,17634,3
0,0,0,19155,10748,10748,19921,17634,3
0,0,0,19080,10771,10783,19863,17582,3
0,0,0,19024,10724,10783,19863,17582,3
0,0,0,19080,10759,10748,19824,17513,3
0,0,0,18987,10748,10771,19863,17547,3
0,0,0,19005,10748,10748,19843,17513,3
0,0,0,18931,10748,10748,19863,17513,3
0,0,0,18949,10748,10759,19843,17495,3
0,0,0,18894,10759,10748,19805,17461,3
0,0,0,18875,10748,10748,19843,17530,3
0,0,0,18912,10736,10748,19843,17443,3
0,0,0,18968,10724,10748,19941,17478,3
0,0,0,18949,10748,10771,19921,17426,3
0,0,0,18875,10748,10771,19843,17495,3
0,0,0,18857,10724,10748,19843,17495,3
0,0,0,18820,10748,10748,19863,17426,3
0,0,0,18949,10759,10748,19843,17530,3
0,0,0,19174,10748,10748,20058,17968,3
0,0,0,19325,10748,10771,20315,18417,3
0,0,0,19785,10748,10783,20295,18399,3
0,0,0,20078,10783,10783,20295,18562,3
0,0,0,20335,10771,10843,20515,19024,3
0,0,0,20777,10783,10903,20636,19306,3
0,0,0,20920,10819,10879,20818,19535,3
0,0,0,20961,10783,10915,21167,19766,3
0,0,0,20838,10819,10903,20981,19631,3
0,0,0,20981,10915,11206,20961,19535,3
0,0,0,21187,11060,11528,20940,19401,3
0,0,0,21064,11072,11553,20899,19306,3
0,0,0,20981,11096,11553,20798,19382,3
0,0,0,20940,11109,11515,20859,19193,3
0,0,0,20676,11072,11503,20838,19231,3
0,0,0,20535,11060,11428,20838,19249,3
0,0,0,20737,11036,11453,20838,19420,3
0,0,0,21064,11036,11403,21125,19766,3
0,0,0,21002,11036,11354,21627,20275,3
0,0,0,21125,11048,11354,21967,20716,3
0,0,0,21064,11012,11304,22313,20575,3
0,0,0,20859,11012,11231,22357,20676,3
0,0,0,20838,10987,11206,22248,20676,3
0,0,0,20737,10975,11206,22140,20555,3
0,0,0,20676,10963,11157,22053,20375,3
0,0,0,20555,10987,11206,21967,20495,3
0,0,0,20515,10963,11157,21989,20475,3
0,0,0,20475,10987,11157,21733,20315,3
0,0,0,20375,10963,11157,21711,20315,3
0,0,0,20315,10963,11121,21690,20196,3
0,0,0,20256,10987,11157,21648,20157,3
0,0,0,20256,10963,11157,21627,20117,3
0,0,0,20196,10987,11157,21584,20098,3
0,0,0,20176,10963,11157,21563,19941,3
0,0,0,20157,10975,11157,21479,19921,3
0,0,0,20117,10951,11182,21416,19921,3
0,0,0,20019,10963,11157,21395,19805,3
0,0,0,20039,10987,11157,21375,19824,3
0,0,0,19999,10963,11157,21375,19766,3
0,0,0,19999,10987,11182,21375,19708,3
0,0,0,19941,10963,11182,21333,19631,3
0,0,0,19805,10963,11157,21291,19477,3
0,0,0,19824,10987,11157,21270,19573,3
0,0,0,19785,10963,11170,21208,19516,3
0,0,0,19805,10963,11157,21167,19535,3
0,0,0,19708,10975,11133,21146,19458,3
0,0,0,19746,10963,11170,21125,19458,3
0,0,0,19727,10963,11145,21084,19458,3
0,0,0,19708,10963,11157,21064,19458,3
0,0,0,19708,10975,11157,21125,19382,3
0,0,0,19708,10975,11157,21084,19382,3
0,0,0,19631,10963,11157,21125,19401,3
0,0,0,19650,10963,11121,21064,19420,3
0,0,0,19612,10963,11182,21064,19382,3
0,0,0,19612,10963,11145,21043,19325,3
0,0,0,19592,10963,11157,21002,19325,3
0,0,0,19592,10975,11157,21022,19382,3
0,0,0,19592,10987,11133,21022,19344,3
0,0,0,19612,10975,11182,21043,19382,3
0,0,0,19592,10987,11157,21022,19325,3
0,0,0,19535,10963,11133,20981,19344,3
0,0,0,19535,10975,11157,21002,19231,3
0,0,0,19535,10963,11157,21022,19344,3
0,0,0,19497,11012,11133,20961,19231,3
0,0,0,19497,10975,11182,20981,19174,3
0,0,0,19497,10963,11157,20940,19193,3
0,0,0,19477,10963,11157,20981,19249,3
0,0,0,19458,10963,11133,20961,19249,3
0,0,0,19439,10975,11157,20899,19155,3
0,0,0,19458,10975,11133,20920,19193,3
0,0,0,19497,11012,11157,20879,19193,3
0,0,0,19497,10975,11170,20899,19155,3
0,0,0,19458,11012,11170,20899,19155,3
0,0,0,19477,10987,11157,20879,19193,3
0,0,0,19497,10975,11157,20920,19193,3
0,0,0,19458,10963,11157,20899,19193,3
0,0,0,19458,10975,11157,20899,19155,3
0,0,0,19497,10975,11133,20920,19099,3
0,0,0,19477,10975,11133,20879,19174,3
0,0,0,19516,10963,11157,20899,19155,3
0,0,0,19477,10963,11157,20859,19118,3
0,0,0,19458,10915,11109,20879,19080,3
0,0,0,19497,10963,11072,20798,19080,3
0,0,0,19477,10939,11084,20879,19080,3
0,0,0,19477,10939,11060,20818,19024,3
0,0,0,19420,10927,11072,20859,19005,3
0,0,0,19344,10915,11109,20818,19005,3
0,0,0,19382,10927,11084,20798,19024,3
0,0,0,19382,10903,11072,20899,18987,3
0,0,0,19382,10915,11072,20879,18949,3
0,0,0,19325,10879,11060,20838,18875,3
0,0,0,19306,10891,11024,20737,18949,3
0,0,0,19344,10891,11024,20798,18857,3
0,0,0,19306,10867,10987,20838,18857,3
0,0,0,19344,10891,10975,20737,18931,3
0,0,0,19268,10879,11012,20757,18875,3
0,0,0,19287,10867,11012,20716,18875,3
0,0,0,19268,10867,10975,20696,18820,3
0,0,0,19325,10879,10987,20716,18820,3
0,0,0,19268,10891,11024,20676,18857,3
0,0,0,19325,10843,10975,20676,18783,3
0,0,0,19249,10891,11012,20636,18801,3
0,0,0,19287,10867,11012,20636,18709,3
0,0,0,19363,10891,10999,20636,18617,3
0,0,0,19344,10867,11048,20615,18599,3
0,0,0,19363,10867,11012,20595,18654,3
0,0,0,19325,10879,11012,20555,18599,3
0,0,0,19325,10867,11060,20555,18562,3
0,0,0,19287,10867,11012,20555,18599,3
0,0,0,19268,10879,11012,20595,18508,3
0,0,0,19249,10867,11036,20515,18581,3
0,0,0,19231,10867,11060,20555,18526,3
0,0,0,19212,10879,11072,20636,18562,3
0,0,0,19174,10915,11072,20636,18562,3
0,0,0,19155,10915,11060,20636,18489,3
0,0,0,19099,10879,11084,20636,18489,3
0,0,0,19080,10927,11060,20636,18435,3
0,0,0,19080,10879,11060,20555,18453,3
0,0,0,19005,10915,11060,20575,18471,3
0,0,0,19043,10867,11012,20555,18380,3
0,0,0,18949,10879,11024,20575,18435,3
0,0,0,19306,11012,11465,20595,18417,3
0,0,0,19535,11084,11868,20575,18471,3
0,0,0,19785,11170,12517,20636,18417,3
0,0,0,20137,11379,13622,20636,18417,3
0,0,0,20395,11403,13849,20676,18417,3
0,0,0,20495,11478,14253,20656,18489,3
0,0,0,20595,11553,14311,20636,18435,3
0,0,0,20595,11578,14268,20656,18380,3
0,0,0,20555,11615,14253,20656,18399,3
0,0,0,20475,11615,14021,20555,18344,3
0,0,0,20295,11590,13749,20595,18362,3
0,0,0,20176,11528,13468,20575,18435,3
0,0,0,20157,11503,13287,20575,18290,3
0,0,0,20098,11453,13054,20515,18344,3
0,0,0,20039,11403,12972,20595,18344,3
0,0,0,20078,11440,12932,20555,18344,3
0,0,0,20019,11366,12918,20555,18344,3
0,0,0,20019,11416,12878,20515,18362,3
0,0,0,19960,11416,12905,20575,18326,3
0,0,0,19999,11403,12878,20515,18308,3
0,0,0,19941,11403,12824,20555,18308,3
0,0,0,19941,11366,12851,20495,18344,3
0,0,0,19941,11354,12783,20575,18272,3
0,0,0,19960,11366,12797,20555,18417,3
0,0,0,19941,11391,12610,20415,18362,3
0,0,0,20256,11379,12438,20395,18453,3
0,0,0,20256,11379,12477,20395,18344,3
0,0,0,20295,11379,12424,20315,18344,3
0,0,0,20196,11354,12424,20355,18308,3
0,0,0,20236,11366,12464,20375,18344,3
0,0,0,20117,11354,12438,20315,18236,3
0,0,0,20078,11366,12385,20275,18164,3
0,0,0,20078,11366,12451,20295,18147,3
0,0,0,20078,11354,12372,20236,18147,3
0,0,0,19999,11317,12372,20236,18147,3
0,0,0,19941,11354,12346,20176,18057,3
0,0,0,19960,11354,12346,20236,18129,3
0,0,0,19960,11329,12346,20256,18022,3
0,0,0,19941,11304,12372,20196,18057,3
0,0,0,19921,11329,12346,20256,18057,3
0,0,0,19863,11341,12320,20157,18129,3
0,0,0,19882,11341,12346,20236,18075,3
0,0,0,19785,11304,12320,20176,18004,3
0,0,0,19843,11329,12320,20256,18057,3
0,0,0,19805,11317,12372,20176,18039,3
0,0,0,19805,11304,12346,20157,18057,3
0,0,0,19843,11329,12346,20137,18039,3
0,0,0,19785,11329,12372,20196,18004,3
0,0,0,19785,11317,12346,20157,18004,3
0,0,0,19746,11329,12372,20176,17986,3
0,0,0,19824,11329,12359,20196,18004,3
0,0,0,19766,11341,12320,20137,17986,3
0,0,0,19766,11354,12346,20137,17986,3
0,0,0,19785,11354,12346,20176,17968,3
0,0,0,19766,11354,12359,20117,17986,3
0,0,0,19766,11354,12346,20117,17968,3
0,0,0,19727,11317,12346,20176,17968,3
0,0,0,19708,11317,12346,20176,17986,3
0,0,0,19727,11354,12346,20157,17915,3
0,0,0,19746,11354,12346,20137,17933,3
0,0,0,20019,11354,12306,20157,17951,3
0,0,0,19669,11268,12021,19980,17426,3
0,0,0,19573,11268,11868,19999,17426,3
0,0,0,19573,11255,11716,19941,17392,3
0,0,0,19458,11255,11754,19941,17357,3
0,0,0,19458,11268,11754,19921,17357,3
0,0,0,19612,11231,11653,19882,17289,3
0,0,0,19535,11133,11565,19921,17392,3
0,0,0,19458,11109,11528,19960,17357,3
0,0,0,19458,11133,11553,19921,17357,3
0,0,0,19401,11121,11528,19921,17426,3
0,0,0,19363,11109,11503,19941,17443,3
0,0,0,19382,11072,11503,19941,17374,3
0,0,0,19535,11072,11528,19941,17461,3
0,0,0,19497,11121,11503,19941,17478,3
0,0,0,19535,11109,11515,19921,17617,3
0,0,0,19477,11084,11515,19941,17582,3
0,0,0,19689,11072,11528,19843,17652,3
0,0,0,19631,11109,11503,19882,17582,3
0,0,0,19689,11109,11490,19843,17652,3
0,0,0,19921,11109,11503,20039,17774,3
0,0,0,20475,11121,11503,20335,18654,3
0,0,0,20615,11109,11503,20555,18875,3
0,0,0,20920,11072,11528,20636,18875,3
0,0,0,20818,11109,11465,20335,18489,3
0,0,0,20676,11072,11503,20157,18236,3
0,0,0,20676,11084,11515,20039,18075,3
0,0,0,21167,11109,11553,20039,18218,3
0,0,0,21521,11109,11528,20196,18471,3
0,0,0,21208,11109,11603,19941,18093,3
0,0,0,21084,11109,11578,19843,17862,3
0,0,0,21333,11109,11590,20019,18022,3
0,0,0,21312,11109,11615,20019,17968,3
0,0,0,21333,11109,11603,19999,17845,3
0,0,0,20899,11133,11565,19708,17426,3
0,0,0,20899,11084,11703,19516,17016,3
0,0,0,21002,11121,11703,19535,17101,3
0,0,0,20879,11157,11728,19516,16999,3
0,0,0,20777,11109,11716,19458,16983,3
0,0,0,20676,11121,11703,19497,16966,3
0,0,0,20676,11157,11754,19477,16949,3
0,0,0,20636,11157,11716,19477,17016,3
0,0,0,20636,11109,11703,19458,17067,3
0,0,0,20615,11157,11716,19439,16898,3
0,0,0,20595,11121,11703,19439,16915,3
0,0,0,20555,11157,11754,19458,16949,3
0,0,0,20595,11121,11754,19401,16915,3
0,0,0,20575,11133,11703,19401,16949,3
0,0,0,20515,11133,11741,19401,16949,3
0,0,0,20495,11157,11703,19401,16949,3
0,0,0,20515,11157,11741,19231,16949,3
0,0,0,20475,11121,11703,19382,16848,3
0,0,0,20475,11157,11703,19401,16865,3
0,0,0,20475,11121,11703,19420,16882,3
0,0,0,20475,11133,11716,19382,16848,3
0,0,0,20435,11157,11703,19382,16898,3
0,0,0,20415,11133,11716,19420,16949,3
0,0,0,20455,11109,11716,19420,16831,3
0,0,0,20415,11121,11703,19401,16848,3
