GyroX,GyroY,GyroZ,Thumb,Index,Middle,Ring,Pinky,Gesture
0,0,0,14195,10724,11096,11578,11109,6
0,0,0,14166,10724,11109,11578,11109,6
0,0,0,14151,10724,11145,11578,11109,6
0,0,0,14137,10724,11157,11615,11109,6
0,0,0,14137,10736,11157,11615,11084,6
0,0,0,14137,10748,11157,11603,11121,6
0,0,0,14108,10724,11170,11603,11121,6
0,0,0,14108,10724,11182,11603,11109,6
0,0,0,14137,10748,11206,11653,11109,6
0,0,0,14108,10748,11255,11703,11170,6
0,0,0,13821,10748,11280,11665,11170,6
0,0,0,14311,10771,11453,11665,11157,6
0,0,0,14562,10783,11503,11703,11170,6
0,0,0,15741,10771,11590,11703,11219,6
0,0,0,15789,10795,11640,11754,11255,6
0,0,0,15773,10771,11703,11703,11255,6
0,0,0,15900,10795,11754,11754,11280,6
0,0,0,16549,10819,11766,11728,11255,6
0,0,0,16417,10783,11754,11703,11268,6
0,0,0,16352,10819,11779,11691,11255,6
0,0,0,16434,10795,11766,11678,11255,6
0,0,0,16287,10819,11754,11703,11280,6
0,0,0,16665,10783,11766,11678,11219,6
0,0,0,16483,10819,11728,11703,11255,6
0,0,0,16417,10783,11716,11703,11268,6
0,0,0,16254,10783,11716,11703,11268,6
0,0,0,16882,10807,11716,11728,11268,6
0,0,0,17050,10771,11703,11728,11268,6
0,0,0,17898,10819,11716,11716,11317,6
0,0,0,19043,10819,11691,11716,11268,6
0,0,0,19650,10819,11678,11728,11268,6
0,0,0,19382,10783,11628,11678,11280,6
0,0,0,18801,10819,11615,11703,11304,6
0,0,0,18562,10819,11603,11703,11317,6
0,0,0,18380,10819,11615,11703,11317,6
0,0,0,18290,10819,11603,11728,11304,6
0,0,0,18200,10795,11603,11728,11268,6
0,0,0,18654,10807,11653,11728,11317,6
0,0,0,18417,10819,11615,11741,11304,6
0,0,0,17915,10819,11653,11716,11268,6
0,0,0,17862,10783,11615,11728,11317,6
0,0,0,17827,10795,11628,11728,11268,6
0,0,0,17933,10807,11653,11728,11317,6
0,0,0,17915,10795,11628,11754,11304,6
0,0,0,17862,10795,11653,11741,11317,6
0,0,0,17880,10795,11665,11716,11268,6
0,0,0,17915,10783,11653,11754,11255,6
0,0,0,17915,10795,11653,11703,11280,6
0,0,0,17845,10783,11665,11754,11280,6
0,0,0,17862,10819,11640,11703,11304,6
0,0,0,17774,10783,11653,11716,11268,6
0,0,0,17565,10783,11665,11728,11304,6
0,0,0,17426,10819,11653,11754,11292,6
0,0,0,17357,10783,11640,11703,11304,6
0,0,0,17289,10783,11665,11716,11255,6
0,0,0,17306,10771,11628,11728,11255,6
0,0,0,17357,10795,11653,11716,11268,6
0,0,0,17306,10795,11615,11716,11268,6
0,0,0,17306,10771,11640,11716,11304,6
0,0,0,17306,10819,11565,11716,11243,6
0,0,0,17272,10759,11478,11628,11206,6
0,0,0,17152,10771,11478,11628,11206,6
0,0,0,16882,10783,11416,11640,11206,6
0,0,0,16681,10759,11403,11615,11157,6
0,0,0,16665,10771,11403,11628,11182,6
0,0,0,16483,10783,11366,11603,11145,6
0,0,0,16093,10795,11366,11603,11206,6
0,0,0,15900,10771,11304,11603,11121,6
0,0,0,15678,10748,11231,11565,11072,6
0,0,0,15521,10748,11121,11503,10987,6
0,0,0,15459,10700,11121,11453,10963,6
0,0,0,15459,10724,11109,11403,10867,6
0,0,0,15350,10688,11109,11366,10831,6
0,0,0,15165,10712,11072,11403,10819,6
0,0,0,15058,10712,11060,11403,10819,6
0,0,0,14997,10724,11012,11379,10843,6
0,0,0,15043,10724,10987,11354,10819,6
0,0,0,14967,10724,10927,11317,10843,6
0,0,0,14922,10700,10927,11317,10795,6
0,0,0,14922,10700,10915,11354,10783,6
0,0,0,14907,10688,10903,11304,10748,6
0,0,0,14952,10688,10879,11329,10724,6
0,0,0,14982,10688,10903,11304,10748,6
0,0,0,14907,10676,10927,11317,10700,6
0,0,0,14907,10676,10879,11292,10700,6
0,0,0,14681,10700,10879,11317,10748,6
0,0,0,14311,10688,10879,11304,10748,6
0,0,0,14166,10688,10915,11280,10748,6
0,0,0,14151,10700,10879,11304,10724,6
0,0,0,14137,10676,10879,11317,10748,6
0,0,0,14151,10700,10867,11304,10748,6
0,0,0,14151,10688,10879,11304,10724,6
0,0,0,14195,10688,10879,11268,10748,6
0,0,0,14209,10676,10879,11317,10688,6
0,0,0,14151,10676,10867,11292,10724,6
0,0,0,14195,10676,10879,11268,10748,6
0,0,0,14224,10724,10867,11317,10736,6
0,0,0,14224,10688,10879,11268,10700,6
0,0,0,14209,10676,10879,11317,10724,6
0,0,0,14224,10676,10903,11280,10736,6
0,0,0,14224,10676,10879,11317,10759,6
0,0,0,14195,10724,10915,11341,10724,6
0,0,0,14209,10724,10927,11304,10748,6
0,0,0,14195,10688,10927,11268,10748,6
0,0,0,14151,10736,10915,11268,10724,6
0,0,0,14151,10748,10963,11329,10724,6
0,0,0,14151,10748,10927,11317,10748,6
0,0,0,14137,10724,10927,11354,10819,6
0,0,0,14151,10748,10927,11341,10807,6
0,0,0,14137,10748,10963,11354,10867,6
0,0,0,14151,10748,10951,11379,10915,6
0,0,0,14108,10748,10963,11403,10963,6
0,0,0,14108,10771,10963,11403,10951,6
0,0,0,14108,10748,10963,11403,10939,6
0,0,0,14137,10771,10987,11403,10939,6
0,0,0,14079,10759,11012,11416,10963,6
0,0,0,14108,10771,10987,11465,10927,6
0,0,0,14108,10783,11012,11428,10963,6
0,0,0,14064,10771,10999,11403,10963,6
0,0,0,14079,10783,10987,11403,10915,6
0,0,0,14079,10771,10987,11403,10915,6
0,0,0,14108,10783,11024,11553,11060,6
0,0,0,14137,10795,11024,11603,11072,6
0,0,0,14108,10795,11012,11728,11231,6
0,0,0,14137,10795,10999,11792,11182,6
0,0,0,14137,10783,10975,11804,11243,6
0,0,0,14108,10783,11012,11804,11219,6
0,0,0,14137,10783,11036,11779,11231,6
0,0,0,14108,10819,11024,11728,11182,6
0,0,0,14064,10819,10987,11628,11182,6
0,0,0,14079,10807,11012,11603,11121,6
0,0,0,14050,10795,11012,11590,11109,6
0,0,0,14050,10915,11465,11578,11133,6
0,0,0,13978,10891,11515,11465,11072,6
0,0,0,13978,10879,11515,11403,11072,6
0,0,0,13964,10915,11540,11366,11060,6
0,0,0,13992,10903,11540,11354,11072,6
0,0,0,13992,10927,11540,11329,11060,6
0,0,0,13964,10915,11528,11304,11036,6
0,0,0,13921,10915,11503,11304,11060,6
0,0,0,13921,10879,11478,11317,11060,6
0,0,0,13906,10915,11503,11317,11060,6
0,0,0,13863,10927,11503,11304,11024,6
0,0,0,13849,10915,11515,11268,11024,6
0,0,0,13863,10915,11503,11304,11012,6
0,0,0,13849,10903,11515,11304,11024,6
0,0,0,13849,10915,11478,11304,10975,6
0,0,0,13806,10915,11478,11304,10867,6
0,0,0,13792,10927,11478,11304,10783,6
0,0,0,13778,10915,11465,11292,10724,6
0,0,0,13764,10939,11465,11304,10676,6
0,0,0,13778,10915,11478,11304,10664,6
0,0,0,13735,10915,11465,11268,10629,6
0,0,0,13707,10915,11453,11304,10641,6
0,0,0,13735,10891,11465,11329,10641,6
0,0,0,13721,10867,11391,11317,10629,6
0,0,0,13735,10819,11304,11304,10605,6
0,0,0,13650,10819,11268,11317,10629,6
0,0,0,13693,10795,11206,11304,10629,6
0,0,0,13693,10771,11157,11304,10629,6
0,0,0,13679,10736,11109,11280,10594,6
0,0,0,13622,10748,11121,11268,10629,6
0,0,0,13622,10724,11109,11304,10582,6
0,0,0,13679,10748,11109,11304,10629,6
0,0,0,13510,10748,11060,11304,10582,6
0,0,0,13398,10724,11072,11268,10582,6
0,0,0,13412,10724,11012,11304,10594,6
0,0,0,13398,10688,11072,11268,10629,6
0,0,0,13412,10724,11012,11268,10594,6
0,0,0,13482,10688,11012,11292,10605,6
0,0,0,13821,10736,11012,11304,10594,6
0,0,0,13863,10688,11012,11268,10594,6
0,0,0,13863,10688,10987,11255,10594,6
0,0,0,13821,10700,11012,11268,10582,6
0,0,0,13849,10724,10987,11255,10605,6
0,0,0,13764,10724,10987,11268,10594,6
0,0,0,13735,10724,11012,11231,10594,6
0,0,0,13806,10688,10987,11255,10582,6
0,0,0,13749,10748,11012,11268,10605,6
0,0,0,13707,10700,10975,11268,10582,6
0,0,0,13693,10688,10975,11243,10605,6
0,0,0,13679,10712,10975,11268,10605,6
0,0,0,13821,10688,11012,11280,10594,6
0,0,0,13964,10688,10999,11255,10582,6
0,0,0,13964,10688,10975,11268,10582,6
0,0,0,14137,10724,10987,11255,10594,6
0,0,0,14399,10700,10975,11255,10605,6
0,0,0,14108,10700,10975,11243,10594,6
0,0,0,13935,10700,10963,11255,10594,6
0,0,0,13821,10700,10975,11231,10594,6
0,0,0,13849,10712,10975,11255,10582,6
0,0,0,13849,10700,10963,11231,10605,6
0,0,0,13849,10712,10975,11268,10582,6
0,0,0,13863,10688,10975,11268,10582,6
0,0,0,13892,10676,10963,11268,10594,6
0,0,0,13921,10676,10975,11255,10605,6
0,0,0,13935,10700,10963,11255,10582,6
0,0,0,13964,10700,10963,11280,10605,6
0,0,0,13964,10724,10987,11255,10582,6
0,0,0,13964,10688,10999,11255,10582,6
0,0,0,13964,10724,10975,11255,10582,6
0,0,0,13964,10688,10975,11280,10617,6
0,0,0,13964,10688,10963,11268,10629,6
0,0,0,13935,10688,10975,11255,10582,6
0,0,0,13849,10700,10951,11268,10605,6
0,0,0,13821,10724,10963,11231,10594,6
0,0,0,13964,10724,10963,11268,10582,6
0,0,0,14253,10688,10987,11255,10594,6
0,0,0,14166,10724,11012,11268,10582,6
0,0,0,13935,10724,10975,11268,10582,6
0,0,0,14021,10688,11012,11243,10594,6
0,0,0,14108,10688,11012,11268,10594,6
0,0,0,13978,10724,10999,11268,10582,6
0,0,0,13964,10676,10987,11255,10558,6
0,0,0,14007,10688,10975,11231,10605,6
0,0,0,13964,10724,10975,11206,10594,6
0,0,0,13863,10700,10963,11206,10582,6
0,0,0,13792,10688,10975,11231,10594,6
0,0,0,13792,10688,10927,11219,10582,6
0,0,0,13778,10700,10939,11194,10605,6
0,0,0,13792,10700,10927,11219,10582,6
0,0,0,13821,10688,10927,11231,10594,6
0,0,0,13863,10724,10927,11231,10594,6
0,0,0,13863,10724,10939,11243,10594,6
0,0,0,14195,10676,10939,11255,10641,6
0,0,0,14786,10712,10975,11255,10629,6
0,0,0,14801,10688,10963,11219,10629,6
0,0,0,14666,10676,10963,11231,10629,6
0,0,0,14311,10688,10963,11255,10605,6
0,0,0,14166,10676,10975,11255,10605,6
0,0,0,14209,10700,10975,11231,10641,6
0,0,0,13921,10676,10963,11231,10653,6
0,0,0,13679,10676,10963,11219,10629,6
0,0,0,13566,10676,10963,11231,10594,6
0,0,0,13343,10676,10915,11206,10605,6
0,0,0,13122,10676,10915,11194,10605,6
0,0,0,13013,10700,10939,11170,10582,6
0,0,0,12932,10676,10915,11170,10582,6
0,0,0,12851,10676,10879,11170,10546,6
0,0,0,12851,10688,10879,11170,10582,6
0,0,0,12810,10676,10879,11170,10570,6
0,0,0,12918,10676,10891,11182,10535,6
0,0,0,12905,10676,10879,11170,10535,6
0,0,0,12878,10688,10879,11170,10558,6
0,0,0,12837,10700,10879,11157,10535,6
0,0,0,12810,10688,10879,11170,10535,6
0,0,0,12810,10688,10867,11157,10558,6
0,0,0,12743,10676,10867,11145,10535,6
0,0,0,12743,10664,10831,11133,10535,6
0,0,0,12743,10700,10867,11157,10499,6
0,0,0,12743,10676,10867,11121,10546,6
0,0,0,12690,10653,10867,11157,10535,6
0,0,0,12649,10688,10867,11157,10535,6
0,0,0,12690,10676,10867,11157,10499,6
0,0,0,12690,10700,10843,11121,10546,6
0,0,0,12690,10676,10843,11121,10546,6
0,0,0,12649,10664,10819,11157,10499,6
0,0,0,12636,10641,10795,11109,10499,6
0,0,0,12596,10664,10771,11109,10488,6
0,0,0,12610,10653,10748,11060,10464,6
0,0,0,12583,10629,10724,11024,10441,6
0,0,0,12504,10653,10724,11060,10441,6
0,0,0,12490,10629,10724,11060,10453,6
0,0,0,12477,10629,10724,11036,10418,6
0,0,0,12424,10629,10736,11012,10476,6
0,0,0,12398,10641,10700,11012,10441,6
0,0,0,12477,10629,10712,11012,10453,6
0,0,0,12398,10629,10688,11012,10441,6
0,0,0,12372,10629,10700,11048,10441,6
0,0,0,12464,10605,10712,11012,10418,6
0,0,0,12372,10629,10712,11012,10441,6
0,0,0,12372,10629,10676,11024,10441,6
0,0,0,12451,10641,10688,11012,10418,6
0,0,0,12690,10629,10700,11024,10441,6
0,0,0,12690,10629,10664,11012,10394,6
0,0,0,12663,10629,10688,11012,10394,6
0,0,0,12596,10629,10712,11024,10418,6
0,0,0,12530,10594,10688,11012,10418,6
0,0,0,12504,10641,10712,10987,10406,6
0,0,0,12556,10629,10712,11012,10394,6
0,0,0,12530,10605,10688,11012,10418,6
0,0,0,12530,10629,10700,11012,10441,6
0,0,0,12504,10594,10688,11012,10394,6
0,0,0,12504,10594,10676,11012,10453,6
0,0,0,12530,10629,10688,11012,10441,6
0,0,0,12530,10594,10676,10999,10394,6
0,0,0,12543,10617,10700,11012,10418,6
0,0,0,12543,10594,10712,11024,10441,6
0,0,0,12570,10629,10700,11012,10394,6
0,0,0,12596,10594,10676,11012,10418,6
0,0,0,12636,10617,10700,11012,10441,6
0,0,0,12610,10605,10676,10975,10406,6
0,0,0,12583,10617,10712,11012,10394,6
0,0,0,12636,10617,10700,11012,10441,6
0,0,0,12596,10629,10676,11012,10418,6
0,0,0,12636,10605,10676,11024,10406,6
0,0,0,12636,10594,10700,11012,10394,6
0,0,0,12636,10594,10676,11012,10429,6
0,0,0,12636,10629,10676,11024,10394,6
0,0,0,12623,10617,10700,10987,10394,6
0,0,0,12530,10617,10676,10987,10406,6
0,0,0,12543,10629,10676,10999,10406,6
0,0,0,12556,10605,10676,10987,10406,6
0,0,0,12530,10617,10676,10987,10406,6
0,0,0,12583,10594,10688,10987,10406,6
0,0,0,12583,10605,10688,11012,10441,6
0,0,0,12530,10629,10688,11012,10394,6
0,0,0,12504,10594,10688,11012,10441,6
0,0,0,12490,10594,10688,10987,10418,6
0,0,0,12490,10629,10676,11012,10394,6
0,0,0,12517,10605,10676,11012,10441,6
0,0,0,12490,10629,10700,11012,10418,6
0,0,0,12543,10605,10688,10987,10406,6
0,0,0,12543,10582,10676,11012,10406,6
0,0,0,12556,10629,10688,10987,10394,6
0,0,0,12543,10594,10676,11024,10441,6
0,0,0,12556,10605,10688,10987,10441,6
0,0,0,12636,10594,10676,10999,10441,6
0,0,0,12636,10594,10688,10975,10406,6
0,0,0,12636,10594,10676,11036,10441,6
0,0,0,12663,10629,10688,11024,10406,6
0,0,0,12864,10605,10676,10999,10429,6
0,0,0,13594,10605,10676,10999,10406,6
0,0,0,13863,10594,10688,11012,10418,6
0,0,0,14414,10629,10676,10999,10429,6
0,0,0,14621,10605,10676,11012,10429,6
0,0,0,14952,10617,10700,11012,10418,6
0,0,0,15119,10605,10676,10999,10406,6
0,0,0,15490,10629,10688,11012,10441,6
0,0,0,15837,10617,10700,10987,10406,6
0,0,0,16254,10605,10688,10987,10406,6
0,0,0,16483,10594,10688,11012,10418,6
0,0,0,16352,10594,10676,11024,10406,6
0,0,0,16385,10605,10688,11012,10453,6
0,0,0,16206,10629,10676,11024,10418,6
0,0,0,15837,10594,10676,10987,10406,6
0,0,0,16060,10605,10676,11012,10429,6
0,0,0,15964,10629,10676,11036,10441,6
0,0,0,15584,10629,10676,11024,10394,6
0,0,0,14636,10629,10688,10987,10406,6
0,0,0,13978,10641,10688,11012,10418,6
0,0,0,13371,10594,10676,10975,10406,6
0,0,0,13013,10605,10688,10987,10441,6
0,0,0,12932,10629,10700,11012,10394,6
0,0,0,12905,10629,10688,11024,10394,6
0,0,0,12851,10629,10688,11024,10429,6
0,0,0,12824,10594,10688,11024,10394,6
0,0,0,12864,10629,10676,10987,10441,6
0,0,0,12851,10629,10700,11012,10406,6
0,0,0,12851,10617,10700,10987,10406,6
0,0,0,13027,10605,10688,11012,10441,6
0,0,0,12878,10605,10676,11024,10406,6
0,0,0,12824,10594,10676,11036,10418,6
0,0,0,12797,10629,10676,11012,10441,6
0,0,0,12797,10594,10688,11024,10394,6
0,0,0,12797,10641,10688,11012,10394,6
0,0,0,12797,10629,10676,10987,10406,6
0,0,0,12797,10605,10676,10975,10453,6
0,0,0,12797,10594,10688,11012,10441,6
0,0,0,12770,10641,10688,11012,10418,6
0,0,0,12756,10605,10688,11036,10441,6
0,0,0,12743,10629,10700,11012,10441,6
0,0,0,12770,10594,10676,11036,10441,6
0,0,0,12756,10617,10676,11012,10394,6
0,0,0,12743,10629,10700,11024,10418,6
0,0,0,12743,10594,10688,11012,10418,6
0,0,0,12730,10605,10676,11012,10406,6
0,0,0,12743,10629,10688,10987,10429,6
0,0,0,12703,10594,10688,11012,10406,6
0,0,0,12703,10605,10676,10999,10394,6
0,0,0,12716,10605,10700,10999,10441,6
0,0,0,12676,10617,10700,10987,10429,6
0,0,0,12636,10629,10700,11012,10418,6
0,0,0,12636,10594,10688,11024,10441,6
0,0,0,12636,10629,10676,10999,10406,6
0,0,0,12636,10629,10700,11012,10453,6
0,0,0,12636,10641,10688,11012,10406,6
0,0,0,12636,10605,10676,10975,10394,6
0,0,0,12636,10582,10688,11012,10406,6
0,0,0,12690,10605,10676,10987,10453,6
0,0,0,13191,10629,10688,11012,10429,6
0,0,0,13371,10605,10676,11024,10394,6
0,0,0,13636,10629,10688,11012,10418,6
0,0,0,13778,10629,10676,11036,10418,6
0,0,0,13749,10629,10676,10999,10453,6
0,0,0,13524,10594,10688,11012,10394,6
0,0,0,13357,10629,10676,11024,10406,6
0,0,0,13287,10605,10676,11024,10441,6
0,0,0,13109,10629,10688,10987,10441,6
0,0,0,13013,10629,10688,10987,10406,6
0,0,0,12959,10641,10688,11012,10441,6
0,0,0,12959,10594,10688,10987,10441,6
0,0,0,12959,10629,10688,11012,10441,6
0,0,0,12945,10629,10676,11012,10418,6
0,0,0,12905,10617,10676,11012,10429,6
0,0,0,12959,10641,10676,10975,10453,6
0,0,0,12905,10617,10676,11012,10441,6
0,0,0,12918,10605,10700,11012,10418,6
0,0,0,12918,10629,10688,11036,10441,6
0,0,0,12918,10629,10712,10987,10429,6
0,0,0,12918,10629,10688,11012,10418,6
0,0,0,12905,10594,10712,11012,10441,6
0,0,0,12932,10594,10676,11036,10441,6
0,0,0,12932,10641,10700,10987,10453,6
0,0,0,12999,10641,10688,10987,10429,6
0,0,0,12972,10629,10688,11012,10441,6
0,0,0,13301,10653,10736,11036,10441,6
0,0,0,13468,10664,10748,11084,10488,6
0,0,0,13921,10724,10795,11084,10488,6
0,0,0,14253,10748,10807,11084,10535,6
0,0,0,14547,10795,10867,11109,10488,6
0,0,0,14562,10867,10867,11121,10546,6
0,0,0,14429,10843,10879,11109,10511,6
0,0,0,14195,10867,10879,11121,10535,6
0,0,0,14108,10915,10915,11121,10535,6
0,0,0,14079,10915,10915,11121,10499,6
0,0,0,13992,10915,10915,11109,10535,6
0,0,0,13878,10891,10915,11133,10535,6
0,0,0,13806,10915,10879,11145,10499,6
0,0,0,13749,10891,10915,11133,10488,6
0,0,0,13735,10903,10915,11109,10499,6
0,0,0,13679,10891,10927,11145,10535,6
0,0,0,13622,10915,10903,11133,10488,6
0,0,0,13566,10915,10915,11109,10499,6
0,0,0,13566,10891,10879,11121,10499,6
0,0,0,13538,10915,10891,11133,10535,6
0,0,0,13468,10915,10879,11133,10511,6
0,0,0,13398,10915,10915,11121,10476,6
0,0,0,13384,10891,10915,11133,10511,6
0,0,0,13371,10891,10915,11121,10476,6
0,0,0,13343,10891,10879,11157,10488,6
0,0,0,13315,10891,10915,11121,10499,6
0,0,0,13301,10915,10891,11133,10511,6
0,0,0,13287,10891,10927,11145,10511,6
0,0,0,13232,10915,10915,11133,10535,6
0,0,0,13246,10915,10915,11121,10511,6
0,0,0,13232,10927,10879,11109,10499,6
0,0,0,13177,10927,10891,11109,10535,6
0,0,0,13246,10903,10879,11109,10499,6
0,0,0,13191,10915,10879,11109,10488,6
0,0,0,13205,10879,10867,11109,10523,6
0,0,0,13177,10915,10915,11157,10488,6
0,0,0,13136,10915,10891,11133,10488,6
0,0,0,13177,10927,10915,11145,10511,6
0,0,0,13177,10915,10879,11121,10535,6
0,0,0,13136,10915,10915,11133,10499,6
0,0,0,13150,10891,10915,11157,10499,6
0,0,0,13122,10867,10927,11145,10488,6
0,0,0,13136,10879,10891,11133,10535,6
0,0,0,13150,10891,10879,11121,10499,6
0,0,0,13177,10879,10915,11145,10511,6
0,0,0,13136,10915,10891,11133,10488,6
0,0,0,13136,10915,10915,11157,10488,6
0,0,0,13177,10915,10879,11133,10499,6
0,0,0,13191,10915,10879,11145,10488,6
0,0,0,13177,10915,10879,11157,10511,6
0,0,0,13177,10915,10891,11109,10535,6
0,0,0,13122,10891,10879,11121,10499,6
0,0,0,13136,10915,10879,11145,10511,6
0,0,0,13150,10915,10879,11109,10523,6
0,0,0,13246,10915,10915,11133,10511,6
0,0,0,13566,10915,10915,11157,10535,6
0,0,0,13849,10927,10927,11182,10535,6
0,0,0,13906,10915,11072,11268,10582,6
0,0,0,13935,10927,11268,11329,10582,6
0,0,0,13906,10939,11317,11354,10629,6
0,0,0,13849,10915,11329,11317,10629,6
0,0,0,13849,10927,11403,11354,10617,6
0,0,0,13792,10963,11528,11379,10594,6
0,0,0,13735,10939,11703,11403,10605,6
0,0,0,13806,10975,11817,11403,10605,6
0,0,0,13749,11096,13068,12021,10867,6
0,0,0,13594,11121,13040,12112,11060,6
0,0,0,13510,11096,12972,12099,11060,6
0,0,0,13412,11109,12972,12073,11036,6
0,0,0,13454,11133,12891,12021,11012,6
0,0,0,13412,11084,12851,12009,11012,6
0,0,0,13398,11109,12824,11983,10975,6
0,0,0,13384,11109,12703,11957,10939,6
0,0,0,13412,11072,12530,11932,10987,6
0,0,0,13524,11096,12517,11868,10987,6
0,0,0,13510,11060,12490,11868,10963,6
0,0,0,13482,11084,12477,11830,10963,6
0,0,0,13636,11060,12451,11855,10939,6
0,0,0,14151,11072,12424,11817,10915,6
0,0,0,14473,11072,12398,11817,10915,6
0,0,0,14532,11109,12398,11804,10939,6
0,0,0,14726,11084,12385,11779,10927,6
0,0,0,14741,11084,12346,11779,10867,6
0,0,0,14801,11109,12372,11830,10903,6
0,0,0,14846,11109,12346,11792,10867,6
0,0,0,14846,11109,12359,11779,10879,6
0,0,0,14861,11109,12346,11754,10879,6
0,0,0,14891,11084,12320,11779,10891,6
0,0,0,14876,11109,12346,11779,10879,6
0,0,0,14907,11072,12346,11766,10855,6
0,0,0,14952,11109,12320,11779,10867,6
0,0,0,14846,11084,12280,11779,10891,6
0,0,0,14711,11072,12320,11766,10879,6
0,0,0,14636,11109,12293,11754,10867,6
0,0,0,14607,11084,12280,11716,10879,6
0,0,0,14621,11072,12241,11703,10867,6
0,0,0,14562,11084,12267,11703,10867,6
0,0,0,14562,11084,12254,11716,10843,6
0,0,0,14518,11060,12189,11716,10819,6
0,0,0,14488,11060,11957,11665,10831,6
0,0,0,14429,11060,11957,11640,10795,6
0,0,0,14385,11048,11957,11603,10771,6
0,0,0,14385,11048,11932,11603,10783,6
0,0,0,14326,11060,11957,11615,10759,6
0,0,0,14311,11060,11919,11628,10748,6
0,0,0,14311,11060,11906,11628,10748,6
0,0,0,14268,11060,11919,11603,10771,6
0,0,0,14311,11060,11906,11615,10759,6
0,0,0,14326,11024,11906,11603,10783,6
0,0,0,14370,11072,11906,11578,10748,6
0,0,0,14385,11060,11919,11590,10724,6
0,0,0,14385,11024,11906,11603,10748,6
0,0,0,14399,11060,11906,11603,10771,6
0,0,0,14473,11036,11919,11603,10724,6
0,0,0,14473,11060,11881,11615,10724,6
0,0,0,14414,11048,11906,11603,10664,6
0,0,0,14370,11060,11881,11603,10676,6
0,0,0,14238,11036,11906,11590,10676,6
0,0,0,14282,11048,11881,11578,10676,6
0,0,0,14399,11060,11906,11578,10676,6
0,0,0,14429,11024,11855,11603,10676,6
0,0,0,14503,11048,11906,11603,10676,6
0,0,0,14503,11060,11855,11565,10664,6
0,0,0,14488,11024,11868,11578,10664,6
0,0,0,14311,11060,11855,11578,10629,6
0,0,0,14326,11024,11855,11590,10664,6
0,0,0,14282,11060,11868,11578,10676,6
0,0,0,14458,11060,11881,11603,10664,6
0,0,0,14429,11060,11855,11590,10653,6
0,0,0,14503,11048,11855,11565,10653,6
0,0,0,14562,11012,11855,11553,10653,6
0,0,0,14547,11036,11868,11553,10664,6
0,0,0,14488,11012,11830,11553,10629,6
0,0,0,14518,11024,11830,11578,10629,6
0,0,0,14488,11024,11855,11565,10653,6
0,0,0,14577,11012,11804,11553,10629,6
0,0,0,14547,10987,11804,11578,10653,6
0,0,0,14577,10999,11855,11553,10629,6
0,0,0,14341,10963,11804,11515,10641,6
0,0,0,14399,10963,11830,11515,10641,6
0,0,0,14577,10975,11804,11528,10676,6
0,0,0,14636,10975,11817,11528,10641,6
0,0,0,14458,10975,11804,11553,10594,6
0,0,0,14473,10963,11779,11565,10653,6
0,0,0,14458,10975,11779,11565,10629,6
0,0,0,14326,10987,11804,11553,10629,6
0,0,0,14311,10963,11804,11553,10664,6
0,0,0,14195,10975,11754,11503,10676,6
0,0,0,14195,10843,11379,11354,10641,6
0,0,0,14311,10771,11012,11304,10605,6
0,0,0,14399,10748,10891,11231,10594,6
0,0,0,14326,10748,10879,11206,10546,6
0,0,0,14137,10700,10831,11133,10499,6
0,0,0,14137,10700,10783,11133,10546,6
0,0,0,14108,10700,10771,11072,10499,6
0,0,0,14021,10688,10771,11121,10499,6
0,0,0,13863,10688,10771,11109,10488,6
0,0,0,13863,10700,10795,11133,10535,6
0,0,0,13921,10676,10783,11109,10535,6
0,0,0,13792,10676,10783,11133,10535,6
0,0,0,13806,10688,10783,11109,10488,6
0,0,0,13806,10653,10783,11133,10511,6
0,0,0,13749,10653,10807,11121,10488,6
0,0,0,13735,10676,10783,11133,10488,6
0,0,0,13721,10700,10843,11145,10488,6
0,0,0,13735,10676,10855,11133,10488,6
0,0,0,13721,10688,10867,11157,10488,6
0,0,0,13735,10676,10831,11133,10535,6
0,0,0,13749,10688,10819,11121,10499,6
0,0,0,13806,10676,10831,11170,10535,6
0,0,0,13778,10700,10855,11109,10535,6
0,0,0,13749,10676,10831,11133,10511,6
0,0,0,13792,10676,10867,11157,10558,6
0,0,0,13935,10676,10819,11133,10511,6
0,0,0,13964,10676,10855,11157,10499,6
0,0,0,13906,10676,10819,11145,10535,6
0,0,0,13892,10676,10831,11170,10511,6
0,0,0,13849,10676,10831,11133,10546,6
0,0,0,13806,10653,10867,11157,10535,6
0,0,0,13849,10629,10855,11133,10511,6
0,0,0,13778,10676,10843,11157,10535,6
0,0,0,13806,10676,10831,11157,10499,6
0,0,0,13835,10641,10819,11157,10535,6
0,0,0,13863,10676,10843,11133,10511,6
0,0,0,13622,10676,10867,11133,10499,6
0,0,0,13636,10676,10855,11109,10511,6
0,0,0,13566,10676,10855,11157,10546,6
0,0,0,13964,10676,10879,11157,10523,6
0,0,0,14224,10688,10879,11170,10511,6
0,0,0,14238,10676,10867,11170,10511,6
0,0,0,14326,10653,10879,11121,10499,6
0,0,0,14429,10700,10879,11145,10511,6
0,0,0,14151,10676,10855,11133,10488,6
0,0,0,13849,10676,10879,11121,10546,6
0,0,0,13863,10676,10867,11133,10535,6
0,0,0,13764,10676,10867,11133,10511,6
0,0,0,14458,10641,10855,11157,10511,6
0,0,0,15319,10641,10867,11145,10488,6
0,0,0,15335,10676,10855,11133,10488,6
0,0,0,15181,10676,10867,11157,10488,6
0,0,0,14831,10664,10891,11133,10511,6
0,0,0,14577,10676,10891,11133,10488,6
0,0,0,14562,10653,10867,11157,10511,6
0,0,0,14547,10688,10903,11133,10511,6
0,0,0,14592,10688,10915,11133,10535,6
0,0,0,14577,10676,10891,11157,10499,6
0,0,0,14547,10676,10879,11145,10488,6
0,0,0,14399,10664,10867,11121,10499,6
0,0,0,14370,10664,10891,11133,10488,6
0,0,0,14503,10676,10891,11145,10546,6
0,0,0,14547,10676,10879,11157,10476,6
0,0,0,14547,10688,10879,11170,10488,6
0,0,0,14577,10688,10915,11157,10535,6
0,0,0,14696,10748,10987,11182,10511,6
0,0,0,14696,10759,10963,11182,10511,6
0,0,0,14801,10736,11024,11157,10535,6
0,0,0,14726,10748,11012,11170,10582,6
0,0,0,14696,10724,10987,11170,10511,6
0,0,0,14651,10748,11012,11170,10511,6
0,0,0,14636,10771,11024,11170,10499,6
0,0,0,14651,10771,11060,11182,10535,6
0,0,0,14741,10819,11121,11170,10535,6
0,0,0,15165,11012,11354,11255,10605,6
0,0,0,15335,11024,11428,11243,10570,6
0,0,0,15335,11060,11453,11255,10582,6
0,0,0,15412,11072,11503,11317,10594,6
0,0,0,15459,11060,11515,11268,10605,6
0,0,0,15490,11060,11465,11317,10594,6
0,0,0,15288,11060,11528,11379,10653,6
0,0,0,15119,11060,11553,11391,10617,6
0,0,0,15104,11072,11578,11503,10676,6
0,0,0,15089,11060,11628,11503,10676,6
0,0,0,15074,11012,11565,11565,10653,6
0,0,0,15150,11048,11603,11553,10653,6
0,0,0,15181,11060,11578,11553,10629,6
0,0,0,15181,11036,11578,11553,10594,6
0,0,0,15150,11048,11565,11540,10653,6
0,0,0,15150,11060,11603,11515,10664,6
0,0,0,15150,11036,11565,11515,10629,6
0,0,0,15181,11060,11553,11528,10641,6
0,0,0,15043,11012,11565,11515,10664,6
0,0,0,14726,11012,11565,11540,10653,6
0,0,0,14666,11060,11590,11503,10664,6
0,0,0,14726,11012,11553,11528,10676,6
0,0,0,14711,11024,11603,12009,10748,6
0,0,0,14651,11048,11615,12099,10748,6
0,0,0,14636,11048,11603,12176,10688,6
0,0,0,14607,11048,11603,12176,10676,6
0,0,0,14636,11012,11640,12215,10641,6
0,0,0,14666,11012,11603,12254,10688,6
0,0,0,14786,11060,11615,12346,10653,6
0,0,0,14846,11024,11603,12228,10641,6
0,0,0,14786,11036,11603,12009,10676,6
0,0,0,14741,11060,11603,11919,10676,6
0,0,0,14756,11024,11603,11957,10688,6
0,0,0,14786,11012,11603,11957,10664,6
0,0,0,14831,11036,11590,11957,10688,6
0,0,0,14922,11060,11603,11970,10676,6
0,0,0,14937,11060,11615,11932,10676,6
0,0,0,14967,11024,11603,11932,10676,6
0,0,0,14937,11036,11615,11932,10676,6
0,0,0,15104,11060,11603,11932,10688,6
0,0,0,15104,11036,11590,11906,10724,6
0,0,0,15119,11060,11590,11932,10676,6
0,0,0,15211,11060,11603,11906,10724,6
0,0,0,15258,11060,11590,11906,10676,6
0,0,0,15165,11012,11590,11932,10676,6
0,0,0,15211,11024,11603,11906,10676,6
0,0,0,15119,11024,11603,11906,10688,6
0,0,0,15058,11036,11603,11868,10688,6
0,0,0,15089,11012,11603,11868,10676,6
0,0,0,15058,11024,11628,11906,10676,6
0,0,0,15104,11036,11603,11868,10676,6
0,0,0,15119,11060,11615,11893,10676,6
0,0,0,15104,11036,11603,11868,10676,6
0,0,0,14997,11060,11628,11881,10676,6
0,0,0,14997,11060,11640,11906,10712,6
0,0,0,15058,11048,11615,11868,10700,6
0,0,0,15150,11012,11603,11881,10700,6
0,0,0,15165,11024,11628,11881,10688,6
0,0,0,15288,11036,11615,11868,10676,6
0,0,0,15273,11036,11603,11868,10676,6
0,0,0,15211,11048,11603,11868,10688,6
0,0,0,15211,11036,11615,11855,10688,6
0,0,0,15211,11012,11603,11855,10676,6
0,0,0,15211,11060,11603,11868,10700,6
0,0,0,15227,11036,11603,11906,10664,6
0,0,0,15211,11060,11628,11868,10676,6
0,0,0,15135,11024,11603,11855,10653,6
0,0,0,15150,11036,11640,11881,10676,6
0,0,0,15058,11048,11603,11868,10700,6
0,0,0,15211,11060,11615,11830,10700,6
0,0,0,15119,11048,11615,11817,10700,6
0,0,0,15089,11072,11615,11855,10664,6
0,0,0,15058,11060,11615,11855,10688,6
0,0,0,15089,11084,11578,11804,10676,6
0,0,0,14967,11060,11615,11804,10700,6
0,0,0,14997,11048,11578,11804,10724,6
0,0,0,15028,11060,11603,11817,10676,6
0,0,0,14982,11036,11603,11842,10641,6
0,0,0,14967,11036,11615,11804,10688,6
0,0,0,14952,11060,11628,11804,10688,6
0,0,0,14831,11060,11603,11792,10641,6
0,0,0,14846,11060,11603,11766,10676,6
0,0,0,14801,11060,11628,11804,10653,6
0,0,0,14756,11060,11603,11766,10676,6
0,0,0,14786,11084,11615,11804,10700,6
0,0,0,14786,11060,11603,11804,10676,6
0,0,0,14831,11048,11603,11804,10676,6
0,0,0,14816,11048,11603,11817,10688,6
0,0,0,14786,11060,11628,11804,10700,6
0,0,0,14801,11072,11565,11804,10653,6
0,0,0,14786,11084,11628,11804,10676,6
0,0,0,14756,11072,11578,11804,10676,6
0,0,0,14786,11060,11578,11804,10700,6
0,0,0,14846,11072,11565,11792,10653,6
0,0,0,14846,11060,11578,11792,10688,6
0,0,0,14801,11072,11603,11817,10641,6
0,0,0,14801,11072,11603,11817,10641,6
0,0,0,14786,11072,11603,11792,10700,6
0,0,0,14786,11072,11603,11830,10664,6
0,0,0,14846,11036,11578,11817,10653,6
0,0,0,14846,11072,11628,11792,10676,6
0,0,0,14861,11060,11628,11779,10676,6
0,0,0,14861,11060,11665,11766,10688,6
0,0,0,14801,11036,11653,11804,10641,6
0,0,0,14846,11072,11628,11766,10653,6
0,0,0,14831,11060,11653,11779,10688,6
0,0,0,14801,11060,11653,11779,10688,6
0,0,0,14801,11072,11628,11779,10700,6
0,0,0,14846,11060,11640,11779,10700,6
0,0,0,14801,11072,11653,11804,10676,6
0,0,0,14816,11060,11653,11766,10676,6
0,0,0,14801,11060,11615,11804,10676,6
0,0,0,14801,11060,11653,11766,10664,6
0,0,0,14891,11072,11628,11779,10688,6
0,0,0,14861,11084,11653,11804,10676,6
0,0,0,14861,11084,11653,11766,10676,6
0,0,0,14861,11084,11640,11804,10688,6
0,0,0,14846,11060,11653,11804,10676,6
0,0,0,14726,11060,11603,11804,10653,6
0,0,0,14967,11072,11628,11766,10688,6
0,0,0,15837,11084,11792,11830,10676,6
0,0,0,16157,11084,11817,11817,10688,6
0,0,0,16319,11109,11855,11842,10676,6
0,0,0,16336,11072,11881,11855,10676,6
0,0,0,15837,11072,11881,11817,10700,6
0,0,0,15319,11060,11906,11855,10629,6
0,0,0,15710,11060,11868,11817,10676,6
0,0,0,15964,11060,11868,11855,10688,6
0,0,0,15884,11060,11906,11855,10653,6
0,0,0,16028,11072,12189,11855,10688,6
0,0,0,16189,11060,12124,11817,10629,6
0,0,0,16125,11024,12112,11830,10676,6
0,0,0,16206,11048,12163,11855,10653,6
0,0,0,16173,10987,12137,11842,10629,6
0,0,0,16303,11024,12124,11804,10641,6
0,0,0,16532,11024,12060,11754,10629,6
0,0,0,16648,10987,11957,11628,10605,6
0,0,0,16898,10987,11932,11553,10594,6
0,0,0,17169,10987,11919,11478,10511,6
0,0,0,17186,11012,11881,11379,10476,6
0,0,0,17169,10987,11881,11354,10488,6
0,0,0,17289,10987,11779,11354,10453,6
0,0,0,17565,10975,11678,11317,10453,6
0,0,0,17669,10963,11553,11255,10441,6
0,0,0,17634,10903,11416,11231,10453,6
0,0,0,17634,10843,11268,11231,10441,6
0,0,0,17600,10819,11206,11268,10418,6
0,0,0,17634,10819,11206,11206,10441,6
0,0,0,17565,10783,11170,11206,10441,6
0,0,0,17600,10783,11170,11255,10406,6
0,0,0,17600,10819,11170,11206,10394,6
0,0,0,17530,10795,11170,11206,10418,6
0,0,0,17565,10771,11157,11231,10406,6
0,0,0,17513,10783,11170,11206,10418,6
0,0,0,17530,10795,11157,11231,10418,6
0,0,0,17461,10783,11170,11219,10406,6
0,0,0,17443,10771,11157,11206,10406,6
0,0,0,17461,10807,11157,11255,10394,6
0,0,0,17374,10783,11170,11255,10406,6
0,0,0,17220,10771,11170,11255,10406,6
0,0,0,17186,10771,11157,11219,10441,6
0,0,0,17169,10783,11170,11206,10441,6
0,0,0,17169,10771,11182,11206,10441,6
0,0,0,17186,10783,11157,11182,10418,6
0,0,0,17237,10771,11109,11157,10394,6
0,0,0,17186,10771,11012,11133,10406,6
0,0,0,17186,10759,11012,11157,10383,6
0,0,0,16949,10771,11012,11133,10406,6
0,0,0,16848,10771,10987,11145,10406,6
0,0,0,16831,10759,11012,11133,10383,6
0,0,0,16815,10771,11012,11157,10394,6
0,0,0,16815,10771,10999,11157,10406,6
0,0,0,16815,10771,11024,11109,10394,6
0,0,0,16781,10748,11012,11157,10406,6
0,0,0,16254,10736,10987,11157,10371,6
0,0,0,16915,10748,10999,11121,10406,6
0,0,0,16238,10748,10987,11121,10394,6
0,0,0,16222,10748,10987,11157,10371,6
0,0,0,16044,10748,10963,11121,10383,6
0,0,0,16615,10688,10927,11121,10406,6
0,0,0,16648,10712,10951,11121,10406,6
0,0,0,16565,10688,10927,11109,10383,6
0,0,0,16882,10688,10927,11109,10348,6
0,0,0,16966,10700,10927,11121,10394,6
0,0,0,16271,10676,10879,11109,10394,6
0,0,0,16060,10688,10879,11109,10371,6
0,0,0,16060,10688,10891,11109,10348,6
0,0,0,16060,10676,10879,11096,10394,6
0,0,0,15948,10676,10879,11072,10394,6
0,0,0,15900,10676,10891,11109,10394,6
0,0,0,15868,10688,10879,11096,10394,6
0,0,0,15837,10700,10867,11109,10348,6
0,0,0,15948,10688,10879,11072,10359,6
0,0,0,15900,10676,10891,11109,10359,6
0,0,0,15852,10688,10879,11096,10394,6
0,0,0,15916,10676,10879,11096,10348,6
0,0,0,15789,10700,10903,11084,10394,6
0,0,0,15837,10653,10903,11084,10394,6
0,0,0,16060,10676,10879,11096,10371,6
0,0,0,16044,10676,10867,11121,10383,6
0,0,0,15837,10676,10879,11109,10394,6
0,0,0,16615,10653,10891,11084,10394,6
0,0,0,16831,10688,10867,11133,10371,6
0,0,0,16949,10700,10867,11109,10348,6
0,0,0,16632,10664,10867,11121,10383,6
0,0,0,16582,10688,10867,11109,10394,6
0,0,0,16385,10676,10879,11109,10406,6
0,0,0,16352,10688,10903,11133,10394,6
0,0,0,16287,10676,10879,11109,10348,6
0,0,0,16109,10664,10891,11109,10348,6
0,0,0,16012,10653,10879,11109,10394,6
0,0,0,16060,10676,10867,11072,10394,6
0,0,0,15900,10676,10891,11121,10418,6
0,0,0,15837,10688,10879,11121,10406,6
0,0,0,15837,10676,10879,11096,10371,6
0,0,0,15741,10676,10879,11109,10406,6
0,0,0,15741,10653,10867,11109,10371,6
0,0,0,15710,10688,10855,11109,10348,6
0,0,0,15710,10664,10891,11133,10371,6
0,0,0,15600,10641,10867,11109,10383,6
0,0,0,15615,10676,10867,11109,10371,6
0,0,0,15584,10676,10867,11109,10394,6
0,0,0,15553,10676,10867,11121,10359,6
0,0,0,15647,10653,10867,11109,10394,6
0,0,0,15553,10676,10843,11109,10359,6
0,0,0,15584,10676,10867,11096,10348,6
0,0,0,15615,10629,10867,11084,10359,6
0,0,0,15584,10653,10891,11109,10383,6
0,0,0,15521,10676,10879,11109,10394,6
0,0,0,15553,10676,10879,11109,10371,6
0,0,0,15521,10676,10891,11109,10394,6
0,0,0,15615,10664,10867,11084,10348,6
0,0,0,15584,10664,10867,11109,10348,6
0,0,0,15647,10676,10879,11109,10359,6
0,0,0,15615,10676,10879,11121,10359,6
0,0,0,15647,10676,10879,11084,10406,6
0,0,0,15741,10676,10867,11072,10359,6
0,0,0,15726,10664,10867,11121,10383,6
0,0,0,15663,10653,10879,11121,10371,6
0,0,0,15600,10676,10867,11084,10394,6
0,0,0,15647,10676,10867,11121,10359,6
0,0,0,15615,10676,10879,11109,10359,6
0,0,0,15615,10676,10855,11109,10348,6
0,0,0,15647,10688,10879,11109,10383,6
0,0,0,15615,10676,10867,11109,10394,6
0,0,0,15584,10676,10867,11121,10359,6
0,0,0,15553,10676,10879,11109,10371,6
0,0,0,15647,10688,10879,11121,10383,6
0,0,0,15757,10688,10879,11109,10359,6
0,0,0,15741,10676,10867,11133,10371,6
0,0,0,16060,10676,10879,11109,10406,6
0,0,0,15932,10676,10879,11121,10383,6
0,0,0,16238,10676,10867,11072,10394,6
0,0,0,16549,10676,10879,11121,10394,6
0,0,0,16549,10676,10867,11096,10394,6
0,0,0,16582,10688,10867,11109,10394,6
0,0,0,16417,10676,10879,11109,10371,6
0,0,0,16222,10676,10867,11109,10371,6
0,0,0,16060,10676,10891,11084,10394,6
0,0,0,15789,10664,10867,11121,10394,6
0,0,0,15789,10676,10855,11084,10394,6
0,0,0,15726,10641,10879,11072,10359,6
0,0,0,15459,10664,10867,11109,10394,6
0,0,0,15412,10641,10831,11072,10359,6
0,0,0,15258,10688,10879,11096,10371,6
0,0,0,15150,10676,10855,11084,10348,6
0,0,0,14982,10664,10867,11072,10348,6
0,0,0,14997,10676,10867,11121,10359,6
0,0,0,14922,10688,10855,11084,10348,6
0,0,0,14876,10653,10843,11109,10348,6
0,0,0,14876,10653,10879,11109,10359,6
0,0,0,14726,10676,10879,11096,10394,6
0,0,0,14666,10688,10867,11109,10348,6
0,0,0,14503,10688,10855,11072,10394,6
0,0,0,14370,10664,10843,11084,10371,6
0,0,0,14326,10653,10867,11121,10394,6
0,0,0,14846,10676,10891,11084,10371,6
0,0,0,14666,10676,10867,11109,10348,6
0,0,0,14562,10653,10879,11121,10383,6
0,0,0,14385,10688,10855,11084,10371,6
0,0,0,14253,10641,10867,11109,10383,6
0,0,0,14282,10641,10855,11133,10371,6
0,0,0,14224,10653,10855,11109,10394,6
0,0,0,14607,10629,10879,11109,10394,6
0,0,0,14666,10641,10867,11109,10348,6
0,0,0,14518,10664,10843,11109,10406,6
0,0,0,14607,10653,10867,11084,10406,6
0,0,0,14846,10676,10843,11133,10371,6
0,0,0,15119,10676,10831,11084,10394,6
0,0,0,14982,10653,10831,11109,10371,6
0,0,0,15058,10676,10855,11109,10371,6
0,0,0,14666,10676,10831,11121,10359,6
0,0,0,14967,10664,10819,11109,10394,6
0,0,0,14666,10664,10867,11072,10394,6
0,0,0,14876,10676,10831,11109,10394,6
0,0,0,15058,10676,10831,11109,10371,6
0,0,0,15150,10676,10831,11145,10371,6
0,0,0,14636,10688,10843,11096,10348,6
0,0,0,14666,10676,10831,11109,10383,6
0,0,0,14414,10676,10867,11072,10394,6
0,0,0,14592,10676,10867,11109,10394,6
0,0,0,14636,10653,10867,11072,10359,6
0,0,0,14681,10676,10843,11072,10394,6
0,0,0,14726,10653,10819,11109,10394,6
0,0,0,14488,10641,10843,11121,10406,6
0,0,0,14429,10676,10843,11096,10348,6
0,0,0,14370,10653,10867,11096,10371,6
0,0,0,14726,10653,10867,11072,10406,6
0,0,0,14861,10676,10867,11121,10348,6
0,0,0,14726,10676,10855,11133,10371,6
0,0,0,14651,10653,10867,11121,10394,6
0,0,0,14399,10676,10843,11121,10406,6
0,0,0,14429,10676,10867,11109,10394,6
0,0,0,14326,10688,10843,11121,10406,6
0,0,0,14399,10676,10843,11109,10359,6
0,0,0,14518,10653,10819,11084,10394,6
0,0,0,14429,10676,10843,11109,10348,6
0,0,0,14180,10641,10843,11121,10383,6
0,0,0,14050,10664,10867,11109,10406,6
0,0,0,14458,10676,10855,11109,10371,6
0,0,0,15074,10688,10879,11109,10359,6
0,0,0,15615,10700,10879,11096,10394,6
0,0,0,15600,10676,10843,11109,10383,6
0,0,0,15521,10664,10867,11072,10359,6
0,0,0,15789,10700,10867,11109,10394,6
0,0,0,16499,10676,10879,11109,10394,6
0,0,0,16698,10676,10891,11109,10371,6
0,0,0,16385,10688,10879,11096,10371,6
0,0,0,16238,10676,10867,11121,10394,6
0,0,0,16093,10688,10867,11109,10406,6
0,0,0,16093,10676,10879,11109,10348,6
0,0,0,16028,10676,10891,11084,10394,6
0,0,0,15980,10688,10867,11109,10348,6
0,0,0,15916,10676,10879,11109,10359,6
0,0,0,15980,10676,10879,11121,10394,6
0,0,0,16109,10700,10867,11133,10394,6
0,0,0,16222,10676,10867,11109,10394,6
0,0,0,16157,10688,10879,11072,10383,6
0,0,0,16060,10700,10867,11084,10394,6
0,0,0,15916,10688,10867,11109,10394,6
0,0,0,15900,10676,10891,11084,10371,6
0,0,0,16582,10688,10879,11121,10394,6
0,0,0,16516,10700,10879,11096,10418,6
0,0,0,16238,10712,10879,11121,10394,6
0,0,0,16499,10688,10867,11133,10383,6
0,0,0,16949,10688,10879,11133,10383,6
0,0,0,17050,10700,10879,11109,10348,6
0,0,0,16915,10700,10867,11096,10394,6
0,0,0,16748,10700,10855,11072,10406,6
0,0,0,16665,10688,10879,11072,10394,6
0,0,0,16615,10676,10867,11109,10394,6
0,0,0,16549,10700,10867,11109,10394,6
0,0,0,16499,10700,10879,11121,10371,6
0,0,0,16483,10700,10855,11084,10394,6
0,0,0,16483,10688,10867,11109,10371,6
0,0,0,16417,10712,10879,11121,10383,6
0,0,0,16417,10700,10843,11109,10383,6
0,0,0,16368,10724,10867,11109,10394,6
0,0,0,16368,10688,10867,11121,10406,6
0,0,0,16271,10688,10879,11109,10394,6
0,0,0,16189,10676,10855,11072,10394,6
0,0,0,16141,10688,10867,11072,10359,6
0,0,0,16125,10676,10879,11084,10371,6
0,0,0,16287,10700,10879,11072,10383,6
0,0,0,16368,10724,10891,11072,10394,6
0,0,0,16632,10688,10855,11109,10418,6
0,0,0,16915,10688,10855,11133,10371,6
0,0,0,17669,10700,10867,11109,10371,6
0,0,0,17704,10688,10879,11121,10394,6
0,0,0,17634,10700,10879,11121,10383,6
0,0,0,17443,10676,10867,11084,10394,6
0,0,0,17220,10724,10867,11072,10406,6
0,0,0,17084,10700,10879,11121,10406,6
0,0,0,17289,10712,10879,11096,10418,6
0,0,0,17392,10700,10879,11121,10394,6
0,0,0,17357,10676,10879,11072,10406,6
0,0,0,17289,10700,10867,11084,10371,6
0,0,0,17495,10700,10879,11096,10394,6
0,0,0,17289,10688,10879,11109,10394,6
0,0,0,17289,10724,10891,11084,10394,6
0,0,0,17426,10688,10879,11121,10359,6
0,0,0,17357,10688,10879,11121,10406,6
0,0,0,17289,10700,10879,11096,10394,6
0,0,0,17306,10712,10879,11121,10394,6
0,0,0,17323,10688,10879,11072,10418,6
0,0,0,17323,10676,10879,11109,10406,6
0,0,0,17289,10700,10915,11084,10394,6
0,0,0,17306,10700,10879,11121,10383,6
0,0,0,17289,10700,10915,11084,10394,6
0,0,0,17220,10676,10915,11109,10359,6
0,0,0,17289,10712,10879,11072,10406,6
0,0,0,17254,10724,10915,11072,10394,6
0,0,0,17254,10724,10891,11133,10394,6
0,0,0,17704,10676,10891,11084,10394,6
0,0,0,17652,10724,10891,11109,10418,6
0,0,0,17722,10688,10915,11084,10418,6
0,0,0,18022,10724,10891,11109,10394,6
0,0,0,17986,10688,10915,11060,10371,6
0,0,0,17986,10676,10891,11109,10394,6
0,0,0,18093,10700,10879,11121,10406,6
0,0,0,18236,10700,10915,11121,10383,6
0,0,0,18236,10688,10891,11133,10406,6
0,0,0,18147,10736,10867,11133,10418,6
0,0,0,18057,10676,10879,11121,10394,6
0,0,0,18057,10700,10903,11109,10394,6
0,0,0,18057,10688,10879,11109,10394,6
0,0,0,18057,10688,10879,11109,10383,6
0,0,0,18022,10700,10879,11084,10394,6
0,0,0,17986,10688,10891,11121,10394,6
0,0,0,17986,10688,10915,11109,10371,6
0,0,0,17968,10688,10879,11109,10406,6
0,0,0,17933,10700,10903,11109,10394,6
0,0,0,17933,10676,10879,11121,10394,6
0,0,0,17915,10724,10867,11072,10406,6
0,0,0,17862,10724,10867,11109,10394,6
0,0,0,17898,10724,10879,11133,10371,6
0,0,0,17880,10724,10879,11121,10406,6
0,0,0,17880,10712,10915,11109,10394,6
0,0,0,17862,10724,10867,11072,10429,6
0,0,0,17845,10676,10903,11133,10394,6
0,0,0,17845,10724,10867,11133,10394,6
0,0,0,17827,10700,10879,11109,10383,6
0,0,0,17845,10700,10867,11109,10371,6
0,0,0,17845,10676,10867,11109,10394,6
0,0,0,17792,10676,10879,11109,10383,6
0,0,0,17845,10724,10879,11109,10383,6
0,0,0,17792,10688,10879,11121,10406,6
0,0,0,17809,10688,10879,11072,10394,6
0,0,0,17862,10688,10879,11072,10394,6
0,0,0,17845,10724,10879,11096,10371,6
0,0,0,17634,10688,10915,11084,10394,6
0,0,0,17513,10724,10867,11121,10406,6
0,0,0,17513,10736,10867,11121,10429,6
0,0,0,17530,10700,10879,11121,10394,6
0,0,0,17461,10688,10879,11096,10394,6
0,0,0,17495,10688,10879,11145,10394,6
0,0,0,17426,10688,10879,11096,10394,6
0,0,0,17357,10688,10879,11096,10394,6
0,0,0,17374,10688,10879,11109,10394,6
0,0,0,17357,10736,10903,11109,10406,6
0,0,0,17374,10688,10891,11121,10406,6
0,0,0,17357,10724,10915,11133,10418,6
0,0,0,17582,10736,10891,11084,10418,6
0,0,0,17687,10700,10879,11121,10418,6
0,0,0,17669,10748,10915,11109,10371,6
0,0,0,17634,10724,10903,11109,10394,6
0,0,0,17634,10688,10915,11121,10406,6
0,0,0,17669,10700,10867,11133,10406,6
0,0,0,17634,10700,10879,11072,10394,6
0,0,0,17600,10748,10867,11109,10394,6
0,0,0,17582,10748,10891,11084,10418,6
0,0,0,17600,10724,10879,11096,10394,6
0,0,0,17547,10724,10915,11109,10383,6
0,0,0,17495,10724,10867,11121,10406,6
0,0,0,17461,10688,10915,11109,10394,6
0,0,0,17426,10724,10867,11121,10406,6
0,0,0,17426,10724,10903,11109,10394,6
0,0,0,17461,10724,10891,11109,10418,6
0,0,0,17495,10724,10915,11109,10418,6
0,0,0,17495,10688,10879,11084,10441,6
0,0,0,17443,10712,10915,11121,10394,6
0,0,0,17461,10712,10879,11109,10394,6
0,0,0,17443,10724,10891,11133,10394,6
0,0,0,17374,10736,10915,11084,10406,6
0,0,0,17409,10724,10915,11121,10429,6
0,0,0,17443,10748,10915,11121,10394,6
0,0,0,17461,10700,10879,11133,10394,6
0,0,0,17426,10724,10915,11109,10371,6
0,0,0,17478,10724,10903,11121,10418,6
0,0,0,17461,10688,10903,11133,10371,6
0,0,0,17443,10748,10879,11121,10394,6
0,0,0,17426,10724,10891,11109,10371,6
0,0,0,17426,10724,10915,11121,10383,6
0,0,0,17392,10700,10879,11145,10394,6
0,0,0,17426,10736,10915,11121,10406,6
0,0,0,17357,10748,10915,11109,10406,6
0,0,0,17357,10724,10891,11121,10394,6
0,0,0,17357,10724,10891,11121,10418,6
0,0,0,17374,10748,10879,11109,10406,6
0,0,0,17357,10700,10879,11109,10406,6
0,0,0,17323,10700,10879,11121,10406,6
0,0,0,17306,10748,10867,11121,10383,6
0,0,0,17237,10748,10879,11121,10359,6
0,0,0,17254,10724,10891,11109,10394,6
