GyroX,GyroY,GyroZ,Thumb,Index,Middle,Ring,Pinky,Gesture
0.0,0.0,0.0,12176,25843,26022,31849,39960,0
0.0,0.0,0.0,12189,25843,25945,31785,39832,0
0.0,0.0,0.0,12241,25793,25945,31720,39705,0
0.0,0.0,0.0,12241,25742,25843,31624,39536,0
0.0,0.0,0.0,12280,25742,25894,31624,39452,0
0.0,0.0,0.0,12320,25691,25818,31593,39411,0
0.0,0.0,0.0,12372,25691,25793,31593,39411,0
0.0,0.0,0.0,12438,25742,25793,31465,39285,0
0.0,0.0,0.0,12490,25641,25742,31561,39244,0
0.0,0.0,0.0,12490,25641,25717,31497,39160,0
0.0,0.0,0.0,12530,25641,25691,31465,39119,0
0.0,0.0,0.0,12543,25591,25641,31434,39160,0
0.0,0.0,0.0,12530,25616,25641,31339,38995,0
0.0,0.0,0.0,12583,25641,25691,31213,38830,0
0.0,0.0,0.0,12610,25515,25616,31087,39119,0
0.0,0.0,0.0,12543,25390,25440,30838,39832,0
0.0,0.0,0.0,12530,25316,25192,30469,40259,0
0.0,0.0,0.0,12583,25291,25118,30286,40216,0
0.0,0.0,0.0,12583,25241,24897,30105,40088,0
0.0,0.0,0.0,12716,25266,24873,30256,39874,0
0.0,0.0,0.0,12797,25316,24799,30286,39832,0
0.0,0.0,0.0,12972,25341,24897,30408,39790,0
0.0,0.0,0.0,13013,25341,24995,30530,39536,0
0.0,0.0,0.0,13040,25266,24995,30591,39494,0
0.0,0.0,0.0,13040,25316,24946,30622,39536,0
0.0,0.0,0.0,13040,25216,24946,30591,39411,0
0.0,0.0,0.0,13013,25291,24946,30622,39411,0
0.0,0.0,0.0,12972,25241,24921,30469,39411,0
0.0,0.0,0.0,12972,25241,24848,30499,39327,0
0.0,0.0,0.0,12959,25241,24848,30530,39077,0
0.0,0.0,0.0,12945,25241,24824,30561,39077,0
0.0,0.0,0.0,12918,25241,24799,30469,39036,0
0.0,0.0,0.0,12891,25241,24799,30377,39160,0
0.0,0.0,0.0,12824,25192,24775,30165,39160,0
0.0,0.0,0.0,12743,25093,24702,30165,39244,0
0.0,0.0,0.0,12703,25044,24654,30165,39244,0
0.0,0.0,0.0,12703,24995,24606,30045,39327,0
0.0,0.0,0.0,12756,25044,24534,29925,39160,0
0.0,0.0,0.0,12851,24995,24606,30045,39202,0
0.0,0.0,0.0,12905,25068,24654,30165,39119,0
0.0,0.0,0.0,12972,25044,24727,30347,39077,0
0.0,0.0,0.0,13122,25093,24824,30377,38995,0
0.0,0.0,0.0,13246,25216,24897,30377,38953,0
0.0,0.0,0.0,13371,25192,24848,30499,38953,0
0.0,0.0,0.0,13315,25093,24751,30499,38912,0
0.0,0.0,0.0,13287,25093,24630,30469,38707,0
0.0,0.0,0.0,13343,24995,24534,30499,38748,0
0.0,0.0,0.0,13315,24946,24462,30561,38707,0
0.0,0.0,0.0,13343,25044,24534,30499,38666,0
0.0,0.0,0.0,13343,25068,24678,30499,38707,0
0.0,0.0,0.0,13398,25167,24727,30469,38748,0
0.0,0.0,0.0,13454,25093,24727,30408,38789,0
0.0,0.0,0.0,13496,25093,24678,30438,38748,0
0.0,0.0,0.0,13371,24848,24510,30286,38585,0
0.0,0.0,0.0,13315,24824,24414,30226,38585,0
0.0,0.0,0.0,13246,24751,24247,30165,38382,0
0.0,0.0,0.0,13232,24630,24247,30015,38341,0
0.0,0.0,0.0,13371,24654,24366,30165,38544,0
0.0,0.0,0.0,13454,24654,24510,30347,38503,0
0.0,0.0,0.0,13510,24630,24486,30408,38585,0
0.0,0.0,0.0,13482,24702,24342,30469,38503,0
0.0,0.0,0.0,13468,24486,24223,30469,38301,0
0.0,0.0,0.0,13468,24366,24176,30408,38260,0
0.0,0.0,0.0,13454,24318,24390,30469,38382,0
0.0,0.0,0.0,13510,24534,24366,30408,38341,0
0.0,0.0,0.0,13650,24702,24414,30377,38341,0
0.0,0.0,0.0,13693,24702,24414,30469,38382,0
0.0,0.0,0.0,13707,24654,24462,30408,38341,0
0.0,0.0,0.0,13693,24630,24414,30377,38260,0
0.0,0.0,0.0,13650,24702,24366,30286,38180,0
0.0,0.0,0.0,13622,24727,24462,30347,38341,0
0.0,0.0,0.0,13538,24799,24678,30469,38830,0
0.0,0.0,0.0,13524,24799,24946,30530,38789,0
0.0,0.0,0.0,13482,24799,24921,30317,38953,0
0.0,0.0,0.0,13468,24654,24897,29984,38830,0
0.0,0.0,0.0,13496,24630,24654,29746,38707,0
0.0,0.0,0.0,13510,24534,24534,29686,38707,0
0.0,0.0,0.0,13510,24462,24534,29538,38544,0
0.0,0.0,0.0,13524,24438,24486,29509,38503,0
0.0,0.0,0.0,13524,24438,24462,29509,38503,0
0.0,0.0,0.0,13721,24438,24510,29627,38463,0
0.0,0.0,0.0,13906,24510,24510,29925,38260,0
0.0,0.0,0.0,14108,24582,24534,30226,38260,0
0.0,0.0,0.0,14137,24606,24414,30377,38220,0
0.0,0.0,0.0,14195,24558,24462,30408,38220,0
0.0,0.0,0.0,14238,24606,24366,30530,38140,0
0.0,0.0,0.0,14268,24558,24271,30591,38180,0
0.0,0.0,0.0,14268,24510,24247,30653,38180,0
0.0,0.0,0.0,14253,24510,24176,30622,38100,0
0.0,0.0,0.0,14238,24438,24152,30499,38180,0
0.0,0.0,0.0,14166,24414,24152,30347,38059,0
0.0,0.0,0.0,14151,24438,24152,30226,38059,0
0.0,0.0,0.0,14079,24414,24105,29925,38180,0
0.0,0.0,0.0,14021,24366,24176,29746,38100,0
0.0,0.0,0.0,13978,24342,24152,29657,38059,0
0.0,0.0,0.0,13921,24342,24129,29538,38019,0
0.0,0.0,0.0,13906,24318,24129,29538,37940,0
0.0,0.0,0.0,13906,24271,24129,29509,37940,0
0.0,0.0,0.0,13906,24271,24129,29421,37940,0
0.0,0.0,0.0,13906,24294,24081,29391,37940,0
0.0,0.0,0.0,13964,24318,24129,29391,37940,0
0.0,0.0,0.0,14021,24438,24199,29538,37860,0
0.0,0.0,0.0,14079,24438,24223,29509,37860,0
0.0,0.0,0.0,14137,24510,24271,29479,37900,0
0.0,0.0,0.0,14137,24462,24223,29391,37860,0
0.0,0.0,0.0,13992,24390,24223,29304,37860,0
0.0,0.0,0.0,13906,24271,24129,29216,37860,0
0.0,0.0,0.0,13792,24247,24034,29100,37940,0
0.0,0.0,0.0,13806,24223,23847,29071,37940,0
0.0,0.0,0.0,13935,24223,23940,29187,37701,0
0.0,0.0,0.0,14079,24271,24034,29333,37701,0
0.0,0.0,0.0,14166,24247,24034,29538,37622,0
0.0,0.0,0.0,14209,24318,23940,29568,37465,0
0.0,0.0,0.0,14166,24223,23987,29568,37543,0
0.0,0.0,0.0,14108,24223,23917,29450,37426,0
0.0,0.0,0.0,14050,24129,23847,29509,37543,0
0.0,0.0,0.0,13964,24152,23847,29333,37386,0
0.0,0.0,0.0,13849,24081,23847,29274,37543,0
0.0,0.0,0.0,13792,24081,23894,29042,37465,0
0.0,0.0,0.0,13707,24105,23777,29013,37465,0
0.0,0.0,0.0,13707,24011,23707,28927,37543,0
0.0,0.0,0.0,13693,24058,23569,28754,37583,0
0.0,0.0,0.0,13665,23964,23522,28726,37543,0
0.0,0.0,0.0,13721,24034,23499,28640,37622,0
0.0,0.0,0.0,13679,23987,23431,28612,37701,0
0.0,0.0,0.0,13679,23987,23477,28555,37543,0
0.0,0.0,0.0,13806,24034,23499,28840,37426,0
0.0,0.0,0.0,13806,24034,23477,28984,37465,0
0.0,0.0,0.0,13849,23987,23569,28984,37465,0
0.0,0.0,0.0,13849,24034,23592,29100,37426,0
0.0,0.0,0.0,13849,24081,23684,29274,37347,0
0.0,0.0,0.0,13821,24105,23707,29421,37701,0
0.0,0.0,0.0,13821,24105,23661,29509,37741,0
0.0,0.0,0.0,13863,24081,23684,29509,37386,0
0.0,0.0,0.0,13935,24176,23661,29479,37308,0
0.0,0.0,0.0,14021,24176,23592,29333,37191,0
0.0,0.0,0.0,14079,24129,23592,29158,37269,0
0.0,0.0,0.0,14079,24129,23522,29100,37114,0
0.0,0.0,0.0,14050,24058,23569,29187,36998,0
0.0,0.0,0.0,14021,24034,23569,29274,37075,0
0.0,0.0,0.0,14050,24081,23569,29216,37114,0
0.0,0.0,0.0,14079,24129,23661,29216,37230,0
0.0,0.0,0.0,14021,24129,23546,29158,37036,0
0.0,0.0,0.0,13949,24034,23569,29216,37075,0
0.0,0.0,0.0,13921,24176,23615,29421,37075,0
0.0,0.0,0.0,13935,24176,23615,29421,36959,0
0.0,0.0,0.0,13992,24152,23615,29216,37114,0
0.0,0.0,0.0,14021,24152,23569,29013,37230,0
0.0,0.0,0.0,14036,24294,23522,28840,37386,0
0.0,0.0,0.0,14195,24318,23592,28898,37230,0
0.0,0.0,0.0,14238,24342,23754,29391,37230,0
0.0,0.0,0.0,14195,24366,23754,29627,37269,0
0.0,0.0,0.0,14166,24294,23777,29716,37152,0
0.0,0.0,0.0,14166,24318,23754,29597,37036,0
0.0,0.0,0.0,14166,24271,23754,29568,36920,0
0.0,0.0,0.0,14195,24414,23800,29627,36998,0
0.0,0.0,0.0,14341,24414,23894,29568,37114,0
0.0,0.0,0.0,14547,24486,23800,29158,36920,0
0.0,0.0,0.0,14518,24438,23592,28754,37347,0
0.0,0.0,0.0,14488,24414,23569,28583,37781,0
0.0,0.0,0.0,14429,24342,23569,28414,37860,0
0.0,0.0,0.0,14429,24271,23477,28442,37741,0
0.0,0.0,0.0,14458,24271,23477,28583,37543,0
0.0,0.0,0.0,14458,24223,23477,28697,37308,0
0.0,0.0,0.0,14429,24176,23477,28697,37347,0
0.0,0.0,0.0,14326,24176,23569,28754,37386,0
0.0,0.0,0.0,14341,24129,23569,28783,37543,0
0.0,0.0,0.0,14311,24223,23569,28697,37230,0
0.0,0.0,0.0,14311,24223,23522,28697,37465,0
0.0,0.0,0.0,14253,24223,23431,28498,37741,0
0.0,0.0,0.0,14253,24176,23454,28385,38019,0
0.0,0.0,0.0,14253,24129,23431,28301,38180,0
0.0,0.0,0.0,14253,24081,23339,28217,38180,0
0.0,0.0,0.0,14253,24034,23294,28133,38180,0
0.0,0.0,0.0,14326,24058,23294,28189,38019,0
0.0,0.0,0.0,14636,24129,23339,28414,37347,0
0.0,0.0,0.0,14726,24129,23431,28357,37426,0
0.0,0.0,0.0,14666,24081,23431,28414,37230,0
0.0,0.0,0.0,14636,24129,23339,28301,37152,0
0.0,0.0,0.0,14607,24081,23339,28301,36998,0
0.0,0.0,0.0,14577,24105,23316,28301,36959,0
0.0,0.0,0.0,14577,24129,23316,28301,36920,0
0.0,0.0,0.0,14577,24105,23316,28301,36805,0
0.0,0.0,0.0,14518,24129,23248,28077,36920,0
0.0,0.0,0.0,14473,24034,23248,28077,36959,0
0.0,0.0,0.0,14473,23987,23157,28105,36843,0
0.0,0.0,0.0,14429,23987,23112,28022,36614,0
0.0,0.0,0.0,14429,23940,23157,28022,36576,0
0.0,0.0,0.0,14429,23964,23157,27966,36462,0
0.0,0.0,0.0,14444,23940,23112,27966,36348,0
0.0,0.0,0.0,14429,23940,23157,27939,36386,0
0.0,0.0,0.0,14444,23917,23112,27966,36348,0
0.0,0.0,0.0,14444,23940,23112,27939,36310,0
0.0,0.0,0.0,14488,23917,23112,27911,36310,0
0.0,0.0,0.0,14473,23894,23112,27911,36538,0
0.0,0.0,0.0,14458,23894,23135,28105,36386,0
0.0,0.0,0.0,14503,23894,23135,28077,36462,0
0.0,0.0,0.0,14488,23870,23203,28049,36386,0
0.0,0.0,0.0,14458,23940,23135,28049,36272,0
0.0,0.0,0.0,14488,23917,23157,28077,36235,0
0.0,0.0,0.0,14444,23894,23157,28022,36235,0
0.0,0.0,0.0,14488,23894,23157,28022,36160,0
0.0,0.0,0.0,14488,23870,23135,28049,36160,0
0.0,0.0,0.0,14518,23847,23067,28022,36085,0
0.0,0.0,0.0,14577,23894,23112,27966,36047,0
0.0,0.0,0.0,14636,23940,23112,27939,36047,0
0.0,0.0,0.0,14681,23917,23157,27966,36085,0
0.0,0.0,0.0,14666,23964,23203,28077,36197,0
0.0,0.0,0.0,14666,23940,23271,28133,36614,0
0.0,0.0,0.0,14607,23940,23385,28414,36920,0
0.0,0.0,0.0,14518,23987,23431,28527,36998,0
0.0,0.0,0.0,14458,23987,23431,28470,37075,0
0.0,0.0,0.0,14518,23964,23431,28414,36690,0
0.0,0.0,0.0,14547,23964,23431,28301,36690,0
0.0,0.0,0.0,14577,23987,23385,28301,36690,0
0.0,0.0,0.0,14547,23894,23431,28301,36538,0
0.0,0.0,0.0,14666,23917,23339,28301,36690,0
0.0,0.0,0.0,14741,23847,23180,28133,36690,0
0.0,0.0,0.0,14801,23847,23294,28245,36614,0
0.0,0.0,0.0,14922,23870,23294,28301,36538,0
0.0,0.0,0.0,14997,23917,23225,28357,36348,0
0.0,0.0,0.0,15058,23894,23294,28414,36386,0
0.0,0.0,0.0,15089,23894,23225,28470,36310,0
0.0,0.0,0.0,15150,23894,23271,28527,36386,0
0.0,0.0,0.0,15104,23870,23248,28583,36310,0
0.0,0.0,0.0,15104,23870,23248,28640,36310,0
0.0,0.0,0.0,15074,23894,23157,28527,36272,0
0.0,0.0,0.0,14997,23847,23180,28640,36462,0
0.0,0.0,0.0,14967,23847,23157,28583,36235,0
0.0,0.0,0.0,14937,23870,23112,28527,36272,0
0.0,0.0,0.0,14922,23870,23112,28498,36235,0
0.0,0.0,0.0,14876,23894,23112,28527,36160,0
0.0,0.0,0.0,14846,23940,23112,28470,36085,0
0.0,0.0,0.0,14786,23964,23203,28414,36160,0
0.0,0.0,0.0,14771,23894,23157,28385,36122,0
0.0,0.0,0.0,14726,23894,23112,28273,36160,0
0.0,0.0,0.0,14726,23894,23112,28161,36235,0
0.0,0.0,0.0,14726,23824,23067,28022,36010,0
0.0,0.0,0.0,14681,23870,23090,27966,36010,0
0.0,0.0,0.0,14696,23847,23067,27939,35787,0
0.0,0.0,0.0,14696,23847,23067,28022,35861,0
0.0,0.0,0.0,14726,23800,23112,28022,35898,0
0.0,0.0,0.0,14681,23800,23044,27800,36424,0
0.0,0.0,0.0,14696,23707,22932,27800,36614,0
0.0,0.0,0.0,14666,23754,22910,27718,36348,0
0.0,0.0,0.0,14666,23661,22932,27691,36310,0
0.0,0.0,0.0,14666,23661,22932,27636,36424,0
0.0,0.0,0.0,14666,23661,22887,27691,36424,0
0.0,0.0,0.0,14666,23707,22932,27636,36160,0
0.0,0.0,0.0,14741,23707,22977,27911,36010,0
0.0,0.0,0.0,14816,23754,23044,27994,35861,0
0.0,0.0,0.0,14846,23730,23090,28077,35861,0
0.0,0.0,0.0,14891,23754,23022,28105,35935,0
0.0,0.0,0.0,14907,23707,23044,27939,36010,0
0.0,0.0,0.0,14907,23707,22977,27800,35861,0
0.0,0.0,0.0,14861,23707,22932,27691,35898,0
0.0,0.0,0.0,14907,23661,22955,27745,35898,0
0.0,0.0,0.0,14907,23661,22955,27800,35861,0
0.0,0.0,0.0,14891,23661,22977,27800,35787,0
0.0,0.0,0.0,14876,23661,22932,27745,35749,0
0.0,0.0,0.0,14907,23615,22955,27745,35749,0
0.0,0.0,0.0,14907,23638,22932,27718,35712,0
0.0,0.0,0.0,14861,23707,22932,27773,35712,0
0.0,0.0,0.0,14846,23592,22910,27691,35749,0
0.0,0.0,0.0,14846,23615,22932,27745,35749,0
0.0,0.0,0.0,14846,23661,22887,27691,35712,0
0.0,0.0,0.0,14846,23638,22932,27773,35639,0
0.0,0.0,0.0,14846,23615,22932,27691,35565,0
0.0,0.0,0.0,14846,23661,22955,27800,35676,0
0.0,0.0,0.0,14846,23638,22865,27718,35602,0
0.0,0.0,0.0,14861,23661,22932,27691,35712,0
0.0,0.0,0.0,14876,23638,22932,27691,35676,0
0.0,0.0,0.0,14846,23661,22887,27691,35565,0
0.0,0.0,0.0,14861,23615,22932,27691,35602,0
0.0,0.0,0.0,14846,23615,22910,27636,35712,0
0.0,0.0,0.0,14846,23615,22865,27691,35565,0
0.0,0.0,0.0,14801,23615,22932,27663,35602,0
0.0,0.0,0.0,14801,23661,22887,27691,35712,0
0.0,0.0,0.0,14801,23615,22932,27691,35639,0
0.0,0.0,0.0,14801,23615,22843,27663,35455,0
0.0,0.0,0.0,14816,23615,22887,27636,35528,0
0.0,0.0,0.0,14861,23615,22887,27691,35676,0
0.0,0.0,0.0,14907,23661,22865,27691,35676,0
0.0,0.0,0.0,14876,23661,22843,27636,36010,0
0.0,0.0,0.0,14846,23615,22798,27636,35935,0
0.0,0.0,0.0,14861,23615,22754,27581,35749,0
0.0,0.0,0.0,15165,23569,22798,27691,35749,0
0.0,0.0,0.0,15150,23615,22798,27718,35639,0
0.0,0.0,0.0,15089,23569,22843,27691,35565,0
0.0,0.0,0.0,15104,23569,22865,27691,35492,0
0.0,0.0,0.0,15089,23615,22887,27636,35455,0
0.0,0.0,0.0,15089,23592,22843,27636,35492,0
0.0,0.0,0.0,15104,23569,22820,27581,35528,0
0.0,0.0,0.0,15104,23615,22843,27581,35602,0
0.0,0.0,0.0,15089,23569,22843,27663,35565,0
0.0,0.0,0.0,15089,23592,22843,27609,35455,0
0.0,0.0,0.0,15119,23522,22843,27609,35492,0
0.0,0.0,0.0,15089,23569,22865,27581,35492,0
0.0,0.0,0.0,15074,23522,22798,27636,35565,0
0.0,0.0,0.0,15104,23569,22798,27581,35418,0
0.0,0.0,0.0,15104,23569,22843,27499,35455,0
0.0,0.0,0.0,15089,23569,22798,27636,35565,0
0.0,0.0,0.0,15089,23592,22798,27581,35492,0
0.0,0.0,0.0,15058,23569,22843,27581,35418,0
0.0,0.0,0.0,15089,23522,22843,27636,35565,0
0.0,0.0,0.0,15089,23569,22843,27581,35492,0
0.0,0.0,0.0,15089,23569,22843,27581,35492,0
0.0,0.0,0.0,15058,23569,22776,27554,35418,0
0.0,0.0,0.0,15058,23569,22798,27581,35382,0
0.0,0.0,0.0,15058,23522,22798,27609,35492,0
0.0,0.0,0.0,15043,23522,22754,27581,35418,0
0.0,0.0,0.0,15043,23522,22776,27527,35418,0
0.0,0.0,0.0,15028,23569,22776,27499,35345,0
0.0,0.0,0.0,15058,23522,22754,27581,35418,0
0.0,0.0,0.0,15028,23546,22776,27581,35492,0
0.0,0.0,0.0,15058,23499,22798,27609,35418,0
0.0,0.0,0.0,15028,23569,22754,27527,35418,0
0.0,0.0,0.0,15028,23522,22798,27581,35345,0
0.0,0.0,0.0,15028,23569,22754,27636,35418,0
0.0,0.0,0.0,15013,23546,22754,27581,35309,0
0.0,0.0,0.0,15028,23499,22754,27581,35418,0
0.0,0.0,0.0,15028,23499,22754,27581,35345,0
0.0,0.0,0.0,15028,23522,22754,27554,35345,0
0.0,0.0,0.0,15028,23477,22754,27527,35272,0
0.0,0.0,0.0,15028,23522,22754,27527,35345,0
0.0,0.0,0.0,15028,23477,22820,27472,35382,0
0.0,0.0,0.0,15043,23477,22754,27472,35272,0
0.0,0.0,0.0,15028,23522,22731,27418,35272,0
0.0,0.0,0.0,15043,23499,22731,27499,35345,0
0.0,0.0,0.0,15028,23522,22754,27472,35272,0
0.0,0.0,0.0,15043,23499,22731,27418,35199,0
0.0,0.0,0.0,15028,23477,22709,27418,35272,0
0.0,0.0,0.0,15028,23499,22709,27418,35199,0
0.0,0.0,0.0,15028,23522,22754,27445,35272,0
0.0,0.0,0.0,15013,23499,22754,27418,35199,0
0.0,0.0,0.0,15043,23522,22709,27445,35272,0
0.0,0.0,0.0,14982,23499,22709,27472,35272,0
0.0,0.0,0.0,14982,23569,22709,27472,35272,0
0.0,0.0,0.0,15028,23477,22709,27418,35272,0
0.0,0.0,0.0,14982,23522,22709,27391,35199,0
0.0,0.0,0.0,14997,23477,22709,27472,35163,0
0.0,0.0,0.0,14967,23499,22709,27472,35272,0
0.0,0.0,0.0,15028,23522,22665,27445,35236,0
0.0,0.0,0.0,15013,23546,22754,27472,35309,0
0.0,0.0,0.0,14997,23499,22687,27391,35127,0
0.0,0.0,0.0,14982,23477,22709,27472,35272,0
0.0,0.0,0.0,14997,23499,22709,27472,35199,0
0.0,0.0,0.0,14982,23477,22754,27391,35199,0
0.0,0.0,0.0,14967,23499,22709,27418,35163,0
0.0,0.0,0.0,14982,23522,22709,27391,35272,0
0.0,0.0,0.0,14982,23499,22687,27391,35199,0
0.0,0.0,0.0,15013,23477,22709,27445,35199,0
0.0,0.0,0.0,14967,23477,22709,27391,35199,0
0.0,0.0,0.0,14967,23477,22709,27391,35199,0
0.0,0.0,0.0,14967,23477,22709,27418,35199,0
0.0,0.0,0.0,14982,23477,22665,27364,35236,0
0.0,0.0,0.0,14967,23477,22709,27472,35272,0
0.0,0.0,0.0,14952,23477,22665,27364,35199,0
0.0,0.0,0.0,14967,23477,22709,27364,35309,0
0.0,0.0,0.0,14922,23499,22643,27364,35345,0
0.0,0.0,0.0,14997,23522,22754,27472,35272,0
0.0,0.0,0.0,15058,23477,22731,27527,35199,0
0.0,0.0,0.0,15089,23546,22754,27527,35127,0
0.0,0.0,0.0,15089,23522,22709,27581,35163,0
0.0,0.0,0.0,15150,23522,22754,27581,35163,0
0.0,0.0,0.0,15165,23499,22754,27609,35127,0
0.0,0.0,0.0,15165,23499,22731,27609,35127,0
0.0,0.0,0.0,15119,23477,22754,27609,35018,0
0.0,0.0,0.0,15104,23546,22665,27581,35163,0
0.0,0.0,0.0,15104,23522,22665,27581,35163,0
0.0,0.0,0.0,15119,23477,22754,27581,35163,0
0.0,0.0,0.0,15135,23477,22665,27581,35055,0
0.0,0.0,0.0,15089,23499,22665,27527,35055,0
0.0,0.0,0.0,15089,23477,22576,27609,35163,0
0.0,0.0,0.0,15104,23499,22709,27581,35127,0
0.0,0.0,0.0,15089,23477,22643,27581,35272,0
0.0,0.0,0.0,15074,23477,22665,27527,35199,0
0.0,0.0,0.0,15089,23522,22643,27527,35199,0
0.0,0.0,0.0,15119,23499,22643,27581,35163,0
0.0,0.0,0.0,15089,23477,22643,27554,35163,0
0.0,0.0,0.0,15119,23499,22599,27527,35163,0
0.0,0.0,0.0,15089,23499,22643,27499,35091,0
0.0,0.0,0.0,15013,23477,22621,27609,35163,0
0.0,0.0,0.0,14876,23477,22731,27581,35272,0
0.0,0.0,0.0,14861,23522,22709,27554,35272,0
0.0,0.0,0.0,14907,23477,22754,27472,35236,0
0.0,0.0,0.0,14861,23431,22843,27472,35272,0
0.0,0.0,0.0,14846,23477,22798,27418,35199,0
0.0,0.0,0.0,14846,23477,22798,27364,35236,0
0.0,0.0,0.0,14816,23477,22754,27391,35272,0
0.0,0.0,0.0,14756,23499,22754,27391,35309,0
0.0,0.0,0.0,14756,23499,22754,27364,35382,0
0.0,0.0,0.0,14726,23477,22754,27364,35418,0
0.0,0.0,0.0,14696,23454,22731,27256,35418,0
0.0,0.0,0.0,14726,23454,22709,27256,35418,0
0.0,0.0,0.0,14786,23431,22709,27310,35455,0
0.0,0.0,0.0,14891,23477,22731,27472,35345,0
0.0,0.0,0.0,14982,23477,22665,27499,35272,0
0.0,0.0,0.0,15028,23454,22665,27499,35382,0
0.0,0.0,0.0,14967,23477,22621,27527,35272,0
0.0,0.0,0.0,14997,23431,22599,27472,35272,0
0.0,0.0,0.0,15028,23477,22665,27527,35199,0
0.0,0.0,0.0,15058,23522,22731,27636,35236,0
0.0,0.0,0.0,15150,23522,22754,27718,35199,0
0.0,0.0,0.0,15150,23546,22754,27745,35199,0
0.0,0.0,0.0,15165,23569,22754,27718,35127,0
0.0,0.0,0.0,15181,23569,22754,27828,35163,0
0.0,0.0,0.0,15150,23522,22754,27800,35163,0
0.0,0.0,0.0,15181,23569,22754,27800,35127,0
0.0,0.0,0.0,15211,23546,22731,27856,35055,0
0.0,0.0,0.0,15181,23431,22709,27800,34982,0
0.0,0.0,0.0,15119,23499,22665,27691,35127,0
0.0,0.0,0.0,15089,23522,22665,27581,35018,0
0.0,0.0,0.0,15028,23546,22754,27527,35055,0
0.0,0.0,0.0,14997,23522,22754,27418,35055,0
0.0,0.0,0.0,14967,23522,22709,27418,35055,0
0.0,0.0,0.0,14907,23431,22665,27256,35055,0
0.0,0.0,0.0,14907,23431,22621,27256,35055,0
0.0,0.0,0.0,14952,23431,22576,27310,35127,0
0.0,0.0,0.0,15089,23477,22532,27472,35055,0
0.0,0.0,0.0,15211,23454,22599,27636,34982,0
0.0,0.0,0.0,15181,23431,22554,27636,34982,0
0.0,0.0,0.0,15119,23431,22510,27581,34982,0
0.0,0.0,0.0,15089,23431,22532,27636,34946,0
0.0,0.0,0.0,14952,23431,22576,27581,34982,0
0.0,0.0,0.0,14846,23546,22665,27883,34982,0
0.0,0.0,0.0,14786,23615,22665,27800,35127,0
0.0,0.0,0.0,14786,23661,22709,27800,35055,0
0.0,0.0,0.0,14726,23661,22665,27745,35018,0
0.0,0.0,0.0,14741,23661,22665,27691,35055,0
0.0,0.0,0.0,14726,23592,22665,27800,34982,0
0.0,0.0,0.0,14696,23638,22665,27691,34982,0
0.0,0.0,0.0,14726,23569,22665,27691,34982,0
0.0,0.0,0.0,14726,23569,22665,27691,34946,0
0.0,0.0,0.0,14726,23522,22621,27663,34874,0
0.0,0.0,0.0,14726,23522,22621,27691,35018,0
0.0,0.0,0.0,14696,23522,22665,27663,34982,0
0.0,0.0,0.0,14786,23522,22621,27636,34874,0
0.0,0.0,0.0,14891,23569,22532,27581,35272,0
0.0,0.0,0.0,14982,23661,22576,27472,35127,0
0.0,0.0,0.0,15104,23569,22665,27554,35163,0
0.0,0.0,0.0,15074,23569,22554,27527,34946,0
0.0,0.0,0.0,15058,23569,22532,27581,34910,0
0.0,0.0,0.0,15119,23522,22510,27609,34910,0
0.0,0.0,0.0,15150,23499,22554,27527,34803,0
0.0,0.0,0.0,15119,23522,22488,27527,34803,0
0.0,0.0,0.0,15104,23477,22532,27554,34874,0
0.0,0.0,0.0,15058,23522,22621,27554,34839,0
0.0,0.0,0.0,15028,23477,22488,27418,34767,0
0.0,0.0,0.0,14907,23477,22423,27310,35127,0
0.0,0.0,0.0,14846,23385,22401,27202,34982,0
0.0,0.0,0.0,14876,23431,22423,27202,34982,0
0.0,0.0,0.0,14876,23431,22401,27175,34874,0
0.0,0.0,0.0,14846,23431,22401,27148,34874,0
0.0,0.0,0.0,14876,23385,22401,27256,34910,0
0.0,0.0,0.0,14907,23385,22444,27229,34839,0
0.0,0.0,0.0,14967,23431,22423,27418,34696,0
0.0,0.0,0.0,15089,23499,22576,27527,34731,0
0.0,0.0,0.0,15150,23522,22643,27581,34839,0
0.0,0.0,0.0,15288,23546,22665,27636,34731,0
0.0,0.0,0.0,15319,23522,22621,27636,34803,0
0.0,0.0,0.0,15242,23477,22599,27636,34696,0
0.0,0.0,0.0,15211,23431,22621,27636,34696,0
0.0,0.0,0.0,15119,23431,22576,27527,34696,0
0.0,0.0,0.0,15089,23431,22532,27581,34696,0
0.0,0.0,0.0,15028,23385,22488,27527,34624,0
0.0,0.0,0.0,15028,23431,22488,27472,34696,0
0.0,0.0,0.0,15028,23385,22466,27527,34589,0
0.0,0.0,0.0,15028,23431,22488,27499,34660,0
0.0,0.0,0.0,14997,23385,22488,27527,34624,0
0.0,0.0,0.0,15028,23385,22488,27499,34624,0
0.0,0.0,0.0,15028,23431,22488,27472,34624,0
0.0,0.0,0.0,14997,23362,22444,27499,34589,0
0.0,0.0,0.0,14967,23431,22488,27472,34696,0
0.0,0.0,0.0,14997,23339,22444,27472,34696,0
0.0,0.0,0.0,14967,23316,22423,27472,34660,0
0.0,0.0,0.0,14982,23339,22423,27499,34696,0
0.0,0.0,0.0,14997,23339,22444,27499,34660,0
0.0,0.0,0.0,14982,23316,22401,27499,34553,0
0.0,0.0,0.0,15028,23339,22444,27527,34589,0
0.0,0.0,0.0,14967,23385,22444,27472,34482,0
0.0,0.0,0.0,15013,23316,22444,27472,34589,0
0.0,0.0,0.0,14997,23339,22444,27472,34624,0
0.0,0.0,0.0,14982,23316,22444,27472,34553,0
0.0,0.0,0.0,14967,23385,22423,27445,34624,0
0.0,0.0,0.0,14982,23294,22444,27445,34624,0
0.0,0.0,0.0,14937,23385,22423,27472,34553,0
0.0,0.0,0.0,14967,23385,22401,27472,34553,0
0.0,0.0,0.0,14967,23316,22444,27472,34553,0
0.0,0.0,0.0,14952,23339,22423,27445,34518,0
0.0,0.0,0.0,14937,23362,22401,27472,34553,0
0.0,0.0,0.0,14937,23385,22423,27445,34518,0
0.0,0.0,0.0,14952,23362,22444,27472,34624,0
0.0,0.0,0.0,14922,23316,22379,27472,34553,0
0.0,0.0,0.0,14937,23339,22423,27499,34553,0
0.0,0.0,0.0,14922,23339,22423,27418,34553,0
0.0,0.0,0.0,14967,23339,22423,27472,34589,0
0.0,0.0,0.0,14937,23339,22423,27472,34553,0
0.0,0.0,0.0,14952,23339,22423,27445,34553,0
0.0,0.0,0.0,14907,23316,22379,27364,34553,0
0.0,0.0,0.0,14922,23339,22401,27391,34660,0
0.0,0.0,0.0,14891,23316,22379,27364,34767,0
0.0,0.0,0.0,14666,23294,22401,27283,34803,0
0.0,0.0,0.0,14503,23294,22401,27256,35127,0
0.0,0.0,0.0,14429,23248,22488,27202,35528,0
0.0,0.0,0.0,14429,23225,22423,27095,35492,0
0.0,0.0,0.0,14399,23225,22444,27095,35455,0
0.0,0.0,0.0,14414,23248,22444,27068,35418,0
0.0,0.0,0.0,14429,23225,22488,27041,35492,0
0.0,0.0,0.0,14429,23203,22488,27041,35565,0
0.0,0.0,0.0,14503,23248,22488,27095,35127,0
0.0,0.0,0.0,14607,23294,22532,27148,34982,0
0.0,0.0,0.0,14696,23408,22576,27256,34982,0
0.0,0.0,0.0,14816,23339,22643,27527,35199,0
0.0,0.0,0.0,14982,23522,22754,27745,35199,0
0.0,0.0,0.0,15074,23499,22754,27883,35163,0
0.0,0.0,0.0,15089,23499,22798,27966,35272,0
0.0,0.0,0.0,15119,23522,22798,27856,35163,0
0.0,0.0,0.0,15150,23477,22776,27828,35018,0
0.0,0.0,0.0,15150,23477,22709,27856,34946,0
0.0,0.0,0.0,15119,23499,22687,27800,34910,0
0.0,0.0,0.0,14982,23385,22621,27691,34839,0
0.0,0.0,0.0,14907,23431,22621,27499,34982,0
0.0,0.0,0.0,14876,23385,22621,27391,34839,0
0.0,0.0,0.0,14876,23385,22643,27310,34767,0
0.0,0.0,0.0,14907,23385,22754,27229,34839,0
0.0,0.0,0.0,14907,23339,22754,27256,34839,0
0.0,0.0,0.0,14876,23385,22820,27148,34767,0
0.0,0.0,0.0,14922,23431,22999,27148,34839,0
0.0,0.0,0.0,14846,23431,23044,27068,34839,0
0.0,0.0,0.0,14861,23431,23022,27041,34982,0
0.0,0.0,0.0,14846,23431,23022,27041,34982,0
0.0,0.0,0.0,14831,23431,23022,27041,35055,0
0.0,0.0,0.0,14801,23431,23022,26988,34982,0
0.0,0.0,0.0,14816,23385,23022,27041,34982,0
0.0,0.0,0.0,14801,23431,23044,26935,34982,0
0.0,0.0,0.0,14801,23385,22999,26935,35018,0
0.0,0.0,0.0,14801,23339,23022,26988,35018,0
0.0,0.0,0.0,14801,23385,22999,26988,34910,0
0.0,0.0,0.0,14786,23385,22955,26988,34910,0
0.0,0.0,0.0,14801,23362,22977,26988,34910,0
0.0,0.0,0.0,14786,23385,22999,26961,34874,0
0.0,0.0,0.0,14801,23385,22955,26961,34874,0
0.0,0.0,0.0,14786,23385,22932,26961,34839,0
0.0,0.0,0.0,14801,23339,22955,27041,34946,0
0.0,0.0,0.0,14816,23339,22955,26988,34874,0
0.0,0.0,0.0,14786,23385,22932,26961,34803,0
0.0,0.0,0.0,14786,23294,22932,26988,34839,0
0.0,0.0,0.0,14801,23316,22932,27041,34839,0
0.0,0.0,0.0,14801,23316,22955,26935,34839,0
0.0,0.0,0.0,14801,23294,22932,26988,34767,0
0.0,0.0,0.0,14786,23339,22932,26988,34767,0
0.0,0.0,0.0,14786,23294,22887,26961,34767,0
0.0,0.0,0.0,14786,23294,22887,26961,34731,0
0.0,0.0,0.0,14801,23294,22932,27015,34767,0
0.0,0.0,0.0,14801,23339,22910,26961,34839,0
0.0,0.0,0.0,14786,23316,22910,26935,34839,0
0.0,0.0,0.0,14786,23294,22910,26935,34767,0
0.0,0.0,0.0,14786,23294,22932,26935,34803,0
0.0,0.0,0.0,14786,23294,22865,26935,34767,0
0.0,0.0,0.0,14786,23294,22887,26908,34767,0
0.0,0.0,0.0,14786,23316,22843,26908,34767,0
0.0,0.0,0.0,14771,23294,22776,26882,34696,0
0.0,0.0,0.0,14756,23294,22754,26855,34731,0
0.0,0.0,0.0,14726,23316,22754,26882,34839,0
0.0,0.0,0.0,14741,23294,22665,26829,34767,0
0.0,0.0,0.0,14756,23294,22665,26776,34767,0
0.0,0.0,0.0,14756,23294,22621,26829,34696,0
0.0,0.0,0.0,14726,23316,22576,26829,34767,0
0.0,0.0,0.0,14741,23225,22621,26829,34696,0
0.0,0.0,0.0,14726,23316,22576,26882,34731,0
0.0,0.0,0.0,14726,23294,22576,26829,34553,0
0.0,0.0,0.0,14696,23248,22576,26749,34589,0
0.0,0.0,0.0,14726,23316,22576,26829,34696,0
0.0,0.0,0.0,14696,23203,22510,26829,34767,0
0.0,0.0,0.0,14696,23248,22488,26829,34839,0
0.0,0.0,0.0,14696,23248,22444,26776,34767,0
0.0,0.0,0.0,14681,23225,22444,26776,34731,0
0.0,0.0,0.0,14666,23248,22423,26776,34660,0
0.0,0.0,0.0,14666,23225,22444,26829,34624,0
0.0,0.0,0.0,14547,23203,22444,26829,34767,0
0.0,0.0,0.0,14429,23271,22488,26829,34982,0
0.0,0.0,0.0,14326,23294,22488,26776,35091,0
0.0,0.0,0.0,14414,23225,22444,26776,35091,0
0.0,0.0,0.0,14370,23248,22488,26723,35018,0
0.0,0.0,0.0,14385,23180,22423,26670,35055,0
0.0,0.0,0.0,14429,23203,22357,26829,34910,0
0.0,0.0,0.0,14488,23248,22357,26802,34767,0
0.0,0.0,0.0,14488,23203,22313,26855,34767,0
0.0,0.0,0.0,14488,23203,22357,26829,34731,0
0.0,0.0,0.0,14458,23248,22313,26749,34696,0
0.0,0.0,0.0,14503,23225,22357,26749,34696,0
0.0,0.0,0.0,14503,23203,22357,26776,34731,0
0.0,0.0,0.0,14503,23180,22335,26829,34731,0
0.0,0.0,0.0,14577,23203,22401,26776,34696,0
0.0,0.0,0.0,14503,23203,22335,26829,34696,0
0.0,0.0,0.0,14518,23248,22335,26776,34696,0
0.0,0.0,0.0,14547,23248,22335,26802,34696,0
0.0,0.0,0.0,14547,23225,22357,26723,34589,0
0.0,0.0,0.0,14518,23203,22313,26749,34696,0
0.0,0.0,0.0,14503,23203,22335,26776,34624,0
0.0,0.0,0.0,14547,23203,22313,26776,34624,0
0.0,0.0,0.0,14518,23225,22313,26749,34696,0
0.0,0.0,0.0,14518,23203,22313,26776,34589,0
0.0,0.0,0.0,14547,23157,22270,26829,34660,0
0.0,0.0,0.0,14547,23203,22270,26776,34696,0
0.0,0.0,0.0,14518,23203,22226,26776,34624,0
0.0,0.0,0.0,14547,23203,22270,26776,34589,0
0.0,0.0,0.0,14577,23203,22270,26749,34553,0
0.0,0.0,0.0,14636,23225,22335,26855,34624,0
0.0,0.0,0.0,14756,23316,22510,26935,34553,0
0.0,0.0,0.0,14967,23339,22488,27148,34553,0
0.0,0.0,0.0,15043,23385,22488,27175,34553,0
0.0,0.0,0.0,15043,23339,22444,27148,34482,0
0.0,0.0,0.0,15028,23339,22488,27202,34447,0
0.0,0.0,0.0,15043,23316,22444,27148,34518,0
0.0,0.0,0.0,15058,23339,22444,27283,34482,0
0.0,0.0,0.0,15150,23431,22488,27202,34482,0
0.0,0.0,0.0,15165,23431,22532,27364,34482,0
0.0,0.0,0.0,15150,23431,22576,27418,34482,0
0.0,0.0,0.0,15181,23431,22576,27527,34589,0
0.0,0.0,0.0,15165,23385,22510,27499,34624,0
0.0,0.0,0.0,15104,23385,22532,27527,34624,0
0.0,0.0,0.0,15104,23385,22488,27499,34553,0
0.0,0.0,0.0,15043,23339,22423,27499,34341,0
0.0,0.0,0.0,15028,23362,22401,27418,34589,0
0.0,0.0,0.0,15043,23339,22423,27364,34553,0
0.0,0.0,0.0,15028,23294,22401,27418,34589,0
0.0,0.0,0.0,15058,23316,22379,27418,34482,0
0.0,0.0,0.0,15089,23339,22313,27364,34412,0
0.0,0.0,0.0,15104,23362,22313,27283,34412,0
0.0,0.0,0.0,15058,23339,22401,27391,34553,0
0.0,0.0,0.0,14997,23385,22401,27499,34696,0
0.0,0.0,0.0,14846,23339,22576,27581,34839,0
0.0,0.0,0.0,14726,23339,22665,27364,35055,0
0.0,0.0,0.0,14666,23316,22709,27148,35018,0
0.0,0.0,0.0,14577,23271,22754,27041,35272,0
0.0,0.0,0.0,14621,23294,22687,26961,35055,0
0.0,0.0,0.0,14666,23294,22665,26988,35127,0
0.0,0.0,0.0,14696,23225,22576,26935,34803,0
0.0,0.0,0.0,14741,23294,22576,27095,34839,0
0.0,0.0,0.0,14726,23248,22576,27041,34767,0
0.0,0.0,0.0,14726,23225,22532,27068,34660,0
0.0,0.0,0.0,14741,23248,22510,27041,34624,0
0.0,0.0,0.0,14726,23225,22532,27041,34553,0
0.0,0.0,0.0,14666,23294,22576,27068,34518,0
0.0,0.0,0.0,14621,23294,22643,27122,34624,0
0.0,0.0,0.0,14577,23339,22754,27256,34874,0
0.0,0.0,0.0,14547,23294,22776,27310,34839,0
0.0,0.0,0.0,14503,23294,22776,27310,34767,0
0.0,0.0,0.0,14518,23271,22798,27364,34731,0
0.0,0.0,0.0,14562,23294,22798,27283,34767,0
0.0,0.0,0.0,14532,23294,22776,27256,34731,0
0.0,0.0,0.0,14562,23248,22798,27256,34731,0
0.0,0.0,0.0,14547,23248,22798,27256,34660,0
0.0,0.0,0.0,14562,23294,22754,27175,34624,0
0.0,0.0,0.0,14547,23294,22798,27202,34696,0
0.0,0.0,0.0,14547,23294,22709,27095,34589,0
0.0,0.0,0.0,14532,23248,22754,27148,34482,0
0.0,0.0,0.0,14562,23248,22754,27202,34589,0
0.0,0.0,0.0,14592,23316,22754,27256,34553,0
0.0,0.0,0.0,14651,23339,22865,27283,34553,0
0.0,0.0,0.0,14726,23339,22843,27445,34589,0
0.0,0.0,0.0,14771,23385,22798,27527,34696,0
0.0,0.0,0.0,14756,23362,22754,27472,34553,0
0.0,0.0,0.0,14786,23362,22754,27472,34553,0
0.0,0.0,0.0,14756,23431,22754,27418,34767,0
0.0,0.0,0.0,14726,23431,22665,27202,34624,0
0.0,0.0,0.0,14681,23385,22709,27068,34553,0
0.0,0.0,0.0,14666,23294,22709,27041,34624,0
0.0,0.0,0.0,14607,23294,22687,26988,34624,0
0.0,0.0,0.0,14562,23294,22687,26855,34803,0
0.0,0.0,0.0,14488,23203,22665,26882,34696,0
0.0,0.0,0.0,14518,23225,22665,26882,34696,0
0.0,0.0,0.0,14503,23203,22665,26776,34767,0
0.0,0.0,0.0,14547,23203,22665,26829,34589,0
0.0,0.0,0.0,14607,23203,22709,26935,34624,0
0.0,0.0,0.0,14711,23248,22665,27256,34624,0
0.0,0.0,0.0,14786,23316,22599,27364,34589,0
0.0,0.0,0.0,14786,23362,22532,27364,34518,0
0.0,0.0,0.0,14801,23294,22510,27364,34553,0
0.0,0.0,0.0,14786,23316,22488,27310,34553,0
0.0,0.0,0.0,14771,23248,22488,27337,34482,0
0.0,0.0,0.0,14786,23294,22466,27337,34412,0
0.0,0.0,0.0,14786,23316,22444,27364,34412,0
0.0,0.0,0.0,14786,23294,22444,27364,34447,0
0.0,0.0,0.0,14741,23271,22423,27310,34376,0
0.0,0.0,0.0,14756,23248,22444,27256,34482,0
0.0,0.0,0.0,14726,23248,22444,27256,34412,0
0.0,0.0,0.0,14726,23248,22401,27283,34341,0
0.0,0.0,0.0,14786,23294,22444,27337,34341,0
0.0,0.0,0.0,14801,23294,22401,27391,34412,0
0.0,0.0,0.0,14801,23271,22444,27418,34341,0
0.0,0.0,0.0,14786,23339,22444,27445,34482,0
0.0,0.0,0.0,14666,23225,22401,27256,34412,0
0.0,0.0,0.0,14547,23157,22401,27095,34553,0
0.0,0.0,0.0,14503,23203,22423,27041,34518,0
0.0,0.0,0.0,14488,23203,22444,26988,34553,0
0.0,0.0,0.0,14444,23248,22401,26935,34341,0
0.0,0.0,0.0,14518,23203,22401,26961,34482,0
0.0,0.0,0.0,14681,23339,22444,27148,34447,0
0.0,0.0,0.0,14756,23294,22488,27310,34412,0
0.0,0.0,0.0,14801,23339,22488,27364,34412,0
0.0,0.0,0.0,14801,23339,22554,27527,34412,0
0.0,0.0,0.0,14801,23316,22488,27636,34482,0
0.0,0.0,0.0,14771,23316,22423,27581,34412,0
0.0,0.0,0.0,14696,23203,22401,27472,34341,0
0.0,0.0,0.0,14666,23248,22335,27364,34271,0
0.0,0.0,0.0,14621,23203,22248,27256,34271,0
0.0,0.0,0.0,14607,23135,22226,27256,34341,0
0.0,0.0,0.0,14562,23225,22292,27256,34412,0
0.0,0.0,0.0,14607,23203,22270,27418,34482,0
0.0,0.0,0.0,14547,23203,22226,27202,34376,0
0.0,0.0,0.0,14503,23203,22183,27148,34306,0
0.0,0.0,0.0,14503,23135,22140,27068,34341,0
0.0,0.0,0.0,14488,23157,22161,27068,34412,0
0.0,0.0,0.0,14458,23157,22183,27015,34447,0
0.0,0.0,0.0,14429,23112,22183,26882,34553,0
0.0,0.0,0.0,14429,23112,22183,26802,34553,0
0.0,0.0,0.0,14429,23112,22118,26829,34553,0
0.0,0.0,0.0,14503,23112,22140,26988,34482,0
0.0,0.0,0.0,14518,23135,22096,26935,34341,0
0.0,0.0,0.0,14488,23067,22161,26961,34341,0
0.0,0.0,0.0,14444,23112,22140,27041,34271,0
0.0,0.0,0.0,14458,23112,22161,26935,34200,0
0.0,0.0,0.0,14429,23157,22140,26961,34130,0
0.0,0.0,0.0,14326,23067,22140,26802,34200,0
0.0,0.0,0.0,14311,23022,22096,26829,34341,0
0.0,0.0,0.0,14253,22955,22096,26723,34200,0
0.0,0.0,0.0,14282,23022,22053,26723,34235,0
0.0,0.0,0.0,14370,23022,22053,26749,34026,0
0.0,0.0,0.0,14282,23022,22053,26723,34165,0
0.0,0.0,0.0,14253,23022,22075,26723,34165,0
0.0,0.0,0.0,14253,22955,22075,26749,34165,0
0.0,0.0,0.0,14224,23022,22010,26618,34271,0
0.0,0.0,0.0,14282,22977,22053,26566,34412,0
0.0,0.0,0.0,14268,22977,22010,26618,34553,0
0.0,0.0,0.0,14253,23022,22053,26566,34589,0
0.0,0.0,0.0,14268,22977,22010,26566,34412,0
0.0,0.0,0.0,14282,22955,22053,26566,34341,0
0.0,0.0,0.0,14311,22887,22010,26566,34306,0
0.0,0.0,0.0,14268,22955,22010,26566,34235,0
0.0,0.0,0.0,14268,22977,21967,26935,35091,0
0.0,0.0,0.0,14268,22977,21946,27095,35055,0
0.0,0.0,0.0,14253,22955,22010,26802,35055,0
0.0,0.0,0.0,14195,22887,21882,27041,34731,0
0.0,0.0,0.0,14326,23022,22096,26829,34412,0
0.0,0.0,0.0,14488,23044,22226,26855,34341,0
0.0,0.0,0.0,14607,23022,22226,26882,34200,0
0.0,0.0,0.0,14666,23022,22183,26882,34165,0
0.0,0.0,0.0,14756,23044,22226,26988,34235,0
0.0,0.0,0.0,14786,23112,22183,26935,34235,0
0.0,0.0,0.0,14846,23067,22183,26961,34200,0
0.0,0.0,0.0,14786,23090,22226,26961,34200,0
0.0,0.0,0.0,14696,23157,22313,27041,34412,0
0.0,0.0,0.0,14696,23203,22379,26988,34482,0
0.0,0.0,0.0,14696,23157,22401,26961,34482,0
0.0,0.0,0.0,14681,23203,22379,26829,34412,0
0.0,0.0,0.0,14666,23157,22379,26776,34412,0
0.0,0.0,0.0,14666,23067,22401,26776,34376,0
0.0,0.0,0.0,14666,23067,22466,26882,34306,0
0.0,0.0,0.0,14666,23203,22576,27148,34696,0
0.0,0.0,0.0,14681,23157,22576,27229,34412,0
0.0,0.0,0.0,14681,23157,22599,27256,34482,0
0.0,0.0,0.0,14666,23180,22576,27256,34412,0
0.0,0.0,0.0,14666,23157,22576,27175,34376,0
0.0,0.0,0.0,14636,23203,22554,27148,34518,0
0.0,0.0,0.0,14636,23157,22576,27175,34271,0
0.0,0.0,0.0,14636,23157,22510,27202,34200,0
0.0,0.0,0.0,14636,23203,22532,27148,34165,0
0.0,0.0,0.0,14666,23135,22510,26961,34271,0
0.0,0.0,0.0,14666,23135,22401,26935,34200,0
0.0,0.0,0.0,14621,23112,22423,26776,34271,0
0.0,0.0,0.0,14621,23112,22357,26749,34165,0
0.0,0.0,0.0,14562,23067,22401,26749,34130,0
0.0,0.0,0.0,14607,23022,22379,26723,34060,0
0.0,0.0,0.0,14547,23022,22357,26776,34060,0
0.0,0.0,0.0,14607,23044,22313,26723,33991,0
0.0,0.0,0.0,14503,23022,22335,26697,33991,0
0.0,0.0,0.0,14547,23022,22357,26723,34026,0
0.0,0.0,0.0,14547,23044,22313,26723,34026,0
0.0,0.0,0.0,14518,23044,22357,26670,33991,0
0.0,0.0,0.0,14547,23022,22335,26697,33991,0
0.0,0.0,0.0,14547,23044,22357,26749,34130,0
0.0,0.0,0.0,14547,23022,22401,26723,34026,0
0.0,0.0,0.0,14547,23067,22313,26723,33991,0
0.0,0.0,0.0,14518,23022,22313,26697,33991,0
0.0,0.0,0.0,14503,22999,22335,26697,34026,0
0.0,0.0,0.0,14488,23067,22313,26670,33956,0
0.0,0.0,0.0,14503,23022,22357,26723,33991,0
0.0,0.0,0.0,14488,23022,22313,26697,33991,0
0.0,0.0,0.0,14488,22999,22313,26697,34026,0
0.0,0.0,0.0,14473,23022,22335,26723,33991,0
0.0,0.0,0.0,14488,23112,22313,26670,34060,0
0.0,0.0,0.0,14458,23067,22313,26723,33921,0
0.0,0.0,0.0,14458,23044,22270,26644,33991,0
0.0,0.0,0.0,14488,23022,22313,26697,34060,0
0.0,0.0,0.0,14444,23044,22313,26670,33956,0
0.0,0.0,0.0,14458,23022,22292,26697,33991,0
0.0,0.0,0.0,14518,23022,22401,26855,34026,0
0.0,0.0,0.0,14636,23135,22357,27041,34200,0
0.0,0.0,0.0,14607,23157,22183,26829,34341,0
0.0,0.0,0.0,14562,23112,22140,26829,34341,0
0.0,0.0,0.0,14518,23112,22096,26723,34341,0
0.0,0.0,0.0,14503,23112,22096,26723,34271,0
0.0,0.0,0.0,14503,23112,22096,26644,34165,0
0.0,0.0,0.0,14503,23067,22075,26749,34271,0
0.0,0.0,0.0,14488,23044,22096,26670,34200,0
0.0,0.0,0.0,14503,23044,22096,26723,34200,0
0.0,0.0,0.0,14488,23067,22053,26723,34130,0
0.0,0.0,0.0,14458,23022,22096,26697,34130,0
0.0,0.0,0.0,14488,23022,22096,26670,34060,0
0.0,0.0,0.0,14503,23022,22075,26723,34165,0
0.0,0.0,0.0,14458,23022,22096,26670,34130,0
0.0,0.0,0.0,14488,23044,22075,26644,34130,0
0.0,0.0,0.0,14518,23022,22096,26723,34130,0
0.0,0.0,0.0,14488,23044,22053,26670,34130,0
0.0,0.0,0.0,14473,23022,22118,26723,34095,0
0.0,0.0,0.0,14458,23112,22053,26670,34060,0
0.0,0.0,0.0,14488,22977,22096,26670,34060,0
0.0,0.0,0.0,14488,23022,22075,26670,34026,0
0.0,0.0,0.0,14488,23022,22096,26644,34060,0
0.0,0.0,0.0,14458,23022,22096,26776,34095,0
0.0,0.0,0.0,14444,22977,22053,26644,33991,0
0.0,0.0,0.0,14444,23022,22096,26618,34026,0
0.0,0.0,0.0,14488,23112,22053,26670,34095,0
0.0,0.0,0.0,14488,23044,22053,26618,34026,0
0.0,0.0,0.0,14488,23067,22053,26644,33991,0
0.0,0.0,0.0,14488,23067,22053,26592,33991,0
0.0,0.0,0.0,14488,23022,22053,26618,33956,0
0.0,0.0,0.0,14473,23044,22053,26644,34026,0
0.0,0.0,0.0,14458,23022,22053,26670,33991,0
0.0,0.0,0.0,14488,22955,22053,26697,33991,0
0.0,0.0,0.0,14488,23022,22053,26618,34026,0
0.0,0.0,0.0,14473,23022,22096,26670,34026,0
0.0,0.0,0.0,14444,22977,22096,26723,33991,0
0.0,0.0,0.0,14429,23044,22032,26670,33991,0
0.0,0.0,0.0,14458,23022,22053,26670,33956,0
0.0,0.0,0.0,14458,22955,22053,26697,34026,0
0.0,0.0,0.0,14458,23022,22053,26644,33921,0
0.0,0.0,0.0,14444,23022,22053,26670,33887,0
0.0,0.0,0.0,14444,22977,22053,26670,33956,0
0.0,0.0,0.0,14444,23022,22053,26670,33887,0
0.0,0.0,0.0,14488,23022,22053,26723,33991,0
0.0,0.0,0.0,14458,23022,22053,26697,33921,0
0.0,0.0,0.0,14429,22999,22053,26723,33921,0
0.0,0.0,0.0,14429,23022,22053,26723,33921,0
0.0,0.0,0.0,14458,23022,22053,26670,33887,0
0.0,0.0,0.0,14458,23022,22053,26723,33991,0
0.0,0.0,0.0,14488,23022,22032,26697,33991,0
0.0,0.0,0.0,14488,22977,22075,26697,33921,0
0.0,0.0,0.0,14429,22932,22053,26723,33921,0
0.0,0.0,0.0,14444,23022,22010,26670,33852,0
0.0,0.0,0.0,14444,22977,22053,26670,33852,0
0.0,0.0,0.0,14429,23022,22010,26723,33921,0
0.0,0.0,0.0,14444,23022,22053,26723,33956,0
0.0,0.0,0.0,14429,22932,22032,26618,33991,0
0.0,0.0,0.0,14444,22977,22010,26618,33921,0
0.0,0.0,0.0,14458,23022,22032,26566,33852,0
0.0,0.0,0.0,14429,22977,22053,26618,33921,0
0.0,0.0,0.0,14429,22932,22010,26618,33887,0
0.0,0.0,0.0,14444,22999,22010,26618,33852,0
0.0,0.0,0.0,14444,22932,22010,26618,33783,0
0.0,0.0,0.0,14458,22977,22010,26618,33852,0
0.0,0.0,0.0,14399,23022,22010,26618,33852,0
0.0,0.0,0.0,14429,22977,22053,26592,33852,0
0.0,0.0,0.0,14429,22932,22075,26618,33783,0
0.0,0.0,0.0,14429,22977,22010,26566,33852,0
0.0,0.0,0.0,14429,22977,22032,26618,33921,0
0.0,0.0,0.0,14444,22977,22010,26618,33852,0
0.0,0.0,0.0,14444,22955,22010,26566,33852,0
0.0,0.0,0.0,14444,22955,22010,26592,33783,0
0.0,0.0,0.0,14414,22999,22010,26566,33852,0
0.0,0.0,0.0,14399,22955,22010,26618,33852,0
0.0,0.0,0.0,14429,22977,22010,26566,33817,0
0.0,0.0,0.0,14429,23022,22010,26566,33852,0
0.0,0.0,0.0,14429,22955,22010,26592,33852,0
0.0,0.0,0.0,14429,22955,22010,26618,33783,0
0.0,0.0,0.0,14429,22955,22053,26566,33887,0
0.0,0.0,0.0,14399,22977,22053,26618,33887,0
0.0,0.0,0.0,14429,22999,22010,26618,33852,0
0.0,0.0,0.0,14429,22955,22010,26566,33783,0
0.0,0.0,0.0,14399,22977,21967,26935,33783,0
0.0,0.0,0.0,14370,22932,22010,26618,33852,0
0.0,0.0,0.0,14370,22999,21967,26908,33783,0
0.0,0.0,0.0,14370,22955,21903,26908,33783,0
0.0,0.0,0.0,14370,22977,21924,26882,33783,0
0.0,0.0,0.0,14385,22977,21946,26935,33783,0
0.0,0.0,0.0,14355,22932,21924,26882,33748,0
0.0,0.0,0.0,14399,22932,21924,26829,33748,0
0.0,0.0,0.0,14399,22932,21924,26935,33852,0
0.0,0.0,0.0,14355,22955,21946,26935,33852,0
0.0,0.0,0.0,14385,22932,21924,26882,33714,0
0.0,0.0,0.0,14385,22932,21924,26935,33748,0
0.0,0.0,0.0,14385,22932,21903,26855,33714,0
0.0,0.0,0.0,14370,22932,21903,26829,33783,0
0.0,0.0,0.0,14370,22932,21924,26829,33714,0
0.0,0.0,0.0,14385,22932,21903,26829,33714,0
0.0,0.0,0.0,14385,22887,21882,26855,33852,0
0.0,0.0,0.0,14399,22932,21924,26829,33714,0
0.0,0.0,0.0,14385,22932,21967,26855,33714,0
0.0,0.0,0.0,14385,22887,21924,26882,33714,0
0.0,0.0,0.0,14370,22887,21903,26882,33714,0
0.0,0.0,0.0,14370,22887,21924,26829,33714,0
0.0,0.0,0.0,14385,22932,21882,26829,33714,0
0.0,0.0,0.0,14385,22910,21882,26855,33852,0
0.0,0.0,0.0,14370,22932,21924,26829,33679,0
0.0,0.0,0.0,14385,22910,21924,26882,33714,0
0.0,0.0,0.0,14399,22932,21903,26882,33748,0
0.0,0.0,0.0,14370,22887,21924,26882,33714,0
0.0,0.0,0.0,14370,22932,21903,26829,33714,0
0.0,0.0,0.0,14399,22932,21882,26829,33748,0
0.0,0.0,0.0,14399,22932,21924,26855,33645,0
0.0,0.0,0.0,14370,22955,21882,26829,33714,0
0.0,0.0,0.0,14399,22887,21903,26935,33748,0
0.0,0.0,0.0,14385,22932,21967,26882,33714,0
0.0,0.0,0.0,14444,22955,21924,26829,33714,0
0.0,0.0,0.0,14385,22955,21924,26855,33714,0
0.0,0.0,0.0,14399,22932,21924,26882,33645,0
0.0,0.0,0.0,14399,22910,21903,26855,33714,0
0.0,0.0,0.0,14385,22955,21903,26855,33714,0
0.0,0.0,0.0,14399,22932,21924,26829,33679,0
0.0,0.0,0.0,14385,22932,21924,26882,33714,0
0.0,0.0,0.0,14429,22932,21903,26908,33714,0
0.0,0.0,0.0,14429,22955,21903,26829,33645,0
0.0,0.0,0.0,14399,22955,21967,26882,33714,0
0.0,0.0,0.0,14429,22932,21924,26882,33645,0
0.0,0.0,0.0,14488,22955,21903,26855,33645,0
0.0,0.0,0.0,14458,22932,21967,26882,33679,0
0.0,0.0,0.0,14488,22910,21924,26882,33645,0
0.0,0.0,0.0,14458,22932,21924,26935,33748,0
0.0,0.0,0.0,14458,22932,21882,26935,33714,0
0.0,0.0,0.0,14429,22887,21924,26855,33714,0
0.0,0.0,0.0,14444,22932,21924,26829,33714,0
0.0,0.0,0.0,14444,22932,21924,26882,33714,0
0.0,0.0,0.0,14488,22955,21903,26855,33714,0
0.0,0.0,0.0,14444,22955,21903,26829,33679,0
0.0,0.0,0.0,14488,22932,21882,26882,33714,0
0.0,0.0,0.0,14444,22932,21924,26882,33714,0
0.0,0.0,0.0,14458,22932,21924,26829,33679,0
0.0,0.0,0.0,14488,22843,21903,26882,33714,0
0.0,0.0,0.0,14488,22955,21903,26855,33645,0
0.0,0.0,0.0,14488,22932,21903,26882,33645,0
0.0,0.0,0.0,14488,22932,21903,26882,33645,0
0.0,0.0,0.0,14488,22932,21882,26829,33714,0
0.0,0.0,0.0,14488,22932,21924,26882,33714,0
0.0,0.0,0.0,14488,22932,21903,26882,33748,0
0.0,0.0,0.0,14488,22977,21882,26882,33611,0
0.0,0.0,0.0,14488,22910,21924,26935,33714,0
0.0,0.0,0.0,14488,22932,21924,26882,33679,0
0.0,0.0,0.0,14488,22955,21882,26935,33748,0
0.0,0.0,0.0,14458,22932,21839,26855,33887,0
0.0,0.0,0.0,14444,22865,21839,26776,33991,0
0.0,0.0,0.0,14458,22887,21882,26776,33783,0
0.0,0.0,0.0,14458,22932,21882,26723,33748,0
0.0,0.0,0.0,14488,22887,21882,26723,33679,0
0.0,0.0,0.0,14488,22932,21882,26723,33679,0
0.0,0.0,0.0,14488,22887,21839,26829,33714,0
0.0,0.0,0.0,14503,22932,21882,26776,33645,0
0.0,0.0,0.0,14503,22887,21839,26802,33576,0
0.0,0.0,0.0,14547,22932,21882,26749,33508,0
0.0,0.0,0.0,14532,23022,21839,26776,33645,0
0.0,0.0,0.0,14547,22932,21882,26802,33542,0
0.0,0.0,0.0,14547,22910,21882,26829,33576,0
0.0,0.0,0.0,14547,22932,21882,26829,33611,0
0.0,0.0,0.0,14547,22932,21839,26776,33645,0
0.0,0.0,0.0,14547,22932,21839,26776,33611,0
0.0,0.0,0.0,14518,22955,21796,26697,33645,0
0.0,0.0,0.0,14488,22887,21882,26723,33714,0
0.0,0.0,0.0,14444,22887,21839,26723,33783,0
0.0,0.0,0.0,14458,22887,21882,26723,33783,0
0.0,0.0,0.0,14458,22887,21882,26749,33714,0
0.0,0.0,0.0,14429,22910,21839,26723,33748,0
0.0,0.0,0.0,14444,22932,21924,26776,33748,0
0.0,0.0,0.0,14488,22977,22010,26513,33714,0
0.0,0.0,0.0,14518,22955,22010,26670,33783,0
0.0,0.0,0.0,14577,23022,22053,26749,33645,0
0.0,0.0,0.0,14607,23022,22096,26749,33783,0
