GyroX,GyroY,GyroZ,Thumb,Index,Middle,Ring,Pinky,Gesture
0.0,0.0,0.0,17880,29509,10535,11280,13150,1
0.0,0.0,0.0,17862,29421,10535,11280,13177,1
0.0,0.0,0.0,17809,29391,10546,11280,13205,1
0.0,0.0,0.0,17774,29391,10546,11268,13232,1
0.0,0.0,0.0,17809,29568,10570,11280,13232,1
0.0,0.0,0.0,17845,29716,10582,11255,13371,1
0.0,0.0,0.0,17862,29746,10570,11231,13343,1
0.0,0.0,0.0,17933,29657,10535,11231,13205,1
0.0,0.0,0.0,17933,29568,10523,11231,13177,1
0.0,0.0,0.0,17915,29509,10511,11219,13068,1
0.0,0.0,0.0,17915,29391,10488,11219,13027,1
0.0,0.0,0.0,17880,29391,10499,11255,12972,1
0.0,0.0,0.0,17933,29333,10511,11219,12959,1
0.0,0.0,0.0,17933,29274,10511,11231,12864,1
0.0,0.0,0.0,17933,29333,10511,11231,12851,1
0.0,0.0,0.0,17933,29274,10453,11219,12851,1
0.0,0.0,0.0,17915,29304,10441,11206,12824,1
0.0,0.0,0.0,17915,29216,10441,11219,12851,1
0.0,0.0,0.0,17880,29216,10394,11255,12905,1
0.0,0.0,0.0,17915,29158,10267,11157,12959,1
0.0,0.0,0.0,17933,29158,10255,11206,13095,1
0.0,0.0,0.0,17915,29158,10209,11206,13150,1
0.0,0.0,0.0,17880,29158,10209,11206,13260,1
0.0,0.0,0.0,17880,29187,10221,11206,13482,1
0.0,0.0,0.0,17862,29216,10209,11206,13510,1
0.0,0.0,0.0,17845,29158,10209,11206,13398,1
0.0,0.0,0.0,17862,29187,10209,11206,13329,1
0.0,0.0,0.0,17862,29071,10186,11219,13150,1
0.0,0.0,0.0,17845,29042,10163,11206,13013,1
0.0,0.0,0.0,17898,29042,10140,11219,13013,1
0.0,0.0,0.0,17968,28984,10174,11219,13040,1
0.0,0.0,0.0,17915,28898,10221,11206,13040,1
0.0,0.0,0.0,17862,28869,10267,11243,13013,1
0.0,0.0,0.0,17845,28697,10301,11255,12986,1
0.0,0.0,0.0,17739,28697,10359,11268,12959,1
0.0,0.0,0.0,17704,28697,10394,11304,12905,1
0.0,0.0,0.0,17634,28612,10371,11416,12959,1
0.0,0.0,0.0,17582,28527,10394,11453,12959,1
0.0,0.0,0.0,17600,28583,10441,11478,12959,1
0.0,0.0,0.0,17582,28527,10464,11503,13013,1
0.0,0.0,0.0,17565,28498,10499,11503,12972,1
0.0,0.0,0.0,17565,28527,10535,11465,12972,1
0.0,0.0,0.0,17565,28527,10546,11478,12959,1
0.0,0.0,0.0,17530,28470,10605,11453,12959,1
0.0,0.0,0.0,17513,28414,10605,11366,12959,1
0.0,0.0,0.0,17513,28414,10629,11268,12986,1
0.0,0.0,0.0,17513,28414,10629,11243,13013,1
0.0,0.0,0.0,17513,28414,10617,11231,13068,1
0.0,0.0,0.0,17530,28414,10629,11255,13122,1
0.0,0.0,0.0,17547,28301,10605,11304,13081,1
0.0,0.0,0.0,17495,28301,10629,11280,13054,1
0.0,0.0,0.0,17495,28301,10629,11255,13095,1
0.0,0.0,0.0,17513,28301,10629,11206,13122,1
0.0,0.0,0.0,17547,28301,10653,11243,13068,1
0.0,0.0,0.0,17530,28245,10629,11255,13081,1
0.0,0.0,0.0,17513,28245,10641,11280,13068,1
0.0,0.0,0.0,17495,28217,10629,11304,13122,1
0.0,0.0,0.0,17461,28189,10629,11317,13260,1
0.0,0.0,0.0,17426,28161,10676,11403,13552,1
0.0,0.0,0.0,17426,28161,10676,11403,13454,1
0.0,0.0,0.0,17374,28105,10676,11403,13538,1
0.0,0.0,0.0,17392,28133,10676,11366,13482,1
0.0,0.0,0.0,17409,28133,10676,11391,13482,1
0.0,0.0,0.0,17374,28077,10629,11366,13398,1
0.0,0.0,0.0,17426,28077,10629,11453,13315,1
0.0,0.0,0.0,17426,28105,10629,11453,13301,1
0.0,0.0,0.0,17426,28077,10629,11528,13274,1
0.0,0.0,0.0,17513,28077,10629,11603,13150,1
0.0,0.0,0.0,17495,28022,10629,11553,13122,1
0.0,0.0,0.0,17634,28077,10629,11553,13122,1
0.0,0.0,0.0,17634,28133,10629,11528,13040,1
0.0,0.0,0.0,17582,28077,10676,11503,13068,1
0.0,0.0,0.0,17565,28049,10653,11478,13068,1
0.0,0.0,0.0,17513,28105,10700,11503,13191,1
0.0,0.0,0.0,17530,28133,10676,11478,13177,1
0.0,0.0,0.0,17565,28077,10653,11478,13205,1
0.0,0.0,0.0,17600,28133,10653,11465,13218,1
0.0,0.0,0.0,17634,28022,10629,11478,13205,1
0.0,0.0,0.0,17617,28049,10617,11478,13232,1
0.0,0.0,0.0,17634,28022,10629,11465,13232,1
0.0,0.0,0.0,17582,28049,10641,11478,13205,1
0.0,0.0,0.0,17565,28049,10724,11503,13177,1
0.0,0.0,0.0,17565,28077,10724,11465,13177,1
0.0,0.0,0.0,17565,28049,10748,11428,13246,1
0.0,0.0,0.0,17530,28077,10748,11416,13177,1
0.0,0.0,0.0,17530,28049,10748,11403,13205,1
0.0,0.0,0.0,17495,28077,10748,11403,13205,1
0.0,0.0,0.0,17495,28049,10748,11379,13205,1
0.0,0.0,0.0,17495,28049,10771,11391,13232,1
0.0,0.0,0.0,17495,28049,10771,11403,13205,1
0.0,0.0,0.0,17495,28077,10771,11391,13205,1
0.0,0.0,0.0,17443,28133,10783,11379,13287,1
0.0,0.0,0.0,17478,28161,10819,11354,13468,1
0.0,0.0,0.0,17495,28161,10807,11354,13454,1
0.0,0.0,0.0,17461,28077,10795,11317,13482,1
0.0,0.0,0.0,17461,28133,10795,11317,13412,1
0.0,0.0,0.0,17495,28133,10795,11317,13426,1
0.0,0.0,0.0,17478,28133,10783,11255,13454,1
0.0,0.0,0.0,17461,28077,10759,11280,13538,1
0.0,0.0,0.0,17495,28049,10783,11280,13482,1
0.0,0.0,0.0,17461,28077,10771,11255,13468,1
0.0,0.0,0.0,17461,28049,10748,11268,13454,1
0.0,0.0,0.0,17461,28049,10771,11280,13454,1
0.0,0.0,0.0,17461,28022,10771,11268,13412,1
0.0,0.0,0.0,17461,28049,10759,11268,13454,1
0.0,0.0,0.0,17461,28022,10771,11304,13426,1
0.0,0.0,0.0,17426,28022,10795,11280,13454,1
0.0,0.0,0.0,17461,28022,10771,11304,13398,1
0.0,0.0,0.0,17443,28022,10771,11268,13371,1
0.0,0.0,0.0,17426,28022,10748,11280,13371,1
0.0,0.0,0.0,17443,28049,10771,11280,13343,1
0.0,0.0,0.0,17461,27966,10771,11304,13343,1
0.0,0.0,0.0,17461,27966,10748,11304,13315,1
0.0,0.0,0.0,17461,27966,10724,11317,13315,1
0.0,0.0,0.0,17495,27939,10724,11329,13287,1
0.0,0.0,0.0,17443,27939,10748,11329,13301,1
0.0,0.0,0.0,17443,27911,10724,11268,13287,1
0.0,0.0,0.0,17426,27966,10748,11255,13315,1
0.0,0.0,0.0,17426,27966,10724,11255,13343,1
0.0,0.0,0.0,17409,27966,10748,11255,13343,1
0.0,0.0,0.0,17426,28022,10712,11304,13301,1
0.0,0.0,0.0,17426,27911,10676,11354,13287,1
0.0,0.0,0.0,17495,27883,10664,11354,13260,1
0.0,0.0,0.0,17513,27911,10664,11379,13260,1
0.0,0.0,0.0,17495,27856,10676,11403,13232,1
0.0,0.0,0.0,17530,27911,10641,11428,13191,1
0.0,0.0,0.0,17513,27856,10676,11403,13205,1
0.0,0.0,0.0,17547,27883,10676,11403,13218,1
0.0,0.0,0.0,17547,27828,10676,11403,13205,1
0.0,0.0,0.0,17547,27856,10676,11403,13177,1
0.0,0.0,0.0,17565,27745,10676,11403,13205,1
0.0,0.0,0.0,17513,27773,10688,11403,13177,1
0.0,0.0,0.0,17495,27800,10688,11403,13232,1
0.0,0.0,0.0,17513,27800,10676,11403,13177,1
0.0,0.0,0.0,17495,27800,10700,11403,13177,1
0.0,0.0,0.0,17513,27800,10688,11403,13177,1
0.0,0.0,0.0,17513,27800,10688,11403,13150,1
0.0,0.0,0.0,17513,27828,10748,11403,13150,1
0.0,0.0,0.0,17513,27800,10748,11354,13177,1
0.0,0.0,0.0,17565,27800,10748,11329,13177,1
0.0,0.0,0.0,17634,27828,10783,11317,13163,1
0.0,0.0,0.0,17757,27828,10771,11329,13150,1
0.0,0.0,0.0,17809,27883,10771,11329,13136,1
0.0,0.0,0.0,17774,27828,10771,11304,13122,1
0.0,0.0,0.0,17739,27828,10748,11304,13109,1
0.0,0.0,0.0,17722,27828,10724,11317,13040,1
0.0,0.0,0.0,17722,27745,10676,11317,12972,1
0.0,0.0,0.0,17687,27691,10688,11317,12959,1
0.0,0.0,0.0,17652,27745,10700,11317,12959,1
0.0,0.0,0.0,17634,27663,10676,11329,12932,1
0.0,0.0,0.0,17652,27691,10676,11329,12959,1
0.0,0.0,0.0,17600,27636,10676,11329,12918,1
0.0,0.0,0.0,17582,27581,10653,11329,12959,1
0.0,0.0,0.0,17547,27609,10676,11354,12986,1
0.0,0.0,0.0,17530,27499,10653,11354,12959,1
0.0,0.0,0.0,17513,27581,10676,11379,12932,1
0.0,0.0,0.0,17495,27581,10641,11354,12932,1
0.0,0.0,0.0,17495,27581,10676,11354,12891,1
0.0,0.0,0.0,17426,27472,10641,11354,12905,1
0.0,0.0,0.0,17443,27527,10641,11354,12905,1
0.0,0.0,0.0,17443,27581,10629,11354,12905,1
0.0,0.0,0.0,17426,27527,10629,11354,12905,1
0.0,0.0,0.0,17426,27554,10629,11354,12905,1
0.0,0.0,0.0,17374,27472,10629,11354,12918,1
0.0,0.0,0.0,17374,27581,10629,11379,12918,1
0.0,0.0,0.0,17392,27472,10629,11354,12918,1
0.0,0.0,0.0,17374,27499,10629,11354,12905,1
0.0,0.0,0.0,17374,27472,10641,11354,12918,1
0.0,0.0,0.0,17340,27472,10629,11354,12959,1
0.0,0.0,0.0,17374,27472,10629,11354,12918,1
0.0,0.0,0.0,17323,27499,10629,11354,12945,1
0.0,0.0,0.0,17357,27472,10629,11354,12959,1
0.0,0.0,0.0,17357,27499,10629,11354,12959,1
0.0,0.0,0.0,17357,27418,10629,11354,12959,1
0.0,0.0,0.0,17323,27418,10629,11354,12972,1
0.0,0.0,0.0,17289,27472,10629,11354,12932,1
0.0,0.0,0.0,17323,27472,10629,11354,12959,1
0.0,0.0,0.0,17289,27472,10629,11329,12959,1
0.0,0.0,0.0,17289,27364,10641,11354,12972,1
0.0,0.0,0.0,17289,27472,10629,11354,13013,1
0.0,0.0,0.0,17306,27418,10617,11366,12986,1
0.0,0.0,0.0,17289,27418,10629,11341,12959,1
0.0,0.0,0.0,17289,27472,10629,11354,12972,1
0.0,0.0,0.0,17289,27472,10629,11329,12986,1
0.0,0.0,0.0,17289,27418,10629,11341,12972,1
0.0,0.0,0.0,17323,27418,10629,11354,12986,1
0.0,0.0,0.0,17237,27418,10629,11354,13013,1
0.0,0.0,0.0,17254,27364,10629,11354,13027,1
0.0,0.0,0.0,17254,27391,10629,11329,13013,1
0.0,0.0,0.0,17289,27445,10629,11354,13013,1
0.0,0.0,0.0,17254,27472,10641,11329,13040,1
0.0,0.0,0.0,17254,27472,10676,11304,13150,1
0.0,0.0,0.0,17306,27581,10700,11255,13191,1
0.0,0.0,0.0,17289,27499,10676,11280,13246,1
0.0,0.0,0.0,17289,27527,10700,11280,13218,1
0.0,0.0,0.0,17289,27527,10700,11280,13260,1
0.0,0.0,0.0,17289,27527,10700,11280,13246,1
0.0,0.0,0.0,17289,27581,10700,11280,13246,1
0.0,0.0,0.0,17306,27527,10700,11268,13260,1
0.0,0.0,0.0,17289,27554,10676,11255,13287,1
0.0,0.0,0.0,17306,27527,10676,11255,13454,1
0.0,0.0,0.0,17289,27499,10688,11280,13454,1
0.0,0.0,0.0,17289,27527,10676,11268,13580,1
0.0,0.0,0.0,17289,27581,10676,11280,13693,1
0.0,0.0,0.0,17289,27581,10676,11304,13921,1
0.0,0.0,0.0,17323,27527,10676,11304,14108,1
0.0,0.0,0.0,17289,27581,10676,11280,14122,1
0.0,0.0,0.0,17289,27527,10676,11304,14108,1
0.0,0.0,0.0,17289,27527,10688,11280,14151,1
0.0,0.0,0.0,17289,27554,10676,11304,14224,1
0.0,0.0,0.0,17289,27581,10676,11292,14311,1
0.0,0.0,0.0,17254,27527,10653,11304,14238,1
0.0,0.0,0.0,17237,27472,10641,11304,14079,1
0.0,0.0,0.0,17237,27581,10629,11280,13978,1
0.0,0.0,0.0,17220,27527,10653,11292,13992,1
0.0,0.0,0.0,17169,27445,10629,11280,13964,1
0.0,0.0,0.0,17186,27499,10641,11304,13892,1
0.0,0.0,0.0,17169,27445,10629,11304,13878,1
0.0,0.0,0.0,17118,27472,10629,11280,13849,1
0.0,0.0,0.0,17118,27472,10605,11304,13806,1
0.0,0.0,0.0,17152,27418,10605,11280,13792,1
0.0,0.0,0.0,17152,27418,10594,11292,13735,1
0.0,0.0,0.0,17101,27418,10582,11304,13735,1
0.0,0.0,0.0,17220,27283,10570,11280,13749,1
0.0,0.0,0.0,17169,27445,10546,11280,13764,1
0.0,0.0,0.0,17152,27364,10535,11280,13764,1
0.0,0.0,0.0,17152,27364,10535,11292,13735,1
0.0,0.0,0.0,17152,27364,10535,11304,13735,1
0.0,0.0,0.0,17152,27310,10499,11292,13749,1
0.0,0.0,0.0,17152,27283,10499,11304,13735,1
0.0,0.0,0.0,17169,27256,10488,11292,13735,1
0.0,0.0,0.0,17169,27283,10535,11280,13749,1
0.0,0.0,0.0,17152,27283,10535,11268,13749,1
0.0,0.0,0.0,17152,27256,10535,11280,13778,1
0.0,0.0,0.0,17186,27256,10546,11280,14021,1
0.0,0.0,0.0,17152,27310,10535,11268,14050,1
0.0,0.0,0.0,17152,27310,10546,11280,14137,1
0.0,0.0,0.0,17152,27202,10546,11268,14166,1
0.0,0.0,0.0,17152,27256,10558,11280,14108,1
0.0,0.0,0.0,17152,27202,10535,11268,14050,1
0.0,0.0,0.0,17152,27256,10535,11255,13906,1
0.0,0.0,0.0,17118,27202,10535,11268,13806,1
0.0,0.0,0.0,17118,27202,10546,11255,13792,1
0.0,0.0,0.0,17135,27175,10535,11268,13792,1
0.0,0.0,0.0,17101,27148,10546,11255,13749,1
0.0,0.0,0.0,17152,27175,10535,11255,13707,1
0.0,0.0,0.0,17118,27148,10546,11255,13735,1
0.0,0.0,0.0,17135,27148,10546,11255,13749,1
0.0,0.0,0.0,17101,27148,10546,11255,13792,1
0.0,0.0,0.0,17101,27175,10535,11255,13764,1
0.0,0.0,0.0,17118,27148,10546,11255,13735,1
0.0,0.0,0.0,17101,27148,10546,11255,13792,1
0.0,0.0,0.0,17084,27148,10546,11255,13735,1
0.0,0.0,0.0,17152,27148,10546,11268,13707,1
0.0,0.0,0.0,17101,27148,10546,11268,13679,1
0.0,0.0,0.0,17101,27148,10535,11280,13707,1
0.0,0.0,0.0,17101,27148,10535,11317,13636,1
0.0,0.0,0.0,17101,27148,10535,11354,13650,1
0.0,0.0,0.0,17084,27095,10511,11354,13594,1
0.0,0.0,0.0,17101,27122,10511,11354,13608,1
0.0,0.0,0.0,17084,27095,10546,11329,13594,1
0.0,0.0,0.0,17084,27122,10535,11329,13622,1
0.0,0.0,0.0,17084,27095,10546,11354,13580,1
0.0,0.0,0.0,17084,27095,10582,11366,13594,1
0.0,0.0,0.0,17084,27122,10605,11354,13538,1
0.0,0.0,0.0,17084,27148,10629,11354,13510,1
0.0,0.0,0.0,17084,27068,10629,11354,13510,1
0.0,0.0,0.0,17101,27095,10629,11329,13510,1
0.0,0.0,0.0,17084,27095,10641,11354,13482,1
0.0,0.0,0.0,17084,27095,10653,11354,13482,1
0.0,0.0,0.0,17135,27068,10653,11354,13482,1
0.0,0.0,0.0,17118,27095,10641,11329,13454,1
0.0,0.0,0.0,17101,27095,10664,11354,13468,1
0.0,0.0,0.0,17084,27148,10664,11354,13468,1
0.0,0.0,0.0,17101,27095,10676,11329,13510,1
0.0,0.0,0.0,17084,27122,10724,11354,13482,1
0.0,0.0,0.0,17101,27122,10748,11329,13510,1
0.0,0.0,0.0,17084,27068,10771,11354,13468,1
0.0,0.0,0.0,17084,27148,10771,11366,13468,1
0.0,0.0,0.0,17084,27122,10771,11354,13510,1
0.0,0.0,0.0,17050,27095,10783,11354,13482,1
0.0,0.0,0.0,17084,27095,10771,11354,13426,1
0.0,0.0,0.0,17084,27095,10771,11329,13482,1
0.0,0.0,0.0,17084,27095,10748,11366,13510,1
0.0,0.0,0.0,17050,27068,10748,11354,13566,1
0.0,0.0,0.0,17084,27095,10712,11354,13482,1
0.0,0.0,0.0,17084,27041,10688,11354,13482,1
0.0,0.0,0.0,17118,27015,10676,11329,13454,1
0.0,0.0,0.0,17118,27041,10641,11354,13454,1
0.0,0.0,0.0,17152,27041,10629,11354,13454,1
0.0,0.0,0.0,17152,27015,10605,11329,13454,1
0.0,0.0,0.0,17152,27068,10629,11354,13454,1
0.0,0.0,0.0,17152,27068,10582,11329,13454,1
0.0,0.0,0.0,17169,27041,10582,11329,13440,1
0.0,0.0,0.0,17220,27068,10582,11354,13482,1
0.0,0.0,0.0,17169,27041,10558,11329,13440,1
0.0,0.0,0.0,17220,27041,10570,11304,13440,1
0.0,0.0,0.0,17203,27041,10558,11317,13468,1
0.0,0.0,0.0,17254,27041,10546,11329,13468,1
0.0,0.0,0.0,17220,27041,10582,11354,13454,1
0.0,0.0,0.0,17220,27041,10558,11329,13454,1
0.0,0.0,0.0,17220,27015,10582,11354,13454,1
0.0,0.0,0.0,17237,27041,10546,11317,13440,1
0.0,0.0,0.0,17220,26961,10558,11354,13468,1
0.0,0.0,0.0,17220,27041,10535,11329,13468,1
0.0,0.0,0.0,17237,27015,10546,11304,13468,1
0.0,0.0,0.0,17254,26988,10535,11329,13454,1
0.0,0.0,0.0,17220,26988,10546,11354,13468,1
0.0,0.0,0.0,17237,26988,10535,11304,13454,1
0.0,0.0,0.0,17220,27041,10546,11329,13454,1
0.0,0.0,0.0,17237,27041,10582,11354,13496,1
0.0,0.0,0.0,17186,27041,10582,11329,13454,1
0.0,0.0,0.0,17186,26961,10594,11329,13496,1
0.0,0.0,0.0,17186,27095,10617,11341,13510,1
0.0,0.0,0.0,17186,27041,10594,11317,13454,1
0.0,0.0,0.0,17152,27041,10594,11304,13510,1
0.0,0.0,0.0,17169,27068,10617,11317,13566,1
0.0,0.0,0.0,17084,27041,10629,11255,13622,1
0.0,0.0,0.0,17118,27041,10605,11304,13622,1
0.0,0.0,0.0,17118,27041,10605,11280,13693,1
0.0,0.0,0.0,17118,27041,10629,11280,13707,1
0.0,0.0,0.0,17101,27041,10653,11292,13792,1
0.0,0.0,0.0,17135,27041,10653,11304,14079,1
0.0,0.0,0.0,17084,27041,10629,11304,14180,1
0.0,0.0,0.0,17033,27041,10700,11304,15119,1
0.0,0.0,0.0,17050,27148,10700,11354,15710,1
0.0,0.0,0.0,17016,27202,10700,11391,16060,1
0.0,0.0,0.0,17033,27122,10700,11403,15900,1
0.0,0.0,0.0,17016,27175,10688,11403,15710,1
0.0,0.0,0.0,16983,27068,10676,11403,15350,1
0.0,0.0,0.0,16983,27095,10676,11403,15288,1
0.0,0.0,0.0,16966,27095,10653,11403,15043,1
0.0,0.0,0.0,16999,27068,10664,11403,15028,1
0.0,0.0,0.0,16966,27148,10676,11379,14967,1
0.0,0.0,0.0,16966,27041,10676,11379,14861,1
0.0,0.0,0.0,16949,27041,10676,11379,14816,1
0.0,0.0,0.0,16983,27095,10641,11379,14816,1
0.0,0.0,0.0,16966,27041,10629,11379,14756,1
0.0,0.0,0.0,16966,27041,10629,11403,14726,1
0.0,0.0,0.0,16983,27041,10629,11354,14726,1
0.0,0.0,0.0,16949,27041,10629,11379,14666,1
0.0,0.0,0.0,16949,27068,10629,11403,14666,1
0.0,0.0,0.0,16966,27041,10629,11366,14666,1
0.0,0.0,0.0,16949,27041,10641,11379,14607,1
0.0,0.0,0.0,17016,27068,10605,11379,14547,1
0.0,0.0,0.0,17016,27041,10629,11354,14547,1
0.0,0.0,0.0,17016,26988,10629,11379,14488,1
0.0,0.0,0.0,17016,26988,10617,11354,14488,1
0.0,0.0,0.0,17016,27041,10629,11379,14518,1
0.0,0.0,0.0,17033,27095,10676,11391,14741,1
0.0,0.0,0.0,17084,27148,10688,11440,14937,1
0.0,0.0,0.0,17084,27148,10676,11453,14922,1
0.0,0.0,0.0,17050,27095,10676,11465,14967,1
0.0,0.0,0.0,17067,27068,10653,11478,14967,1
0.0,0.0,0.0,17050,27095,10676,11453,14937,1
0.0,0.0,0.0,17067,27202,10653,11503,14997,1
0.0,0.0,0.0,17084,27095,10676,11528,14997,1
0.0,0.0,0.0,17084,27148,10676,11503,14937,1
0.0,0.0,0.0,17084,27095,10653,11528,14937,1
0.0,0.0,0.0,17050,27068,10629,11515,14876,1
0.0,0.0,0.0,17033,27095,10641,11503,14846,1
0.0,0.0,0.0,17050,27041,10653,11490,14876,1
0.0,0.0,0.0,17084,27122,10676,11553,14876,1
0.0,0.0,0.0,17152,27015,10653,11983,14429,1
0.0,0.0,0.0,17186,26988,10676,11983,14151,1
0.0,0.0,0.0,17186,26882,10676,11996,14079,1
0.0,0.0,0.0,17152,26908,10688,11906,14036,1
0.0,0.0,0.0,17101,26855,10700,11754,14122,1
0.0,0.0,0.0,17118,26935,10676,11653,14414,1
0.0,0.0,0.0,17135,26961,10653,11628,14488,1
0.0,0.0,0.0,17152,26882,10676,11603,14488,1
0.0,0.0,0.0,17152,26935,10641,11603,14518,1
0.0,0.0,0.0,17186,26935,10641,11590,14726,1
0.0,0.0,0.0,17220,26988,10629,11553,14967,1
0.0,0.0,0.0,17220,26961,10641,11565,15043,1
0.0,0.0,0.0,17220,26988,10641,11553,15584,1
0.0,0.0,0.0,17289,27041,10641,11528,15996,1
0.0,0.0,0.0,17272,26988,10629,11553,15837,1
0.0,0.0,0.0,17272,26961,10641,11515,15600,1
0.0,0.0,0.0,17237,26988,10629,11528,15475,1
0.0,0.0,0.0,17289,26908,10629,11528,15181,1
0.0,0.0,0.0,17306,26988,10629,11528,15150,1
0.0,0.0,0.0,17289,26988,10653,11528,15366,1
0.0,0.0,0.0,17289,26988,10676,11528,15490,1
0.0,0.0,0.0,17289,26988,10676,11528,15428,1
0.0,0.0,0.0,17289,26961,10676,11503,15089,1
0.0,0.0,0.0,17289,26882,10688,11553,14562,1
0.0,0.0,0.0,17254,26855,10712,11565,14137,1
0.0,0.0,0.0,17289,26829,10724,11565,13921,1
0.0,0.0,0.0,17357,26829,10724,11603,13735,1
0.0,0.0,0.0,17357,26829,10688,11603,13693,1
0.0,0.0,0.0,17323,26829,10688,11565,13650,1
0.0,0.0,0.0,17289,26802,10653,11590,13622,1
0.0,0.0,0.0,17254,26776,10653,11603,13622,1
0.0,0.0,0.0,17220,26829,10641,11603,13622,1
0.0,0.0,0.0,17220,26776,10641,11603,13608,1
0.0,0.0,0.0,17237,26749,10653,11590,13594,1
0.0,0.0,0.0,17220,26776,10641,11603,13622,1
0.0,0.0,0.0,17169,26723,10653,11653,13566,1
0.0,0.0,0.0,17152,26723,10676,11628,13566,1
0.0,0.0,0.0,17152,26749,10653,11628,13580,1
0.0,0.0,0.0,17169,26723,10653,11603,13622,1
0.0,0.0,0.0,17152,26723,10664,11615,13636,1
0.0,0.0,0.0,17186,26776,10676,11615,13594,1
0.0,0.0,0.0,17220,26723,10676,11603,13566,1
0.0,0.0,0.0,17169,26723,10676,11603,13524,1
0.0,0.0,0.0,17152,26697,10653,11603,13524,1
0.0,0.0,0.0,17152,26670,10676,11603,13510,1
0.0,0.0,0.0,17152,26670,10676,11603,13524,1
0.0,0.0,0.0,17186,26723,10676,11603,13482,1
0.0,0.0,0.0,17152,26644,10653,11615,13510,1
0.0,0.0,0.0,17169,26723,10676,11578,13510,1
0.0,0.0,0.0,17169,26670,10676,11578,13524,1
0.0,0.0,0.0,17152,26697,10676,11578,13468,1
0.0,0.0,0.0,17152,26670,10676,11515,13524,1
0.0,0.0,0.0,17101,26723,10700,11453,13510,1
0.0,0.0,0.0,17152,26697,10676,11478,13510,1
0.0,0.0,0.0,17152,26670,10676,11453,13454,1
0.0,0.0,0.0,17152,26697,10676,11453,13482,1
0.0,0.0,0.0,17152,26670,10676,11453,13468,1
0.0,0.0,0.0,17186,26723,10700,11428,13482,1
0.0,0.0,0.0,17203,26776,10700,11379,13482,1
0.0,0.0,0.0,17203,26829,10688,11366,13510,1
0.0,0.0,0.0,17186,26723,10724,11366,13482,1
0.0,0.0,0.0,17169,26723,10676,11379,13482,1
0.0,0.0,0.0,17186,26723,10700,11379,13510,1
0.0,0.0,0.0,17169,26749,10676,11403,13468,1
0.0,0.0,0.0,17186,26723,10688,11379,13510,1
0.0,0.0,0.0,17186,26723,10676,11379,13482,1
0.0,0.0,0.0,17186,26723,10688,11354,13510,1
0.0,0.0,0.0,17186,26749,10653,11403,13482,1
0.0,0.0,0.0,17220,26670,10676,11578,13524,1
0.0,0.0,0.0,17289,26723,10688,11553,13510,1
0.0,0.0,0.0,17220,26670,10748,11603,13496,1
0.0,0.0,0.0,17220,26644,10771,11653,13482,1
0.0,0.0,0.0,17186,26670,10748,11653,13510,1
0.0,0.0,0.0,17186,26670,10748,11603,13510,1
0.0,0.0,0.0,17169,26670,10748,11615,13468,1
0.0,0.0,0.0,17186,26618,10748,11603,13482,1
0.0,0.0,0.0,17220,26644,10748,11553,13510,1
0.0,0.0,0.0,17220,26749,10748,11478,13849,1
0.0,0.0,0.0,17220,26829,10771,11478,14166,1
0.0,0.0,0.0,17220,26882,10795,11453,14488,1
0.0,0.0,0.0,17152,26829,10748,11453,14341,1
0.0,0.0,0.0,17186,26776,10724,11453,14137,1
0.0,0.0,0.0,17152,26723,10724,11453,13964,1
0.0,0.0,0.0,17118,26670,10700,11478,13906,1
0.0,0.0,0.0,17152,26723,10688,11453,13878,1
0.0,0.0,0.0,17152,26723,10688,11478,13821,1
0.0,0.0,0.0,17152,26644,10700,11465,13849,1
0.0,0.0,0.0,17152,26670,10688,11478,13806,1
0.0,0.0,0.0,17118,26618,10688,11478,13821,1
0.0,0.0,0.0,17152,26618,10700,11453,13806,1
0.0,0.0,0.0,17101,26618,10676,11503,13821,1
0.0,0.0,0.0,17152,26618,10700,11578,13792,1
0.0,0.0,0.0,17118,26566,10748,11665,13721,1
0.0,0.0,0.0,17152,26566,10771,11691,13650,1
0.0,0.0,0.0,17152,26566,10748,11703,13622,1
0.0,0.0,0.0,17118,26566,10748,11703,13566,1
0.0,0.0,0.0,17118,26513,10748,11678,13594,1
0.0,0.0,0.0,17101,26566,10724,11665,13538,1
0.0,0.0,0.0,17067,26461,10724,11665,13566,1
0.0,0.0,0.0,17084,26566,10724,11653,13524,1
0.0,0.0,0.0,17084,26513,10712,11615,13524,1
0.0,0.0,0.0,17067,26513,10700,11603,13524,1
0.0,0.0,0.0,17050,26513,10700,11653,13566,1
0.0,0.0,0.0,17084,26566,10688,11603,13566,1
0.0,0.0,0.0,17050,26566,10700,11603,13580,1
0.0,0.0,0.0,17084,26513,10676,11603,13580,1
0.0,0.0,0.0,17084,26513,10676,11603,13594,1
0.0,0.0,0.0,17050,26513,10676,11603,13566,1
0.0,0.0,0.0,17084,26513,10688,11603,13566,1
0.0,0.0,0.0,17118,26513,10688,11603,13566,1
0.0,0.0,0.0,17050,26461,10676,11603,13580,1
0.0,0.0,0.0,17050,26513,10676,11603,13566,1
0.0,0.0,0.0,17084,26566,10688,11565,13608,1
0.0,0.0,0.0,17084,26513,10700,11553,13636,1
0.0,0.0,0.0,17067,26513,10676,11528,13622,1
0.0,0.0,0.0,17084,26539,10676,11528,13650,1
0.0,0.0,0.0,17050,26513,10700,11503,13735,1
0.0,0.0,0.0,17084,26513,10676,11503,13749,1
0.0,0.0,0.0,17084,26566,10676,11453,13735,1
0.0,0.0,0.0,17016,26487,10676,11453,13749,1
0.0,0.0,0.0,17016,26487,10676,11503,13735,1
0.0,0.0,0.0,17101,26435,10688,11503,13707,1
0.0,0.0,0.0,17118,26435,10724,11628,13650,1
0.0,0.0,0.0,17152,26409,10771,11665,13608,1
0.0,0.0,0.0,17152,26383,10783,11678,13622,1
0.0,0.0,0.0,17084,26409,10771,11653,13594,1
0.0,0.0,0.0,17152,26409,10771,11653,13622,1
0.0,0.0,0.0,17169,26435,10771,11653,13622,1
0.0,0.0,0.0,17186,26409,10771,11603,13566,1
0.0,0.0,0.0,17186,26409,10759,11628,13566,1
0.0,0.0,0.0,17152,26435,10771,11628,13622,1
0.0,0.0,0.0,17118,26383,10795,11628,13580,1
0.0,0.0,0.0,17135,26357,10795,11603,13622,1
0.0,0.0,0.0,17135,26409,10783,11603,13622,1
0.0,0.0,0.0,17152,26409,10795,11578,13636,1
0.0,0.0,0.0,17169,26409,10771,11565,13636,1
0.0,0.0,0.0,17220,26409,10795,11603,13679,1
0.0,0.0,0.0,17254,26409,10783,11603,13665,1
0.0,0.0,0.0,17289,26435,10819,11578,13650,1
0.0,0.0,0.0,17323,26409,10819,11615,13693,1
0.0,0.0,0.0,17306,26409,10819,11615,13679,1
0.0,0.0,0.0,17323,26409,10807,11628,13679,1
0.0,0.0,0.0,17254,26409,10807,11603,13679,1
0.0,0.0,0.0,17254,26435,10819,11603,13679,1
0.0,0.0,0.0,17392,26357,10819,11528,13849,1
0.0,0.0,0.0,17722,26409,10831,11503,14050,1
0.0,0.0,0.0,17722,26487,10795,11478,13992,1
0.0,0.0,0.0,17634,26409,10819,11478,13964,1
0.0,0.0,0.0,17565,26461,10819,11453,13964,1
0.0,0.0,0.0,17495,26409,10831,11403,13935,1
0.0,0.0,0.0,17461,26435,10819,11428,13892,1
0.0,0.0,0.0,17461,26435,10795,11403,13878,1
0.0,0.0,0.0,17426,26409,10771,11403,13849,1
0.0,0.0,0.0,17374,26461,10795,11453,13806,1
0.0,0.0,0.0,17357,26305,10819,11453,13778,1
0.0,0.0,0.0,17357,26409,10819,11453,13792,1
0.0,0.0,0.0,17357,26357,10819,11465,13792,1
0.0,0.0,0.0,17323,26383,10807,11453,13764,1
0.0,0.0,0.0,17357,26409,10807,11453,13821,1
0.0,0.0,0.0,17323,26409,10819,11453,13964,1
0.0,0.0,0.0,17340,26409,10795,11428,13964,1
0.0,0.0,0.0,17323,26409,10783,11453,13964,1
0.0,0.0,0.0,17323,26357,10819,11515,13964,1
0.0,0.0,0.0,17340,26435,10843,11503,13849,1
0.0,0.0,0.0,17323,26435,10879,11528,13863,1
0.0,0.0,0.0,17323,26461,10867,11503,13849,1
0.0,0.0,0.0,17323,26461,10831,11465,13921,1
0.0,0.0,0.0,17323,26513,10843,11428,14021,1
0.0,0.0,0.0,17357,26435,10831,11403,14021,1
0.0,0.0,0.0,17323,26461,10819,11428,14036,1
0.0,0.0,0.0,17323,26461,10819,11453,13992,1
0.0,0.0,0.0,17323,26487,10759,11428,13992,1
0.0,0.0,0.0,17289,26487,10748,11428,13978,1
0.0,0.0,0.0,17306,26513,10748,11403,13964,1
0.0,0.0,0.0,17306,26461,10748,11403,13964,1
0.0,0.0,0.0,17289,26461,10748,11403,13964,1
0.0,0.0,0.0,17306,26461,10771,11403,13992,1
0.0,0.0,0.0,17323,26461,10771,11403,14064,1
0.0,0.0,0.0,17357,26513,10748,11403,14151,1
0.0,0.0,0.0,17306,26513,10748,11428,14253,1
0.0,0.0,0.0,17306,26513,10771,11428,14268,1
0.0,0.0,0.0,17289,26513,10748,11428,14253,1
0.0,0.0,0.0,17289,26513,10748,11428,14195,1
0.0,0.0,0.0,17306,26513,10771,11478,14021,1
0.0,0.0,0.0,17306,26409,10819,11628,13849,1
0.0,0.0,0.0,17306,26435,10783,11653,13821,1
0.0,0.0,0.0,17323,26461,10795,11628,13792,1
0.0,0.0,0.0,17289,26383,10771,11603,13764,1
0.0,0.0,0.0,17306,26409,10771,11578,13735,1
0.0,0.0,0.0,17254,26409,10771,11565,13764,1
0.0,0.0,0.0,17306,26409,10771,11553,13735,1
0.0,0.0,0.0,17289,26409,10771,11553,13749,1
0.0,0.0,0.0,17289,26409,10748,11553,13821,1
0.0,0.0,0.0,17237,26331,10712,11553,13821,1
0.0,0.0,0.0,17254,26357,10724,11553,13849,1
0.0,0.0,0.0,17272,26409,10724,11528,13906,1
0.0,0.0,0.0,17254,26409,10676,11503,13921,1
0.0,0.0,0.0,17220,26409,10617,11503,13906,1
0.0,0.0,0.0,17220,26409,10629,11515,13892,1
0.0,0.0,0.0,17186,26357,10605,11528,13906,1
0.0,0.0,0.0,17186,26409,10605,11503,13906,1
0.0,0.0,0.0,17152,26357,10594,11478,13878,1
0.0,0.0,0.0,17084,26305,10582,11503,13849,1
0.0,0.0,0.0,17118,26409,10605,11503,13863,1
0.0,0.0,0.0,17101,26331,10605,11503,13835,1
0.0,0.0,0.0,17050,26409,10582,11503,13806,1
0.0,0.0,0.0,17016,26305,10582,11503,13849,1
0.0,0.0,0.0,16966,26305,10605,11503,13849,1
0.0,0.0,0.0,17016,26331,10582,11503,13806,1
0.0,0.0,0.0,17016,26305,10594,11503,13835,1
0.0,0.0,0.0,17033,26305,10582,11490,13821,1
0.0,0.0,0.0,17016,26305,10582,11503,13835,1
0.0,0.0,0.0,17016,26305,10558,11503,13878,1
0.0,0.0,0.0,16882,26279,10558,11528,13892,1
0.0,0.0,0.0,16748,26331,10582,11515,13849,1
0.0,0.0,0.0,16715,26331,10582,11553,13849,1
0.0,0.0,0.0,16681,26305,10546,11503,13849,1
0.0,0.0,0.0,16715,26305,10535,11515,13849,1
0.0,0.0,0.0,16698,26305,10558,11528,13863,1
0.0,0.0,0.0,16665,26331,10546,11528,13849,1
0.0,0.0,0.0,16681,26305,10582,11528,13878,1
0.0,0.0,0.0,16665,26331,10582,11528,13863,1
0.0,0.0,0.0,16615,26331,10546,11515,13849,1
0.0,0.0,0.0,16648,26305,10546,11528,13849,1
0.0,0.0,0.0,16615,26331,10546,11528,13863,1
0.0,0.0,0.0,16615,26305,10546,11515,13849,1
0.0,0.0,0.0,16648,26305,10546,11515,13863,1
0.0,0.0,0.0,16648,26331,10546,11528,13849,1
0.0,0.0,0.0,16632,26357,10546,11553,13849,1
0.0,0.0,0.0,16615,26305,10535,11528,13863,1
0.0,0.0,0.0,16648,26305,10546,11503,13849,1
0.0,0.0,0.0,16632,26279,10535,11528,13849,1
0.0,0.0,0.0,16648,26305,10546,11528,13878,1
0.0,0.0,0.0,16665,26305,10546,11528,13863,1
0.0,0.0,0.0,16665,26305,10546,11528,13849,1
0.0,0.0,0.0,16665,26305,10546,11515,13863,1
0.0,0.0,0.0,16648,26305,10546,11515,13863,1
0.0,0.0,0.0,16681,26331,10546,11515,13863,1
0.0,0.0,0.0,16681,26331,10546,11515,13849,1
0.0,0.0,0.0,16715,26305,10546,11503,13849,1
0.0,0.0,0.0,16715,26331,10546,11515,13849,1
0.0,0.0,0.0,16748,26305,10546,11503,13863,1
0.0,0.0,0.0,16748,26357,10546,11528,13835,1
0.0,0.0,0.0,16765,26279,10546,11528,13849,1
0.0,0.0,0.0,16781,26305,10546,11528,13849,1
0.0,0.0,0.0,16815,26331,10535,11515,13878,1
0.0,0.0,0.0,16831,26331,10546,11515,13863,1
0.0,0.0,0.0,17016,26409,10546,11515,13878,1
0.0,0.0,0.0,17084,26409,10546,11503,13835,1
0.0,0.0,0.0,17152,26409,10582,11515,13849,1
0.0,0.0,0.0,17220,26409,10629,11515,13849,1
0.0,0.0,0.0,17237,26435,10641,11503,13863,1
0.0,0.0,0.0,17357,26409,10641,11503,13921,1
0.0,0.0,0.0,17478,26409,10653,11503,13964,1
0.0,0.0,0.0,17461,26305,10629,11503,14021,1
0.0,0.0,0.0,17461,26409,10629,11503,14021,1
0.0,0.0,0.0,17495,26357,10617,11503,14036,1
0.0,0.0,0.0,17495,26305,10605,11503,14064,1
0.0,0.0,0.0,17495,26305,10582,11503,14036,1
0.0,0.0,0.0,17495,26305,10582,11503,14021,1
0.0,0.0,0.0,17461,26331,10582,11503,14021,1
0.0,0.0,0.0,17443,26331,10582,11503,14021,1
0.0,0.0,0.0,17426,26331,10582,11503,14021,1
0.0,0.0,0.0,17374,26331,10582,11503,14036,1
0.0,0.0,0.0,17323,26253,10558,11503,14007,1
0.0,0.0,0.0,17289,26228,10582,11503,14021,1
0.0,0.0,0.0,17289,26305,10546,11503,14036,1
0.0,0.0,0.0,17237,26253,10558,11503,14021,1
0.0,0.0,0.0,17254,26279,10582,11528,14050,1
0.0,0.0,0.0,17220,26253,10582,11515,14036,1
0.0,0.0,0.0,17220,26305,10546,11528,14064,1
0.0,0.0,0.0,17186,26305,10582,11503,14064,1
0.0,0.0,0.0,17169,26305,10546,11490,14021,1
0.0,0.0,0.0,17203,26331,10582,11503,14021,1
0.0,0.0,0.0,17220,26331,10594,11503,14064,1
0.0,0.0,0.0,17186,26305,10558,11515,14036,1
0.0,0.0,0.0,17186,26305,10558,11503,14108,1
0.0,0.0,0.0,17220,26357,10546,11503,14050,1
0.0,0.0,0.0,17186,26357,10546,11503,14036,1
0.0,0.0,0.0,17169,26305,10582,11503,14036,1
0.0,0.0,0.0,17220,26305,10546,11503,14050,1
0.0,0.0,0.0,17169,26305,10546,11503,14050,1
0.0,0.0,0.0,17220,26305,10582,11503,13964,1
0.0,0.0,0.0,17186,26305,10582,11503,13921,1
0.0,0.0,0.0,17237,26331,10558,11503,13906,1
0.0,0.0,0.0,17220,26305,10546,11515,13906,1
0.0,0.0,0.0,17169,26279,10582,11528,13878,1
0.0,0.0,0.0,17186,26305,10546,11528,13906,1
0.0,0.0,0.0,17169,26279,10582,11528,13863,1
0.0,0.0,0.0,17203,26305,10558,11528,13906,1
0.0,0.0,0.0,17220,26331,10535,11528,13863,1
0.0,0.0,0.0,17203,26305,10558,11578,13935,1
0.0,0.0,0.0,17169,26253,10582,11703,13906,1
0.0,0.0,0.0,17169,26253,10570,11766,13921,1
0.0,0.0,0.0,17152,26202,10582,11665,13863,1
0.0,0.0,0.0,17152,26253,10582,11615,13849,1
0.0,0.0,0.0,17186,26253,10582,11578,13921,1
0.0,0.0,0.0,17118,26253,10605,11578,13949,1
0.0,0.0,0.0,17152,26253,10594,11578,13964,1
0.0,0.0,0.0,17118,26202,10582,11578,14079,1
0.0,0.0,0.0,17084,26253,10594,11553,14195,1
0.0,0.0,0.0,17118,26228,10594,11553,14268,1
0.0,0.0,0.0,17101,26279,10546,11603,14253,1
0.0,0.0,0.0,17084,26202,10558,11703,14253,1
0.0,0.0,0.0,17135,26305,10546,11703,14268,1
0.0,0.0,0.0,17101,26253,10582,11653,14341,1
0.0,0.0,0.0,17152,26228,10582,11615,14458,1
0.0,0.0,0.0,17254,26279,10558,11603,14503,1
0.0,0.0,0.0,17254,26331,10582,11603,14488,1
0.0,0.0,0.0,17220,26409,10582,11603,14547,1
0.0,0.0,0.0,17237,26331,10582,11565,14967,1
0.0,0.0,0.0,17220,26357,10582,11578,14967,1
0.0,0.0,0.0,17220,26357,10605,11578,14967,1
0.0,0.0,0.0,17169,26331,10582,11553,15013,1
0.0,0.0,0.0,17169,26305,10594,11578,14907,1
0.0,0.0,0.0,17152,26305,10582,11578,14726,1
0.0,0.0,0.0,17118,26253,10594,11603,14532,1
0.0,0.0,0.0,17084,26305,10617,11628,14399,1
0.0,0.0,0.0,17084,26305,10641,11653,14311,1
0.0,0.0,0.0,17084,26305,10653,11628,14253,1
0.0,0.0,0.0,17084,26331,10653,11628,14224,1
0.0,0.0,0.0,17067,26305,10641,11628,14209,1
0.0,0.0,0.0,17084,26305,10629,11603,14195,1
0.0,0.0,0.0,17084,26305,10629,11603,14195,1
0.0,0.0,0.0,17084,26253,10594,11603,14195,1
0.0,0.0,0.0,17084,26253,10629,11653,14209,1
0.0,0.0,0.0,17084,26253,10641,11804,14137,1
0.0,0.0,0.0,17050,26253,10629,11830,14108,1
0.0,0.0,0.0,17050,26202,10629,11906,14021,1
0.0,0.0,0.0,17084,26202,10641,11855,14021,1
0.0,0.0,0.0,17084,26202,10629,11881,13992,1
0.0,0.0,0.0,17084,26150,10629,11754,13964,1
0.0,0.0,0.0,17016,26228,10641,11590,13935,1
0.0,0.0,0.0,17050,26202,10664,11503,14021,1
0.0,0.0,0.0,17033,26253,10676,11478,13978,1
0.0,0.0,0.0,17050,26253,10676,11465,14021,1
0.0,0.0,0.0,17084,26253,10664,11478,13921,1
0.0,0.0,0.0,17084,26253,10641,11515,13892,1
0.0,0.0,0.0,17101,26228,10641,11603,13849,1
0.0,0.0,0.0,17101,26202,10641,11603,13835,1
0.0,0.0,0.0,17084,26228,10641,11590,13821,1
0.0,0.0,0.0,17067,26228,10629,11603,13792,1
0.0,0.0,0.0,17084,26202,10629,11578,13821,1
0.0,0.0,0.0,17016,26228,10629,11578,13792,1
0.0,0.0,0.0,17016,26124,10629,11578,13806,1
0.0,0.0,0.0,17033,26202,10676,11565,13849,1
0.0,0.0,0.0,17016,26150,10676,11603,13821,1
0.0,0.0,0.0,17033,26228,10676,11578,13821,1
0.0,0.0,0.0,17016,26202,10676,11578,13849,1
0.0,0.0,0.0,16999,26176,10676,11578,13821,1
0.0,0.0,0.0,17033,26176,10641,11578,13849,1
0.0,0.0,0.0,17033,26150,10653,11578,13849,1
0.0,0.0,0.0,17084,26150,10641,11578,13849,1
0.0,0.0,0.0,17067,26202,10641,11578,13849,1
0.0,0.0,0.0,17033,26202,10629,11553,13849,1
0.0,0.0,0.0,17067,26150,10629,11553,13821,1
0.0,0.0,0.0,17050,26202,10629,11565,13863,1
0.0,0.0,0.0,17033,26150,10629,11578,13849,1
0.0,0.0,0.0,17050,26176,10605,11553,13835,1
0.0,0.0,0.0,17050,26202,10582,11578,13849,1
0.0,0.0,0.0,17084,26150,10582,11565,13849,1
0.0,0.0,0.0,17050,26150,10570,11603,13849,1
0.0,0.0,0.0,17084,26150,10582,11565,13849,1
0.0,0.0,0.0,17084,26176,10605,11603,13863,1
0.0,0.0,0.0,17186,26176,10582,11603,13849,1
0.0,0.0,0.0,17289,26202,10582,11565,13863,1
0.0,0.0,0.0,17289,26202,10546,11565,13849,1
0.0,0.0,0.0,17306,26279,10582,11565,13863,1
0.0,0.0,0.0,17289,26253,10570,11578,13849,1
0.0,0.0,0.0,17306,26202,10546,11603,13892,1
0.0,0.0,0.0,17306,26253,10582,11565,13835,1
0.0,0.0,0.0,17323,26253,10558,11590,13906,1
0.0,0.0,0.0,17289,26202,10582,11578,13821,1
0.0,0.0,0.0,17289,26202,10546,11603,13878,1
0.0,0.0,0.0,17289,26228,10558,11578,13849,1
0.0,0.0,0.0,17306,26202,10582,11590,13878,1
0.0,0.0,0.0,17254,26150,10558,11578,13849,1
0.0,0.0,0.0,17289,26202,10546,11565,13878,1
0.0,0.0,0.0,17289,26202,10546,11565,13878,1
0.0,0.0,0.0,17289,26202,10582,11578,13906,1
0.0,0.0,0.0,17289,26202,10546,11578,13863,1
0.0,0.0,0.0,17323,26202,10546,11603,13892,1
0.0,0.0,0.0,17323,26202,10546,11578,13878,1
0.0,0.0,0.0,17323,26202,10546,11578,13906,1
0.0,0.0,0.0,17323,26202,10546,11590,13906,1
0.0,0.0,0.0,17374,26228,10582,11603,13906,1
0.0,0.0,0.0,17495,26279,10546,11578,13935,1
0.0,0.0,0.0,17513,26305,10582,11603,13921,1
0.0,0.0,0.0,17565,26305,10558,11565,13921,1
0.0,0.0,0.0,17634,26331,10535,11603,13921,1
0.0,0.0,0.0,17652,26331,10546,11578,13906,1
0.0,0.0,0.0,17669,26305,10582,11578,13906,1
0.0,0.0,0.0,17687,26357,10546,11578,13935,1
0.0,0.0,0.0,17774,26409,10546,11603,13949,1
0.0,0.0,0.0,17915,26357,10558,11578,13964,1
0.0,0.0,0.0,17915,26357,10582,11578,13906,1
0.0,0.0,0.0,17915,26409,10546,11578,13949,1
0.0,0.0,0.0,17933,26383,10558,11578,13921,1
0.0,0.0,0.0,17915,26357,10499,11578,13906,1
0.0,0.0,0.0,17933,26331,10546,11578,13935,1
0.0,0.0,0.0,17880,26305,10582,11578,13906,1
0.0,0.0,0.0,17915,26331,10582,11603,13935,1
0.0,0.0,0.0,17845,26331,10582,11578,13906,1
0.0,0.0,0.0,17845,26305,10582,11578,13935,1
0.0,0.0,0.0,17845,26253,10629,11578,13935,1
0.0,0.0,0.0,17792,26305,10653,11628,13964,1
0.0,0.0,0.0,17774,26228,10641,11603,13964,1
0.0,0.0,0.0,17722,26253,10664,11603,13935,1
0.0,0.0,0.0,17774,26202,10676,11615,13964,1
0.0,0.0,0.0,17704,26253,10653,11615,13992,1
0.0,0.0,0.0,17704,26176,10641,11603,14050,1
0.0,0.0,0.0,17634,26202,10629,11628,14108,1
0.0,0.0,0.0,17634,26228,10605,11628,14195,1
0.0,0.0,0.0,17565,26202,10629,11653,14326,1
0.0,0.0,0.0,17582,26228,10629,11628,14666,1
0.0,0.0,0.0,17461,26150,10594,11615,15521,1
0.0,0.0,0.0,17374,26228,10605,11653,16093,1
0.0,0.0,0.0,17374,26176,10582,11678,16157,1
0.0,0.0,0.0,17357,26202,10582,11653,16254,1
0.0,0.0,0.0,17357,26202,10605,11653,16173,1
0.0,0.0,0.0,17357,26279,10617,11653,16238,1
0.0,0.0,0.0,17357,26253,10629,11640,16060,1
0.0,0.0,0.0,17323,26202,10629,11653,15837,1
0.0,0.0,0.0,17323,26253,10641,11653,15459,1
0.0,0.0,0.0,17357,26202,10653,11653,15304,1
0.0,0.0,0.0,17357,26228,10653,11653,15058,1
0.0,0.0,0.0,17323,26150,10676,11653,14997,1
0.0,0.0,0.0,17323,26202,10653,11653,14967,1
0.0,0.0,0.0,17306,26253,10676,11665,14967,1
0.0,0.0,0.0,17306,26202,10641,11653,14846,1
0.0,0.0,0.0,17306,26124,10629,11653,14816,1
0.0,0.0,0.0,17306,26099,10629,11703,14681,1
0.0,0.0,0.0,17289,26099,10594,11678,14577,1
0.0,0.0,0.0,17289,26099,10629,11703,14429,1
0.0,0.0,0.0,17306,26124,10605,11703,14370,1
0.0,0.0,0.0,17289,26124,10629,11703,14282,1
0.0,0.0,0.0,17289,26099,10605,11754,14253,1
0.0,0.0,0.0,17289,26099,10605,11754,14151,1
0.0,0.0,0.0,17272,26099,10629,11741,14151,1
0.0,0.0,0.0,17254,26047,10605,11766,14151,1
0.0,0.0,0.0,17254,26099,10605,11766,14166,1
0.0,0.0,0.0,17289,26099,10629,11754,14108,1
0.0,0.0,0.0,17254,26047,10629,11728,14137,1
0.0,0.0,0.0,17220,26099,10629,11703,14108,1
0.0,0.0,0.0,17220,26099,10605,11678,14137,1
0.0,0.0,0.0,17169,26099,10629,11678,14108,1
0.0,0.0,0.0,17203,26124,10641,11653,14137,1
0.0,0.0,0.0,17220,26073,10641,11603,14224,1
0.0,0.0,0.0,17186,26099,10641,11603,14195,1
0.0,0.0,0.0,17186,26099,10653,11578,14195,1
0.0,0.0,0.0,17152,26047,10641,11590,14166,1
0.0,0.0,0.0,17203,26099,10641,11628,14137,1
0.0,0.0,0.0,17186,26047,10641,11665,14108,1
0.0,0.0,0.0,17152,26047,10629,11830,14108,1
0.0,0.0,0.0,17186,26022,10664,11842,14021,1
0.0,0.0,0.0,17169,26047,10641,11855,14021,1
0.0,0.0,0.0,17152,25996,10629,11868,14050,1
0.0,0.0,0.0,17169,26047,10629,11855,14036,1
0.0,0.0,0.0,17118,26022,10629,11868,14021,1
0.0,0.0,0.0,17152,26047,10629,11804,13978,1
0.0,0.0,0.0,17152,26073,10629,11779,13992,1
0.0,0.0,0.0,17169,26073,10605,11779,13992,1
0.0,0.0,0.0,17152,26022,10617,11779,13992,1
0.0,0.0,0.0,17152,26022,10594,11754,14021,1
0.0,0.0,0.0,17152,26022,10629,11804,13992,1
0.0,0.0,0.0,17152,25996,10605,11779,13978,1
0.0,0.0,0.0,17118,25996,10605,11766,13992,1
0.0,0.0,0.0,17118,26022,10594,11716,14021,1
0.0,0.0,0.0,17118,25996,10594,11779,13978,1
0.0,0.0,0.0,17118,26047,10594,11779,13992,1
0.0,0.0,0.0,17101,25996,10582,11779,13978,1
0.0,0.0,0.0,17118,26022,10582,11754,14021,1
0.0,0.0,0.0,17101,26047,10582,11716,14137,1
0.0,0.0,0.0,17220,26099,10688,11716,14195,1
0.0,0.0,0.0,17152,26099,10819,11716,14224,1
0.0,0.0,0.0,17101,26099,10891,11754,14195,1
0.0,0.0,0.0,17101,26047,10879,11766,14166,1
0.0,0.0,0.0,17101,26099,10831,11754,14166,1
0.0,0.0,0.0,17101,26022,10843,11792,14093,1
0.0,0.0,0.0,17084,26047,10819,11766,14079,1
0.0,0.0,0.0,17084,26047,10771,11754,14079,1
0.0,0.0,0.0,17084,26099,10748,11728,14108,1
0.0,0.0,0.0,17084,26022,10748,11728,14108,1
0.0,0.0,0.0,17084,26099,10759,11728,14151,1
0.0,0.0,0.0,17084,26047,10748,11716,14151,1
0.0,0.0,0.0,17084,26047,10748,11766,14253,1
0.0,0.0,0.0,17033,26022,10748,11804,14151,1
0.0,0.0,0.0,17016,25996,10748,11804,14050,1
0.0,0.0,0.0,17050,25996,10724,11804,13992,1
0.0,0.0,0.0,17050,25996,10724,11766,14064,1
0.0,0.0,0.0,17033,26047,10748,11754,14050,1
0.0,0.0,0.0,17050,25996,10748,11754,14064,1
0.0,0.0,0.0,17050,25996,10748,11766,14108,1
0.0,0.0,0.0,17084,25971,10724,11728,14079,1
0.0,0.0,0.0,17050,26047,10724,11754,14079,1
0.0,0.0,0.0,17050,26047,10724,11728,14108,1
0.0,0.0,0.0,17084,25996,10724,11716,14137,1
0.0,0.0,0.0,17050,26047,10748,11741,14079,1
0.0,0.0,0.0,17050,26099,10700,11754,14079,1
0.0,0.0,0.0,17067,26022,10712,11728,14108,1
0.0,0.0,0.0,17084,25996,10700,11716,14050,1
0.0,0.0,0.0,17084,25996,10700,11728,14108,1
0.0,0.0,0.0,17050,25996,10724,11728,14108,1
0.0,0.0,0.0,17084,25996,10700,11703,14050,1
0.0,0.0,0.0,17084,26047,10712,11716,14108,1
0.0,0.0,0.0,17101,26022,10688,11728,14108,1
0.0,0.0,0.0,17084,26022,10724,11703,14079,1
0.0,0.0,0.0,17050,26073,10700,11728,14108,1
0.0,0.0,0.0,17084,26022,10748,11716,14108,1
0.0,0.0,0.0,17067,25894,10724,11716,14108,1
0.0,0.0,0.0,17084,26047,10688,11728,14108,1
0.0,0.0,0.0,17067,26047,10724,11741,14108,1
0.0,0.0,0.0,17050,25996,10688,11703,14079,1
0.0,0.0,0.0,17050,25996,10700,11716,14108,1
0.0,0.0,0.0,17050,26047,10700,11728,14108,1
0.0,0.0,0.0,17067,26022,10700,11728,14108,1
0.0,0.0,0.0,17084,26047,10688,11703,14108,1
0.0,0.0,0.0,17050,26047,10700,11716,14079,1
0.0,0.0,0.0,17050,26047,10700,11703,14108,1
0.0,0.0,0.0,17050,26073,10700,11716,14108,1
0.0,0.0,0.0,17050,26022,10700,11728,14108,1
0.0,0.0,0.0,17084,26073,10724,11716,14108,1
0.0,0.0,0.0,17050,26022,10700,11716,14064,1
0.0,0.0,0.0,17084,26099,10688,11716,14108,1
0.0,0.0,0.0,17118,26022,10700,11703,14079,1
0.0,0.0,0.0,17033,25996,10688,11716,14079,1
0.0,0.0,0.0,17084,25996,10700,11716,14108,1
0.0,0.0,0.0,17067,26047,10688,11716,14079,1
0.0,0.0,0.0,17084,26022,10676,11716,14108,1
0.0,0.0,0.0,17050,25996,10700,11728,14079,1
0.0,0.0,0.0,17084,26073,10700,11716,14079,1
0.0,0.0,0.0,17033,25996,10700,11716,14079,1
0.0,0.0,0.0,17033,25996,10700,11703,14079,1
0.0,0.0,0.0,17084,25996,10748,11653,14079,1
0.0,0.0,0.0,17050,25996,10724,11615,14064,1
0.0,0.0,0.0,17050,26099,10748,11628,14079,1
0.0,0.0,0.0,17118,26099,10795,11653,14108,1
0.0,0.0,0.0,17152,26150,10795,11653,14050,1
0.0,0.0,0.0,17186,26073,10771,11653,14007,1
0.0,0.0,0.0,17169,26047,10771,11653,13992,1
0.0,0.0,0.0,17135,26150,10795,11578,14021,1
0.0,0.0,0.0,17084,26099,10819,11553,14108,1
0.0,0.0,0.0,17084,26099,10819,11603,14050,1
0.0,0.0,0.0,17084,26150,10819,11553,14108,1
0.0,0.0,0.0,17050,26099,10819,11578,14209,1
0.0,0.0,0.0,17084,26099,10819,11578,14341,1
0.0,0.0,0.0,17084,26047,10795,11553,14429,1
0.0,0.0,0.0,17050,26099,10795,11578,14444,1
0.0,0.0,0.0,17101,26073,10795,11553,14429,1
0.0,0.0,0.0,17084,26047,10783,11578,14399,1
0.0,0.0,0.0,17084,26047,10783,11565,14311,1
0.0,0.0,0.0,17084,26047,10855,11603,14253,1
0.0,0.0,0.0,17084,26150,10939,11615,14195,1
0.0,0.0,0.0,17101,26099,11012,11703,14151,1
0.0,0.0,0.0,17101,26124,11048,11653,14122,1
0.0,0.0,0.0,17118,26124,10987,11678,14079,1
0.0,0.0,0.0,17084,26047,11012,11665,14108,1
0.0,0.0,0.0,17101,26099,10975,11678,14079,1
0.0,0.0,0.0,17118,26099,10963,11653,14050,1
0.0,0.0,0.0,17118,26099,10963,11615,14050,1
0.0,0.0,0.0,17084,26022,11012,11603,14195,1
0.0,0.0,0.0,17084,26099,11012,11640,14891,1
0.0,0.0,0.0,17118,26202,11012,11653,15553,1
0.0,0.0,0.0,17152,26253,10999,11665,15837,1
0.0,0.0,0.0,17152,26202,10963,11716,15773,1
0.0,0.0,0.0,17152,26124,10939,11703,15242,1
0.0,0.0,0.0,17118,26099,10891,11703,14547,1
0.0,0.0,0.0,17152,26099,10939,11728,14224,1
0.0,0.0,0.0,17152,26047,11012,11754,13992,1
0.0,0.0,0.0,17152,26073,10963,11766,13906,1
0.0,0.0,0.0,17152,26047,10987,11779,13906,1
0.0,0.0,0.0,17186,26099,10975,11804,13863,1
