GyroX,GyroY,GyroZ,Thumb,Index,Middle,Ring,Pinky,Gesture
0.0,0.0,0.0,15273,12346,11304,36085,34696,3
0.0,0.0,0.0,14967,12137,11603,36614,37781,3
0.0,0.0,0.0,14726,12073,11754,36614,38341,3
0.0,0.0,0.0,14429,12112,11703,36386,37940,3
0.0,0.0,0.0,14224,12137,11628,37426,36767,3
0.0,0.0,0.0,14195,12189,11653,38503,35787,3
0.0,0.0,0.0,14311,12280,11653,38707,36010,3
0.0,0.0,0.0,14532,12424,11565,38463,35018,3
0.0,0.0,0.0,14801,12905,11503,38180,34518,3
0.0,0.0,0.0,14846,13068,11403,38341,34130,3
0.0,0.0,0.0,14891,13412,11317,38341,33337,3
0.0,0.0,0.0,14907,13343,11268,38544,32500,3
0.0,0.0,0.0,14876,13205,11231,38544,31785,3
0.0,0.0,0.0,15028,13150,11157,38503,31529,3
0.0,0.0,0.0,15490,13150,11157,38585,31497,3
0.0,0.0,0.0,15900,13260,11109,38422,31276,3
0.0,0.0,0.0,16271,13068,11084,38544,31025,3
0.0,0.0,0.0,16467,12905,11060,38503,30745,3
0.0,0.0,0.0,16450,12756,10987,38422,30622,3
0.0,0.0,0.0,16499,12690,10987,38341,30469,3
0.0,0.0,0.0,16483,12756,11133,38180,30962,3
0.0,0.0,0.0,16417,12824,11391,38382,32932,3
0.0,0.0,0.0,16450,12797,11428,38544,34696,3
0.0,0.0,0.0,16352,12797,11503,38341,36538,3
0.0,0.0,0.0,16189,12743,11528,38019,36767,3
0.0,0.0,0.0,16012,12743,11528,37940,37075,3
0.0,0.0,0.0,15916,12636,11528,37860,36767,3
0.0,0.0,0.0,15852,12583,11490,37820,35861,3
0.0,0.0,0.0,15710,12438,11528,38830,35127,3
0.0,0.0,0.0,15710,12398,11403,38707,34910,3
0.0,0.0,0.0,15932,12346,11255,38666,34412,3
0.0,0.0,0.0,15996,12320,11182,38220,34412,3
0.0,0.0,0.0,16189,12333,11157,37860,34235,3
0.0,0.0,0.0,16125,12320,11072,37583,33921,3
0.0,0.0,0.0,16125,12293,11060,37465,33236,3
0.0,0.0,0.0,16060,12280,11024,37465,32899,3
0.0,0.0,0.0,16028,12346,10963,37230,32500,3
0.0,0.0,0.0,16060,12424,10999,36843,32336,3
0.0,0.0,0.0,16093,12490,11255,36614,32369,3
0.0,0.0,0.0,16093,12530,11317,36614,32633,3
0.0,0.0,0.0,15932,12504,11366,36959,33337,3
0.0,0.0,0.0,15916,12543,11366,36843,33303,3
0.0,0.0,0.0,15789,12596,11416,36920,33100,3
0.0,0.0,0.0,15726,12610,11453,36805,32500,3
0.0,0.0,0.0,15678,12649,11453,36882,31913,3
0.0,0.0,0.0,15710,12703,11503,36348,31497,3
0.0,0.0,0.0,15773,12703,11478,35861,30530,3
0.0,0.0,0.0,15900,12716,11465,35272,29925,3
0.0,0.0,0.0,15900,12703,11465,35055,29895,3
0.0,0.0,0.0,15900,12770,11490,35055,29657,3
0.0,0.0,0.0,15948,12864,11478,35055,29627,3
0.0,0.0,0.0,15964,12918,11416,34946,29509,3
0.0,0.0,0.0,15964,13122,11379,34839,29450,3
0.0,0.0,0.0,15932,13301,11379,34874,29391,3
0.0,0.0,0.0,15932,13384,11354,34982,29450,3
0.0,0.0,0.0,15900,13426,11304,35127,29333,3
0.0,0.0,0.0,15852,13566,11231,35272,29274,3
0.0,0.0,0.0,15837,13357,11206,35345,29216,3
0.0,0.0,0.0,15726,13287,11109,35749,29100,3
0.0,0.0,0.0,15647,13122,11036,36010,29158,3
0.0,0.0,0.0,15521,12905,11012,36010,29071,3
0.0,0.0,0.0,15459,12864,11012,36085,29158,3
0.0,0.0,0.0,15397,12837,10987,36010,28927,3
0.0,0.0,0.0,15366,12851,10963,35898,28470,3
0.0,0.0,0.0,15288,12918,10963,35712,28022,3
0.0,0.0,0.0,15304,12918,10963,35492,27472,3
0.0,0.0,0.0,15350,12959,10915,35163,27310,3
0.0,0.0,0.0,15428,12959,10903,34982,27337,3
0.0,0.0,0.0,15475,12972,10867,34910,27418,3
0.0,0.0,0.0,15506,12905,10819,34874,27418,3
0.0,0.0,0.0,15521,12932,10819,34982,27364,3
0.0,0.0,0.0,15521,12986,10795,35055,27364,3
0.0,0.0,0.0,15459,13013,10807,35528,27283,3
0.0,0.0,0.0,15412,13013,10795,35712,27148,3
0.0,0.0,0.0,15428,12959,10783,35712,27122,3
0.0,0.0,0.0,15397,12905,10795,35787,26988,3
0.0,0.0,0.0,15397,12824,10771,35749,26829,3
0.0,0.0,0.0,15397,12716,10771,35639,26802,3
0.0,0.0,0.0,15397,12716,10771,35639,26723,3
0.0,0.0,0.0,15366,12716,10771,35602,26723,3
0.0,0.0,0.0,15366,12716,10771,35565,26723,3
0.0,0.0,0.0,15397,12690,10771,35639,26829,3
0.0,0.0,0.0,15537,12649,10771,35455,26829,3
0.0,0.0,0.0,15678,12556,10771,35418,26855,3
0.0,0.0,0.0,15647,12556,10748,35418,26829,3
0.0,0.0,0.0,15710,12543,10748,35236,26829,3
0.0,0.0,0.0,15773,12570,10724,35163,26749,3
0.0,0.0,0.0,15726,12583,10724,35091,26723,3
0.0,0.0,0.0,15694,12583,10724,35163,26670,3
0.0,0.0,0.0,15710,12543,10724,35163,26592,3
0.0,0.0,0.0,15710,12556,10724,35127,26670,3
0.0,0.0,0.0,15773,12543,10724,35163,26618,3
0.0,0.0,0.0,15773,12556,10724,35163,26697,3
0.0,0.0,0.0,15837,12543,10724,35163,26670,3
0.0,0.0,0.0,15868,12556,10724,35055,26644,3
0.0,0.0,0.0,15852,12596,10724,35163,26670,3
0.0,0.0,0.0,15852,12556,10700,35199,26618,3
0.0,0.0,0.0,15900,12583,10700,35163,26618,3
0.0,0.0,0.0,15868,12596,10724,35127,26618,3
0.0,0.0,0.0,15837,12583,10724,35199,26566,3
0.0,0.0,0.0,15868,12596,10724,35163,26566,3
0.0,0.0,0.0,15852,12610,10724,35163,26566,3
0.0,0.0,0.0,15837,12596,10724,35127,26461,3
0.0,0.0,0.0,15852,12610,10724,35163,26566,3
0.0,0.0,0.0,15837,12636,10700,35127,26513,3
0.0,0.0,0.0,15837,12649,10724,35091,26566,3
0.0,0.0,0.0,15837,12716,10724,35055,26618,3
0.0,0.0,0.0,15789,12690,10724,35091,26618,3
0.0,0.0,0.0,15789,12690,10724,35055,26566,3
0.0,0.0,0.0,15773,12663,10688,35091,26513,3
0.0,0.0,0.0,15789,12690,10700,35018,26539,3
0.0,0.0,0.0,15789,12703,10712,34982,26618,3
0.0,0.0,0.0,15773,12716,10748,35018,26566,3
0.0,0.0,0.0,15773,12716,10748,35018,26618,3
0.0,0.0,0.0,15773,12730,10724,34982,26670,3
0.0,0.0,0.0,15773,12743,10724,34982,26618,3
0.0,0.0,0.0,15789,12756,10724,34910,26644,3
0.0,0.0,0.0,15773,12770,10748,34982,26513,3
0.0,0.0,0.0,15773,12756,10724,34910,26566,3
0.0,0.0,0.0,15773,12797,10712,35127,26566,3
0.0,0.0,0.0,15741,12770,10724,35018,26513,3
0.0,0.0,0.0,15773,12783,10724,35018,26566,3
0.0,0.0,0.0,15773,12770,10724,35055,26618,3
0.0,0.0,0.0,15773,12770,10748,35127,26670,3
0.0,0.0,0.0,15710,12797,10724,35091,26670,3
0.0,0.0,0.0,15726,12756,10712,35127,26670,3
0.0,0.0,0.0,15741,12770,10724,35163,26644,3
0.0,0.0,0.0,15710,12770,10724,35127,26618,3
0.0,0.0,0.0,15710,12797,10724,35091,26618,3
0.0,0.0,0.0,15741,12797,10748,35272,26670,3
0.0,0.0,0.0,15710,12770,10724,35127,26723,3
0.0,0.0,0.0,15710,12756,10712,35418,26644,3
0.0,0.0,0.0,15678,12770,10771,35418,26618,3
0.0,0.0,0.0,15694,12797,10771,35418,26566,3
0.0,0.0,0.0,15710,12797,10771,35492,26566,3
0.0,0.0,0.0,15710,12783,10771,35309,26409,3
0.0,0.0,0.0,15726,12797,10748,35272,26566,3
0.0,0.0,0.0,15710,12824,10724,35199,26566,3
0.0,0.0,0.0,15726,12783,10748,35272,26670,3
0.0,0.0,0.0,15773,12810,10700,35309,26829,3
0.0,0.0,0.0,15773,12797,10724,35272,26802,3
0.0,0.0,0.0,15773,12797,10724,35272,26670,3
0.0,0.0,0.0,15741,12824,10748,35163,26618,3
0.0,0.0,0.0,15726,12743,10724,35163,26566,3
0.0,0.0,0.0,15757,12770,10724,35127,26566,3
0.0,0.0,0.0,15773,13027,10748,35199,26776,3
0.0,0.0,0.0,15773,13095,10724,35199,26802,3
0.0,0.0,0.0,15741,13177,10724,35382,26855,3
0.0,0.0,0.0,15773,13122,10724,35345,27041,3
0.0,0.0,0.0,15789,13068,10748,35272,26988,3
0.0,0.0,0.0,15789,13095,10724,35199,27041,3
0.0,0.0,0.0,15773,13054,10748,35199,27041,3
0.0,0.0,0.0,15821,13027,10748,35272,27068,3
0.0,0.0,0.0,15789,13068,10700,35199,26961,3
0.0,0.0,0.0,15868,13068,10771,35163,27041,3
0.0,0.0,0.0,15868,13040,10831,35055,27256,3
0.0,0.0,0.0,15900,12959,10819,34982,27095,3
0.0,0.0,0.0,15900,12959,10819,34910,27041,3
0.0,0.0,0.0,15916,12905,10819,34982,27148,3
0.0,0.0,0.0,15996,12905,10819,34910,27095,3
0.0,0.0,0.0,16093,12851,10771,34767,27095,3
0.0,0.0,0.0,16125,12824,10783,34624,26855,3
0.0,0.0,0.0,16093,12756,10783,34412,26802,3
0.0,0.0,0.0,16093,12743,10783,34518,26723,3
0.0,0.0,0.0,16060,12743,10795,34482,26670,3
0.0,0.0,0.0,15996,12743,10771,34412,26566,3
0.0,0.0,0.0,15964,12743,10783,34482,26566,3
0.0,0.0,0.0,16012,12743,10783,34412,26618,3
0.0,0.0,0.0,15996,12743,10771,34412,26644,3
0.0,0.0,0.0,16060,12716,10771,34412,26566,3
0.0,0.0,0.0,16060,12743,10771,34482,26618,3
0.0,0.0,0.0,16060,12743,10771,34553,26566,3
0.0,0.0,0.0,16222,12743,10748,34553,26513,3
0.0,0.0,0.0,16222,12756,10771,34553,26513,3
0.0,0.0,0.0,16238,12756,10748,34412,26566,3
0.0,0.0,0.0,16222,12770,10771,34412,26670,3
0.0,0.0,0.0,16206,12770,10771,34412,26566,3
0.0,0.0,0.0,16222,12783,10748,34412,26618,3
0.0,0.0,0.0,16352,12756,10748,34412,26723,3
0.0,0.0,0.0,16417,12824,10759,34412,26829,3
0.0,0.0,0.0,16385,12864,10748,34235,26776,3
0.0,0.0,0.0,16385,12959,10771,34271,26776,3
0.0,0.0,0.0,16385,12932,10819,34271,26749,3
0.0,0.0,0.0,16385,13068,10795,34271,26749,3
0.0,0.0,0.0,16352,13260,10819,34412,26776,3
0.0,0.0,0.0,16319,13510,10795,34482,26749,3
0.0,0.0,0.0,16336,13622,10795,34412,26829,3
0.0,0.0,0.0,16368,13622,10795,34482,26829,3
0.0,0.0,0.0,16632,13679,10783,34482,26908,3
0.0,0.0,0.0,16815,13792,10771,34412,26935,3
0.0,0.0,0.0,16815,13792,10795,34412,26988,3
0.0,0.0,0.0,16831,13735,10819,34447,27041,3
0.0,0.0,0.0,16765,14108,10771,34767,27095,3
0.0,0.0,0.0,16615,14326,10819,34839,27256,3
0.0,0.0,0.0,16615,14195,10819,34839,27202,3
0.0,0.0,0.0,16615,13384,10783,34839,27041,3
0.0,0.0,0.0,16549,12797,10819,34839,26988,3
0.0,0.0,0.0,16532,12864,10795,34839,26988,3
0.0,0.0,0.0,16549,13013,10819,34696,26961,3
0.0,0.0,0.0,16516,13136,10807,34731,26988,3
0.0,0.0,0.0,16516,13246,10819,34767,26935,3
0.0,0.0,0.0,16483,13454,10819,34767,26935,3
0.0,0.0,0.0,16499,13679,10819,34696,26882,3
0.0,0.0,0.0,16598,14108,10831,34803,27041,3
0.0,0.0,0.0,16615,14137,10867,34767,27041,3
0.0,0.0,0.0,16632,14326,10891,34731,27095,3
0.0,0.0,0.0,16681,14458,10891,34731,27068,3
0.0,0.0,0.0,16715,14607,10891,34731,26961,3
0.0,0.0,0.0,16798,14518,10879,34874,26961,3
0.0,0.0,0.0,16815,14503,10891,34696,26935,3
0.0,0.0,0.0,16748,14385,10867,34696,26935,3
0.0,0.0,0.0,16715,14311,10867,34696,26908,3
0.0,0.0,0.0,16748,14341,10963,34624,26935,3
0.0,0.0,0.0,16748,14562,11060,34553,26882,3
0.0,0.0,0.0,16781,14907,11109,34553,26882,3
0.0,0.0,0.0,16765,14997,11133,34482,26882,3
0.0,0.0,0.0,16765,15273,11121,34518,26882,3
0.0,0.0,0.0,16748,15089,11084,34482,26882,3
0.0,0.0,0.0,16681,14666,11060,34412,26723,3
0.0,0.0,0.0,16715,14562,11024,34376,26723,3
0.0,0.0,0.0,16715,14666,11048,34447,26723,3
0.0,0.0,0.0,16781,14876,11060,34376,26723,3
0.0,0.0,0.0,16815,15028,11109,34589,26776,3
0.0,0.0,0.0,16815,15135,11182,34341,26855,3
0.0,0.0,0.0,16815,15058,11133,34341,26829,3
0.0,0.0,0.0,16798,14846,11084,34235,26749,3
0.0,0.0,0.0,16681,13964,10987,34271,26697,3
0.0,0.0,0.0,16681,13566,10987,34271,26723,3
0.0,0.0,0.0,16615,13580,10963,34200,26618,3
0.0,0.0,0.0,16681,14021,10963,34200,26618,3
0.0,0.0,0.0,16698,14429,10987,34200,26644,3
0.0,0.0,0.0,16681,14786,10987,34130,26723,3
0.0,0.0,0.0,16681,14922,11012,34200,26723,3
0.0,0.0,0.0,16681,14952,10987,34130,26670,3
0.0,0.0,0.0,16681,14786,10975,34165,26618,3
0.0,0.0,0.0,16615,14666,10963,34095,26618,3
0.0,0.0,0.0,16648,14607,10963,34130,26618,3
0.0,0.0,0.0,16648,14547,10963,34165,26618,3
0.0,0.0,0.0,16615,14458,10927,34200,26566,3
0.0,0.0,0.0,16582,14399,10915,34271,26566,3
0.0,0.0,0.0,16565,14577,10915,34130,26670,3
0.0,0.0,0.0,16648,14253,10915,34095,26618,3
0.0,0.0,0.0,16582,14050,10915,34060,26618,3
0.0,0.0,0.0,16532,13849,10879,34026,26670,3
0.0,0.0,0.0,16499,13622,10867,34130,26566,3
0.0,0.0,0.0,16499,13343,10831,34026,26513,3
0.0,0.0,0.0,16450,13205,10783,33991,26513,3
0.0,0.0,0.0,16319,12986,10771,34060,26331,3
0.0,0.0,0.0,16417,12905,10748,33921,26409,3
0.0,0.0,0.0,16385,12864,10771,33921,26409,3
0.0,0.0,0.0,16385,12824,10748,33852,26409,3
0.0,0.0,0.0,16385,12797,10724,33852,26435,3
0.0,0.0,0.0,16352,12756,10724,33783,26461,3
0.0,0.0,0.0,16352,12743,10724,33748,26487,3
0.0,0.0,0.0,16254,12743,10676,33748,26513,3
0.0,0.0,0.0,16222,12797,10700,33714,26461,3
0.0,0.0,0.0,16254,12756,10688,33714,26566,3
0.0,0.0,0.0,16238,12703,10653,33679,26592,3
0.0,0.0,0.0,16238,12610,10676,33714,26566,3
0.0,0.0,0.0,16238,12424,10641,33645,26670,3
0.0,0.0,0.0,16222,12346,10629,33714,26697,3
0.0,0.0,0.0,16222,12346,10641,33645,26723,3
0.0,0.0,0.0,16222,12320,10629,33645,26670,3
0.0,0.0,0.0,16222,12320,10629,33714,26670,3
0.0,0.0,0.0,16238,12320,10629,33714,26670,3
0.0,0.0,0.0,16222,12372,10641,33714,26618,3
0.0,0.0,0.0,16319,12583,10688,33748,26670,3
0.0,0.0,0.0,16417,12959,10748,33852,26697,3
0.0,0.0,0.0,16401,13122,10771,33852,26723,3
0.0,0.0,0.0,16385,13122,10819,33921,26461,3
0.0,0.0,0.0,16417,13095,10819,33991,25894,3
0.0,0.0,0.0,16417,13122,10831,34026,25093,3
0.0,0.0,0.0,16385,13068,10831,34095,24438,3
0.0,0.0,0.0,16401,13068,10819,34026,24129,3
0.0,0.0,0.0,16352,13013,10819,33991,24034,3
0.0,0.0,0.0,16385,12999,10819,33991,24034,3
0.0,0.0,0.0,16385,12972,10819,33887,24366,3
0.0,0.0,0.0,16368,12959,10819,33748,25142,3
0.0,0.0,0.0,16352,12986,10795,33714,25591,3
0.0,0.0,0.0,16385,12905,10771,33714,26357,3
0.0,0.0,0.0,16483,13013,10759,33611,26988,3
0.0,0.0,0.0,16516,13013,10748,33611,27256,3
0.0,0.0,0.0,16549,12986,10748,33439,27175,3
0.0,0.0,0.0,16516,12986,10748,33439,27148,3
0.0,0.0,0.0,16516,12932,10724,33371,27148,3
0.0,0.0,0.0,16483,12918,10748,33337,27068,3
0.0,0.0,0.0,16467,12932,10724,33337,27068,3
0.0,0.0,0.0,16434,12905,10748,33337,27015,3
0.0,0.0,0.0,16434,12932,10724,33303,26988,3
0.0,0.0,0.0,16417,12905,10736,33303,27041,3
0.0,0.0,0.0,16434,12932,10724,33269,26988,3
0.0,0.0,0.0,16450,12932,10724,33269,27041,3
0.0,0.0,0.0,16434,12932,10724,33269,27041,3
0.0,0.0,0.0,16434,12945,10724,33168,26988,3
0.0,0.0,0.0,16434,12959,10724,33202,27041,3
0.0,0.0,0.0,16417,12918,10700,33236,27068,3
0.0,0.0,0.0,16401,12959,10748,33236,27229,3
0.0,0.0,0.0,16385,13177,10736,33269,27256,3
0.0,0.0,0.0,16368,13792,10748,33371,27310,3
0.0,0.0,0.0,16352,14108,10748,33371,27175,3
0.0,0.0,0.0,16385,13735,10748,33202,27175,3
0.0,0.0,0.0,16336,13177,10748,33168,27310,3
0.0,0.0,0.0,16352,13040,10748,33067,27175,3
0.0,0.0,0.0,16319,13081,10748,33100,27256,3
0.0,0.0,0.0,16287,13357,10783,33100,27148,3
0.0,0.0,0.0,16287,13921,10831,33100,27148,3
0.0,0.0,0.0,16254,13735,10819,33134,27148,3
0.0,0.0,0.0,16287,13232,10783,33033,27148,3
0.0,0.0,0.0,16287,13054,10855,33033,27148,3
0.0,0.0,0.0,16271,13081,10867,33067,27148,3
0.0,0.0,0.0,16254,13232,10879,33134,27175,3
0.0,0.0,0.0,16222,13398,10891,33100,27095,3
0.0,0.0,0.0,16238,13749,10867,33168,27148,3
0.0,0.0,0.0,16238,13566,10867,33134,27148,3
0.0,0.0,0.0,16238,13150,10867,33033,27041,3
0.0,0.0,0.0,16254,13040,10867,33168,27041,3
0.0,0.0,0.0,16222,13027,10831,33303,27041,3
0.0,0.0,0.0,16222,13343,10855,33303,27041,3
0.0,0.0,0.0,16189,13454,10867,33303,27041,3
0.0,0.0,0.0,16222,13260,10831,33236,27068,3
0.0,0.0,0.0,16222,13013,10855,33168,26961,3
0.0,0.0,0.0,16206,12905,10819,33168,27041,3
0.0,0.0,0.0,16173,13027,10831,33202,26988,3
0.0,0.0,0.0,16206,13122,10819,33303,26935,3
0.0,0.0,0.0,16222,13398,10843,33337,26935,3
0.0,0.0,0.0,16222,13482,10867,33303,27068,3
0.0,0.0,0.0,16173,13679,10843,33371,26935,3
0.0,0.0,0.0,16189,13260,10843,33236,26988,3
0.0,0.0,0.0,16206,13136,10831,33236,26988,3
0.0,0.0,0.0,16189,13232,10831,33202,27175,3
0.0,0.0,0.0,16189,13398,10819,33439,27175,3
0.0,0.0,0.0,16173,13566,10831,33405,27256,3
0.0,0.0,0.0,16189,13357,10843,33405,27175,3
0.0,0.0,0.0,16189,13150,10867,33236,27095,3
0.0,0.0,0.0,16173,13068,10867,33168,27041,3
0.0,0.0,0.0,16157,13232,10867,33202,27068,3
0.0,0.0,0.0,16173,13301,10867,33236,27148,3
0.0,0.0,0.0,16189,13274,10855,33168,27095,3
0.0,0.0,0.0,16189,13068,10879,33067,27041,3
0.0,0.0,0.0,16189,12986,10867,33100,26988,3
0.0,0.0,0.0,16157,13013,10867,33100,27041,3
0.0,0.0,0.0,16157,13371,10867,33168,27041,3
0.0,0.0,0.0,16189,13707,10915,33168,27041,3
0.0,0.0,0.0,16141,13650,10879,33134,27148,3
0.0,0.0,0.0,16157,13315,10879,33100,27256,3
0.0,0.0,0.0,16157,13122,10843,33033,27283,3
0.0,0.0,0.0,16157,12918,10819,32966,27256,3
0.0,0.0,0.0,16157,12878,10843,33033,27229,3
0.0,0.0,0.0,16125,12918,10843,32999,27148,3
0.0,0.0,0.0,16157,13412,10819,33067,27175,3
0.0,0.0,0.0,16125,13749,10831,33033,27122,3
0.0,0.0,0.0,16157,13878,10831,33033,27095,3
0.0,0.0,0.0,16093,13510,10819,32932,27041,3
0.0,0.0,0.0,16125,13232,10819,32899,27148,3
0.0,0.0,0.0,16173,13150,10819,32966,27068,3
0.0,0.0,0.0,16125,13232,10831,33033,27041,3
0.0,0.0,0.0,16157,13510,10843,33033,27068,3
0.0,0.0,0.0,16141,13849,10843,33067,27148,3
0.0,0.0,0.0,16125,13921,10855,33033,27095,3
0.0,0.0,0.0,16125,13906,10843,32966,27148,3
0.0,0.0,0.0,16141,13594,10819,32932,27015,3
0.0,0.0,0.0,16093,13371,10819,32866,27095,3
0.0,0.0,0.0,16125,13191,10819,32899,27041,3
0.0,0.0,0.0,16093,13013,10819,32832,26935,3
0.0,0.0,0.0,16125,12959,10819,32832,26961,3
0.0,0.0,0.0,16109,13177,10819,32899,27041,3
0.0,0.0,0.0,16109,13454,10843,32932,26988,3
0.0,0.0,0.0,16093,13892,10831,32899,26988,3
0.0,0.0,0.0,16125,14282,10831,32999,26961,3
0.0,0.0,0.0,16076,14341,10819,33033,27015,3
0.0,0.0,0.0,16093,13749,10807,33033,26988,3
0.0,0.0,0.0,16060,13315,10783,32966,27041,3
0.0,0.0,0.0,16028,13122,10795,32899,26961,3
0.0,0.0,0.0,16060,13040,10795,32899,26961,3
0.0,0.0,0.0,16028,13040,10795,32966,26988,3
0.0,0.0,0.0,16060,13636,10819,32999,26935,3
0.0,0.0,0.0,16028,14108,10807,32966,27041,3
0.0,0.0,0.0,16012,14268,10819,33033,27015,3
0.0,0.0,0.0,16060,13849,10795,32899,26961,3
0.0,0.0,0.0,16028,13315,10795,32966,26935,3
0.0,0.0,0.0,16028,13177,10795,32899,26935,3
0.0,0.0,0.0,15996,13205,10795,32932,26961,3
0.0,0.0,0.0,16028,13524,10819,32966,26935,3
0.0,0.0,0.0,16028,13978,10831,33033,26935,3
0.0,0.0,0.0,16060,14311,10819,33033,26988,3
0.0,0.0,0.0,16028,14311,10843,33033,26961,3
0.0,0.0,0.0,16028,13964,10843,33033,26935,3
0.0,0.0,0.0,15964,13566,10819,32899,26935,3
0.0,0.0,0.0,15996,13412,10819,32899,26935,3
0.0,0.0,0.0,16028,13371,10795,32932,26961,3
0.0,0.0,0.0,15980,13398,10819,32899,26961,3
0.0,0.0,0.0,15980,13454,10819,32899,26935,3
0.0,0.0,0.0,15996,14238,10795,33033,26935,3
0.0,0.0,0.0,15980,14488,10819,32999,26935,3
0.0,0.0,0.0,15996,14137,10807,32932,26882,3
0.0,0.0,0.0,16028,13693,10819,32932,26935,3
0.0,0.0,0.0,15964,13566,10819,32932,26935,3
0.0,0.0,0.0,15996,13566,10783,32899,26935,3
0.0,0.0,0.0,15996,13792,10795,32932,26961,3
0.0,0.0,0.0,15996,14253,10807,32932,26908,3
0.0,0.0,0.0,15980,14238,10819,32899,26935,3
0.0,0.0,0.0,15996,13821,10795,32899,26882,3
0.0,0.0,0.0,16012,13580,10783,32899,26802,3
0.0,0.0,0.0,15996,13566,10771,32899,26829,3
0.0,0.0,0.0,15980,13524,10771,32832,26829,3
0.0,0.0,0.0,15980,13468,10771,32832,26882,3
0.0,0.0,0.0,16028,13426,10771,32832,26749,3
0.0,0.0,0.0,16028,13398,10771,32932,26776,3
0.0,0.0,0.0,16012,13177,10771,32832,26776,3
0.0,0.0,0.0,15996,13136,10748,32765,26829,3
0.0,0.0,0.0,15980,13150,10748,32765,26829,3
0.0,0.0,0.0,15996,13122,10771,32699,26802,3
0.0,0.0,0.0,16028,13163,10771,32765,26776,3
0.0,0.0,0.0,16028,13510,10748,32699,26855,3
0.0,0.0,0.0,15980,13863,10771,32732,26829,3
0.0,0.0,0.0,16060,14195,10748,32699,26776,3
0.0,0.0,0.0,16028,14137,10748,32765,26829,3
0.0,0.0,0.0,16028,13978,10748,32633,26829,3
0.0,0.0,0.0,16060,13878,10748,32666,26935,3
0.0,0.0,0.0,16060,13792,10748,32633,26935,3
0.0,0.0,0.0,16060,13792,10748,32566,26988,3
0.0,0.0,0.0,16060,13510,10748,32633,26961,3
0.0,0.0,0.0,16093,13013,10700,32633,26988,3
0.0,0.0,0.0,16060,12851,10700,32533,26935,3
0.0,0.0,0.0,16093,12851,10700,32500,26882,3
0.0,0.0,0.0,16093,12945,10700,32500,26829,3
0.0,0.0,0.0,16060,13315,10688,32566,26829,3
0.0,0.0,0.0,16093,13315,10724,32369,26882,3
0.0,0.0,0.0,16060,13343,10700,32402,26908,3
0.0,0.0,0.0,16060,13594,10688,32566,26935,3
0.0,0.0,0.0,16060,14021,10724,32566,26988,3
0.0,0.0,0.0,15980,14282,10748,32533,27068,3
0.0,0.0,0.0,15980,14064,10748,32467,27068,3
0.0,0.0,0.0,15980,13849,10724,32435,27015,3
0.0,0.0,0.0,15980,13792,10724,32435,26961,3
0.0,0.0,0.0,15964,13622,10748,32402,26829,3
0.0,0.0,0.0,15932,13524,10748,32435,26829,3
0.0,0.0,0.0,15980,13538,10748,32369,26829,3
0.0,0.0,0.0,15996,13510,10724,32303,26776,3
0.0,0.0,0.0,15996,13315,10724,32238,26829,3
0.0,0.0,0.0,15980,13205,10724,32173,26829,3
0.0,0.0,0.0,15964,13122,10724,32173,26829,3
0.0,0.0,0.0,15980,13027,10724,32173,26829,3
0.0,0.0,0.0,15932,12999,10688,32075,26829,3
0.0,0.0,0.0,15932,12986,10712,32108,26776,3
0.0,0.0,0.0,15916,13693,10748,32108,26829,3
0.0,0.0,0.0,15900,13935,10771,32108,26882,3
0.0,0.0,0.0,15916,13863,10759,32108,26935,3
0.0,0.0,0.0,15916,13806,10771,32108,26908,3
0.0,0.0,0.0,15916,13749,10748,31978,26829,3
0.0,0.0,0.0,15900,13707,10748,31946,26829,3
0.0,0.0,0.0,15868,13679,10748,31978,26829,3
0.0,0.0,0.0,15900,13735,10748,31978,26829,3
0.0,0.0,0.0,15916,13735,10771,31978,26829,3
0.0,0.0,0.0,15916,13693,10748,31946,26855,3
0.0,0.0,0.0,15900,13679,10700,31978,26829,3
0.0,0.0,0.0,15916,13707,10748,31978,26829,3
0.0,0.0,0.0,15900,14021,10748,32043,26829,3
0.0,0.0,0.0,15900,14224,10771,32075,26749,3
0.0,0.0,0.0,15900,14532,10771,32108,26802,3
0.0,0.0,0.0,15900,14341,10771,32108,26829,3
0.0,0.0,0.0,15900,14195,10771,32010,26723,3
0.0,0.0,0.0,15900,14108,10748,31978,26776,3
0.0,0.0,0.0,15900,13978,10771,31913,26776,3
0.0,0.0,0.0,15884,13707,10748,31946,26829,3
0.0,0.0,0.0,15900,13454,10748,31849,26776,3
0.0,0.0,0.0,15868,13232,10748,31881,26723,3
0.0,0.0,0.0,15900,12918,10748,31849,26776,3
0.0,0.0,0.0,15868,12783,10724,31881,26723,3
0.0,0.0,0.0,15837,12756,10748,31849,26697,3
0.0,0.0,0.0,15852,12743,10724,31881,26723,3
0.0,0.0,0.0,15868,12851,10724,31849,26723,3
0.0,0.0,0.0,15868,13274,10748,31881,26749,3
0.0,0.0,0.0,15868,13707,10748,31946,26749,3
0.0,0.0,0.0,15884,14093,10748,31978,26697,3
0.0,0.0,0.0,15837,14007,10748,31946,26670,3
0.0,0.0,0.0,15868,13679,10748,31913,26670,3
0.0,0.0,0.0,15837,13246,10748,31913,26670,3
0.0,0.0,0.0,15852,13122,10748,31817,26618,3
0.0,0.0,0.0,15852,13040,10748,31849,26670,3
0.0,0.0,0.0,15837,12959,10748,31849,26723,3
0.0,0.0,0.0,15837,13027,10748,31881,26644,3
0.0,0.0,0.0,15837,13636,10748,31881,26644,3
0.0,0.0,0.0,15868,13566,10748,31785,26644,3
0.0,0.0,0.0,15868,13315,10759,31817,26618,3
0.0,0.0,0.0,15837,13027,10771,31785,26644,3
0.0,0.0,0.0,15837,12959,10748,31785,26618,3
0.0,0.0,0.0,15837,12918,10748,31849,26776,3
0.0,0.0,0.0,15837,13122,10771,31881,26776,3
0.0,0.0,0.0,15837,13232,10748,31849,26749,3
0.0,0.0,0.0,15789,13371,10748,31849,26670,3
0.0,0.0,0.0,15837,13343,10748,31785,26723,3
0.0,0.0,0.0,15837,13232,10748,31752,26670,3
0.0,0.0,0.0,15837,13095,10748,31720,26723,3
0.0,0.0,0.0,15837,13068,10771,31785,26723,3
0.0,0.0,0.0,15837,12999,10724,31785,26723,3
0.0,0.0,0.0,15837,12972,10748,31720,26723,3
0.0,0.0,0.0,15805,12959,10736,31593,26776,3
0.0,0.0,0.0,15789,12918,10724,31656,26935,3
0.0,0.0,0.0,15789,12851,10748,31656,26829,3
0.0,0.0,0.0,15789,12797,10748,31624,26802,3
0.0,0.0,0.0,15773,12851,10748,31593,26749,3
0.0,0.0,0.0,15837,12972,10759,31593,26776,3
0.0,0.0,0.0,15789,13260,10748,31593,26723,3
0.0,0.0,0.0,15789,13150,10795,31529,26855,3
0.0,0.0,0.0,15789,12918,10748,31561,26723,3
0.0,0.0,0.0,15773,12770,10771,31497,26697,3
0.0,0.0,0.0,15773,12703,10771,31593,26723,3
0.0,0.0,0.0,15789,12851,10771,31465,26723,3
0.0,0.0,0.0,15773,12932,10771,31529,26723,3
0.0,0.0,0.0,15789,13013,10771,31624,26618,3
0.0,0.0,0.0,15773,12905,10771,31529,26697,3
0.0,0.0,0.0,15773,12743,10771,31465,26670,3
0.0,0.0,0.0,15757,12690,10771,31465,26618,3
0.0,0.0,0.0,15726,12743,10759,31434,26592,3
0.0,0.0,0.0,15773,13177,10771,31593,26644,3
0.0,0.0,0.0,15773,13343,10748,31593,26592,3
0.0,0.0,0.0,15773,13136,10748,31593,26618,3
0.0,0.0,0.0,15741,12851,10748,31529,26618,3
0.0,0.0,0.0,15726,12770,10748,31497,26644,3
0.0,0.0,0.0,15741,12932,10748,31529,26592,3
0.0,0.0,0.0,15741,13260,10748,31593,26618,3
0.0,0.0,0.0,15741,13538,10771,31656,26618,3
0.0,0.0,0.0,15757,13398,10771,31624,26566,3
0.0,0.0,0.0,15741,13013,10748,31561,26618,3
0.0,0.0,0.0,15741,12810,10748,31529,26566,3
0.0,0.0,0.0,15726,12703,10748,31593,26644,3
0.0,0.0,0.0,15710,12690,10748,31529,26592,3
0.0,0.0,0.0,15710,12690,10748,31529,26592,3
0.0,0.0,0.0,15726,12690,10748,31529,26566,3
0.0,0.0,0.0,15710,12716,10748,31497,26566,3
0.0,0.0,0.0,15741,12797,10771,31465,26566,3
0.0,0.0,0.0,15757,12797,10771,31465,26566,3
0.0,0.0,0.0,15710,12797,10771,31497,26566,3
0.0,0.0,0.0,15726,12770,10771,31497,26513,3
0.0,0.0,0.0,15726,12743,10771,31529,26513,3
0.0,0.0,0.0,15710,12743,10771,31529,26539,3
0.0,0.0,0.0,15710,12770,10771,31497,26592,3
0.0,0.0,0.0,15726,12743,10759,31497,26618,3
0.0,0.0,0.0,15726,12743,10771,31370,26566,3
0.0,0.0,0.0,15726,12756,10748,31465,26566,3
0.0,0.0,0.0,15741,12756,10748,31465,26566,3
0.0,0.0,0.0,15710,12743,10748,31465,26566,3
0.0,0.0,0.0,15741,12756,10748,31465,26566,3
0.0,0.0,0.0,15726,12797,10748,31465,26592,3
0.0,0.0,0.0,15694,12783,10748,31465,26592,3
0.0,0.0,0.0,15710,12770,10748,31465,26644,3
0.0,0.0,0.0,15710,12743,10748,31529,26670,3
0.0,0.0,0.0,15741,12756,10748,31434,26697,3
0.0,0.0,0.0,15726,12756,10748,31497,26644,3
0.0,0.0,0.0,15741,12770,10748,31465,26618,3
0.0,0.0,0.0,15757,12797,10748,31402,26566,3
0.0,0.0,0.0,15741,12770,10748,31434,26644,3
0.0,0.0,0.0,15710,12743,10748,31465,26749,3
0.0,0.0,0.0,15726,12756,10724,31402,26749,3
0.0,0.0,0.0,15726,12743,10724,31497,26829,3
0.0,0.0,0.0,15741,12730,10700,31561,26961,3
0.0,0.0,0.0,15757,12743,10700,31561,26935,3
0.0,0.0,0.0,15789,12716,10700,31593,26829,3
0.0,0.0,0.0,15789,12716,10700,31465,26723,3
0.0,0.0,0.0,15773,12716,10700,31402,26776,3
0.0,0.0,0.0,15773,12716,10700,31465,26935,3
0.0,0.0,0.0,15757,12716,10700,31465,26988,3
0.0,0.0,0.0,15773,12716,10676,31465,26961,3
0.0,0.0,0.0,15773,12743,10688,31402,26988,3
0.0,0.0,0.0,15773,12797,10688,31339,26988,3
0.0,0.0,0.0,15726,12716,10676,31402,26935,3
0.0,0.0,0.0,15741,12743,10688,31370,26935,3
0.0,0.0,0.0,15741,12716,10688,31402,27041,3
0.0,0.0,0.0,15773,12690,10700,31402,27148,3
0.0,0.0,0.0,15773,12730,10700,31402,27148,3
0.0,0.0,0.0,15726,12716,10676,31465,27041,3
0.0,0.0,0.0,15741,12743,10676,31370,27041,3
0.0,0.0,0.0,15741,12703,10688,31402,27041,3
0.0,0.0,0.0,15757,12730,10676,31402,27041,3
0.0,0.0,0.0,15741,12703,10676,31370,27015,3
0.0,0.0,0.0,15741,12690,10700,31434,27041,3
0.0,0.0,0.0,15741,12716,10676,31465,27148,3
0.0,0.0,0.0,15741,12716,10676,31370,27041,3
0.0,0.0,0.0,15726,12743,10688,31402,27095,3
0.0,0.0,0.0,15741,12743,10700,31402,27041,3
0.0,0.0,0.0,15741,12716,10676,31402,27041,3
0.0,0.0,0.0,15773,12703,10700,31339,27015,3
0.0,0.0,0.0,15726,12716,10700,31339,26988,3
0.0,0.0,0.0,15741,12716,10700,31370,27148,3
0.0,0.0,0.0,15757,12743,10688,31339,27148,3
0.0,0.0,0.0,15757,12743,10676,31370,27175,3
0.0,0.0,0.0,15757,12703,10676,31402,27175,3
0.0,0.0,0.0,15710,12730,10676,31402,27148,3
0.0,0.0,0.0,15741,12690,10688,31339,27229,3
0.0,0.0,0.0,15726,12636,10676,31276,27148,3
0.0,0.0,0.0,15741,12543,10688,31307,27148,3
0.0,0.0,0.0,15741,12490,10676,31244,27148,3
0.0,0.0,0.0,15726,12530,10676,31213,27148,3
0.0,0.0,0.0,15726,12851,10700,31276,27148,3
0.0,0.0,0.0,15773,13150,10676,31339,27148,3
0.0,0.0,0.0,15741,13343,10700,31434,27148,3
0.0,0.0,0.0,15726,13357,10676,31339,27256,3
0.0,0.0,0.0,15726,13315,10676,31402,27229,3
0.0,0.0,0.0,15741,13246,10688,31402,27175,3
0.0,0.0,0.0,15773,13205,10676,31370,27148,3
0.0,0.0,0.0,15726,13150,10700,31370,27148,3
0.0,0.0,0.0,15773,13068,10688,31339,27148,3
0.0,0.0,0.0,15741,12972,10676,31276,27095,3
0.0,0.0,0.0,15710,12851,10688,31339,27122,3
0.0,0.0,0.0,15741,12797,10688,31213,27095,3
0.0,0.0,0.0,15773,12770,10676,31276,27041,3
0.0,0.0,0.0,15710,12770,10676,31213,27015,3
0.0,0.0,0.0,15726,12797,10700,31213,27068,3
0.0,0.0,0.0,15710,12824,10676,31213,27015,3
0.0,0.0,0.0,15710,13027,10688,31276,27148,3
0.0,0.0,0.0,15726,13068,10700,31339,27041,3
0.0,0.0,0.0,15710,13232,10724,31276,27095,3
0.0,0.0,0.0,15726,13371,10724,31370,27095,3
0.0,0.0,0.0,15741,13510,10748,31370,27122,3
0.0,0.0,0.0,15710,13566,10748,31402,27148,3
0.0,0.0,0.0,15726,13735,10771,31465,27041,3
0.0,0.0,0.0,15710,13792,10748,31465,27041,3
0.0,0.0,0.0,15710,13707,10759,31465,27068,3
0.0,0.0,0.0,15726,13482,10748,31402,27015,3
0.0,0.0,0.0,15710,13136,10748,31339,27041,3
0.0,0.0,0.0,15678,12810,10724,31213,26988,3
0.0,0.0,0.0,15710,12690,10748,31213,26961,3
0.0,0.0,0.0,15678,12649,10748,31150,26961,3
0.0,0.0,0.0,15663,12851,10724,31119,26935,3
0.0,0.0,0.0,15710,13287,10748,31244,26961,3
0.0,0.0,0.0,15710,13510,10736,31276,26935,3
0.0,0.0,0.0,15647,13426,10748,31213,27015,3
0.0,0.0,0.0,15663,13122,10736,31119,26988,3
0.0,0.0,0.0,15647,12986,10724,31181,26935,3
0.0,0.0,0.0,15710,12918,10724,31150,26988,3
0.0,0.0,0.0,15647,12905,10700,31087,26988,3
0.0,0.0,0.0,15647,12851,10724,31119,26961,3
0.0,0.0,0.0,15663,12851,10724,31150,26961,3
0.0,0.0,0.0,15663,12851,10724,31087,26988,3
0.0,0.0,0.0,15678,12851,10712,31087,26988,3
0.0,0.0,0.0,15678,12837,10700,31087,27041,3
0.0,0.0,0.0,15663,12851,10724,31025,26961,3
0.0,0.0,0.0,15663,12851,10712,31087,26961,3
0.0,0.0,0.0,15647,12851,10700,31087,26935,3
0.0,0.0,0.0,15663,12851,10700,31087,27041,3
0.0,0.0,0.0,15663,12810,10724,31087,26988,3
0.0,0.0,0.0,15694,12824,10712,31025,27068,3
0.0,0.0,0.0,15663,12851,10700,31087,26988,3
0.0,0.0,0.0,15663,12824,10712,31087,27041,3
0.0,0.0,0.0,15694,12851,10724,31087,27041,3
0.0,0.0,0.0,15678,12837,10700,31087,27122,3
0.0,0.0,0.0,15663,12824,10688,31150,27256,3
0.0,0.0,0.0,15678,12851,10724,31119,27175,3
0.0,0.0,0.0,15663,12824,10700,31087,27122,3
0.0,0.0,0.0,15678,12810,10700,31087,27068,3
0.0,0.0,0.0,15663,12797,10700,31087,26988,3
0.0,0.0,0.0,15678,12703,10676,31087,26961,3
0.0,0.0,0.0,15678,12690,10676,31025,27041,3
0.0,0.0,0.0,15663,12690,10676,31025,26988,3
0.0,0.0,0.0,15647,12649,10676,31056,26988,3
0.0,0.0,0.0,15647,12703,10676,31025,27041,3
0.0,0.0,0.0,15663,12864,10676,31150,27041,3
0.0,0.0,0.0,15678,12932,10676,31150,27041,3
0.0,0.0,0.0,15647,12972,10653,31150,27041,3
0.0,0.0,0.0,15663,13013,10653,31119,26961,3
0.0,0.0,0.0,15647,13013,10653,31119,26961,3
0.0,0.0,0.0,15663,12972,10653,31087,27041,3
0.0,0.0,0.0,15663,12972,10653,31087,27068,3
0.0,0.0,0.0,15647,12986,10676,31119,26988,3
0.0,0.0,0.0,15647,12972,10676,31087,27068,3
0.0,0.0,0.0,15647,12972,10653,31056,27095,3
0.0,0.0,0.0,15647,12972,10653,31087,27041,3
0.0,0.0,0.0,15647,13177,10653,31056,27095,3
0.0,0.0,0.0,15647,13274,10676,31119,27041,3
0.0,0.0,0.0,15678,13524,10676,31087,27095,3
0.0,0.0,0.0,15663,13622,10748,31181,27095,3
0.0,0.0,0.0,15663,12959,10748,31025,27041,3
0.0,0.0,0.0,15647,12346,10724,31087,27148,3
0.0,0.0,0.0,15663,12293,10724,31087,27148,3
0.0,0.0,0.0,15694,12851,10724,31056,27148,3
0.0,0.0,0.0,15710,13440,10700,31213,27148,3
0.0,0.0,0.0,15663,13594,10700,31213,27148,3
0.0,0.0,0.0,15710,13566,10700,31213,27229,3
0.0,0.0,0.0,15647,13566,10724,31244,27175,3
0.0,0.0,0.0,15663,13398,10688,31150,27095,3
0.0,0.0,0.0,15663,12972,10688,31150,27148,3
0.0,0.0,0.0,15631,12743,10688,31087,27068,3
0.0,0.0,0.0,15647,12864,10676,31056,27041,3
0.0,0.0,0.0,15663,13315,10676,31150,27095,3
0.0,0.0,0.0,15647,13622,10676,31213,27148,3
0.0,0.0,0.0,15663,13398,10653,31087,27068,3
0.0,0.0,0.0,15647,13013,10653,31087,27041,3
0.0,0.0,0.0,15647,12824,10641,31087,27041,3
0.0,0.0,0.0,15647,12810,10641,31087,27041,3
0.0,0.0,0.0,15647,13027,10676,31056,27095,3
0.0,0.0,0.0,15647,13150,10653,31087,27095,3
0.0,0.0,0.0,15663,13013,10653,31087,27122,3
0.0,0.0,0.0,15647,12583,10676,30962,27175,3
0.0,0.0,0.0,15615,12372,10676,30994,27256,3
0.0,0.0,0.0,15647,12359,10676,30900,27148,3
0.0,0.0,0.0,15631,12504,10676,30962,27229,3
0.0,0.0,0.0,15647,12878,10676,31025,27175,3
0.0,0.0,0.0,15647,13246,10676,31056,27229,3
0.0,0.0,0.0,15678,13371,10676,31087,27256,3
0.0,0.0,0.0,15647,13650,10653,31150,27256,3
0.0,0.0,0.0,15647,13622,10653,31087,27256,3
0.0,0.0,0.0,15647,13426,10641,31087,27202,3
0.0,0.0,0.0,15647,13013,10629,30962,27229,3
0.0,0.0,0.0,15615,12797,10629,30994,27256,3
0.0,0.0,0.0,15615,12824,10641,30994,27175,3
0.0,0.0,0.0,15615,13650,10653,31213,27364,3
0.0,0.0,0.0,15647,14021,10641,31150,27310,3
0.0,0.0,0.0,15615,13935,10653,31213,27364,3
0.0,0.0,0.0,15600,13287,10676,31025,27202,3
0.0,0.0,0.0,15615,12959,10641,30900,27202,3
0.0,0.0,0.0,15615,12918,10653,31025,27148,3
0.0,0.0,0.0,15647,13806,10664,31119,27310,3
0.0,0.0,0.0,15584,14108,10653,31150,27283,3
0.0,0.0,0.0,15615,13906,10676,31087,27256,3
0.0,0.0,0.0,15600,13468,10676,30994,27283,3
0.0,0.0,0.0,15615,13136,10653,30962,27202,3
0.0,0.0,0.0,15615,13122,10641,30962,27202,3
0.0,0.0,0.0,15600,13371,10676,30962,27256,3
0.0,0.0,0.0,15615,13707,10688,30900,27202,3
0.0,0.0,0.0,15615,13735,10676,30962,27175,3
0.0,0.0,0.0,15647,13650,10676,31025,27256,3
0.0,0.0,0.0,15694,13205,10664,31056,27364,3
0.0,0.0,0.0,15694,12932,10676,30962,27256,3
0.0,0.0,0.0,15710,12756,10676,30869,27148,3
0.0,0.0,0.0,15710,12770,10676,30776,27095,3
0.0,0.0,0.0,15663,13232,10724,30869,27122,3
0.0,0.0,0.0,15710,13566,10748,30900,27175,3
0.0,0.0,0.0,15694,13693,10724,30869,27095,3
0.0,0.0,0.0,15647,13398,10724,30807,27095,3
0.0,0.0,0.0,15663,13013,10688,30776,27148,3
0.0,0.0,0.0,15663,12891,10688,30715,27095,3
0.0,0.0,0.0,15663,13068,10688,30776,27041,3
0.0,0.0,0.0,15647,13679,10724,30838,27122,3
0.0,0.0,0.0,15647,13849,10748,30900,27068,3
0.0,0.0,0.0,15647,13792,10724,30962,27148,3
0.0,0.0,0.0,15553,13205,10724,30838,27095,3
0.0,0.0,0.0,15615,12864,10700,30776,27148,3
0.0,0.0,0.0,15600,12743,10700,30745,27122,3
0.0,0.0,0.0,15615,13205,10700,30715,27095,3
0.0,0.0,0.0,15631,14050,10724,30745,27068,3
0.0,0.0,0.0,15615,14311,10748,30684,27148,3
0.0,0.0,0.0,15615,13978,10724,30776,27148,3
0.0,0.0,0.0,15584,13191,10724,30745,27041,3
0.0,0.0,0.0,15615,12905,10724,30684,26988,3
0.0,0.0,0.0,15584,13013,10724,30715,27041,3
0.0,0.0,0.0,15600,13650,10724,30745,27095,3
0.0,0.0,0.0,15584,13978,10724,30745,27068,3
0.0,0.0,0.0,15600,13849,10724,30776,27041,3
0.0,0.0,0.0,15584,13150,10724,30745,27041,3
0.0,0.0,0.0,15584,12945,10748,30653,26988,3
0.0,0.0,0.0,15615,13013,10724,30684,27095,3
0.0,0.0,0.0,15615,13538,10724,30745,27041,3
0.0,0.0,0.0,15584,13978,10748,30807,27095,3
0.0,0.0,0.0,15584,13693,10748,30715,27095,3
0.0,0.0,0.0,15568,13371,10724,30715,27068,3
0.0,0.0,0.0,15600,13150,10724,30653,27068,3
0.0,0.0,0.0,15600,13081,10724,30591,27041,3
0.0,0.0,0.0,15584,13343,10724,30684,27095,3
0.0,0.0,0.0,15600,13496,10748,30715,27068,3
0.0,0.0,0.0,15615,13510,10724,30715,27041,3
0.0,0.0,0.0,15584,13679,10700,30745,27068,3
0.0,0.0,0.0,15584,13835,10748,30838,27095,3
0.0,0.0,0.0,15600,13863,10724,30776,27041,3
0.0,0.0,0.0,15615,13849,10724,30869,27175,3
0.0,0.0,0.0,15584,13749,10724,30869,27148,3
0.0,0.0,0.0,15600,13735,10748,30807,27202,3
0.0,0.0,0.0,15600,13749,10724,30900,27175,3
0.0,0.0,0.0,15584,13764,10724,30838,27148,3
0.0,0.0,0.0,15584,13792,10700,30900,27202,3
0.0,0.0,0.0,15584,13806,10724,30900,27148,3
0.0,0.0,0.0,15615,13792,10724,30900,27202,3
0.0,0.0,0.0,15615,13764,10724,30900,27202,3
0.0,0.0,0.0,15600,13792,10724,30900,27148,3
0.0,0.0,0.0,15615,13764,10724,30869,27202,3
0.0,0.0,0.0,15584,13735,10724,30900,27256,3
0.0,0.0,0.0,15615,13707,10724,30838,27148,3
0.0,0.0,0.0,15615,13792,10724,30838,27148,3
0.0,0.0,0.0,15615,13906,10724,30838,27229,3
0.0,0.0,0.0,15615,13978,10724,30869,27202,3
0.0,0.0,0.0,15615,14079,10700,30807,27148,3
0.0,0.0,0.0,15615,14079,10724,30838,27256,3
0.0,0.0,0.0,15647,14064,10724,30838,27202,3
0.0,0.0,0.0,15600,14021,10724,30807,27229,3
0.0,0.0,0.0,15647,13978,10724,30838,27256,3
0.0,0.0,0.0,15615,13964,10724,30838,27175,3
0.0,0.0,0.0,15584,13935,10712,30838,27256,3
0.0,0.0,0.0,15584,13906,10724,30838,27256,3
0.0,0.0,0.0,15615,13906,10724,30838,27256,3
0.0,0.0,0.0,15600,13935,10724,30838,27256,3
0.0,0.0,0.0,15615,13935,10700,30838,27310,3
0.0,0.0,0.0,15631,13906,10724,30807,27391,3
0.0,0.0,0.0,15647,13906,10700,30869,27418,3
0.0,0.0,0.0,15647,13906,10724,30838,27391,3
0.0,0.0,0.0,15647,13906,10724,30807,27418,3
0.0,0.0,0.0,15647,13906,10724,30838,27364,3
0.0,0.0,0.0,15647,13906,10724,30838,27310,3
0.0,0.0,0.0,15615,13892,10700,30776,27364,3
0.0,0.0,0.0,15615,13906,10688,30776,27391,3
0.0,0.0,0.0,15647,13935,10724,30745,27364,3
0.0,0.0,0.0,15647,13906,10712,30776,27364,3
0.0,0.0,0.0,15615,13906,10724,30776,27310,3
0.0,0.0,0.0,15584,13906,10700,30776,27310,3
0.0,0.0,0.0,15615,13906,10724,30745,27310,3
0.0,0.0,0.0,15600,13878,10700,30776,27310,3
0.0,0.0,0.0,15615,13878,10700,30776,27364,3
0.0,0.0,0.0,15584,13863,10724,30715,27337,3
0.0,0.0,0.0,15615,13878,10712,30776,27364,3
0.0,0.0,0.0,15647,13863,10724,30715,27256,3
0.0,0.0,0.0,15600,13863,10700,30745,27310,3
0.0,0.0,0.0,15615,13863,10700,30715,27337,3
0.0,0.0,0.0,15615,13849,10724,30776,27283,3
0.0,0.0,0.0,15615,13906,10700,30745,27364,3
0.0,0.0,0.0,15600,13849,10724,30715,27256,3
0.0,0.0,0.0,15615,13849,10700,30715,27364,3
0.0,0.0,0.0,15600,13878,10700,30715,27310,3
0.0,0.0,0.0,15615,13863,10724,30715,27283,3
0.0,0.0,0.0,15615,13849,10700,30715,27256,3
0.0,0.0,0.0,15600,13849,10712,30715,27283,3
0.0,0.0,0.0,15647,13849,10700,30715,27256,3
0.0,0.0,0.0,15615,13863,10700,30745,27283,3
0.0,0.0,0.0,15615,13849,10700,30653,27256,3
0.0,0.0,0.0,15631,13821,10688,30653,27256,3
0.0,0.0,0.0,15647,13806,10700,30653,27256,3
0.0,0.0,0.0,15647,13764,10700,30653,27256,3
0.0,0.0,0.0,15647,13679,10688,30653,27283,3
0.0,0.0,0.0,15647,13426,10688,30715,27283,3
0.0,0.0,0.0,15647,12986,10700,30715,27310,3
0.0,0.0,0.0,15647,12905,10688,30622,27310,3
0.0,0.0,0.0,15663,12918,10688,30653,27256,3
0.0,0.0,0.0,15615,13177,10676,30653,27337,3
0.0,0.0,0.0,15615,13510,10676,30715,27364,3
0.0,0.0,0.0,15647,13580,10688,30715,27310,3
0.0,0.0,0.0,15631,13398,10700,30684,27256,3
0.0,0.0,0.0,15663,13013,10724,30653,27364,3
0.0,0.0,0.0,15600,12770,10712,30622,27229,3
0.0,0.0,0.0,15615,12959,10700,30684,27256,3
0.0,0.0,0.0,15600,13594,10700,30962,27310,3
0.0,0.0,0.0,15584,13721,10700,30962,27310,3
0.0,0.0,0.0,15584,13792,10700,30962,27256,3
0.0,0.0,0.0,15584,13806,10688,30900,27310,3
0.0,0.0,0.0,15600,13821,10700,30962,27310,3
0.0,0.0,0.0,15584,13566,10688,30962,27256,3
0.0,0.0,0.0,15584,13191,10676,30869,27256,3
0.0,0.0,0.0,15584,12905,10700,30776,27256,3
0.0,0.0,0.0,15584,12797,10676,30745,27256,3
0.0,0.0,0.0,15584,13232,10700,30838,27256,3
0.0,0.0,0.0,15568,13978,10700,30900,27229,3
0.0,0.0,0.0,15584,14108,10712,30900,27256,3
0.0,0.0,0.0,15584,13707,10700,30869,27283,3
0.0,0.0,0.0,15584,13454,10724,30776,27283,3
0.0,0.0,0.0,15584,13524,10712,30900,27283,3
0.0,0.0,0.0,15584,13792,10700,30931,27310,3
0.0,0.0,0.0,15537,14079,10724,31025,27337,3
0.0,0.0,0.0,15584,14429,10724,31119,27391,3
0.0,0.0,0.0,15584,14370,10748,31087,27445,3
0.0,0.0,0.0,15584,14137,10724,30962,27418,3
0.0,0.0,0.0,15615,13735,10712,30931,27418,3
0.0,0.0,0.0,15568,13343,10700,30900,27418,3
0.0,0.0,0.0,15584,13205,10724,30807,27418,3
0.0,0.0,0.0,15584,13232,10724,30838,27364,3
0.0,0.0,0.0,15537,13566,10724,30869,27364,3
0.0,0.0,0.0,15553,14108,10724,30931,27364,3
0.0,0.0,0.0,15584,14268,10724,30900,27391,3
0.0,0.0,0.0,15568,13935,10724,30807,27364,3
0.0,0.0,0.0,15537,13287,10700,30745,27337,3
0.0,0.0,0.0,15553,13260,10724,30715,27337,3
0.0,0.0,0.0,15537,13935,10724,30838,27310,3
0.0,0.0,0.0,15553,14137,10724,30869,27337,3
0.0,0.0,0.0,15584,14224,10724,30869,27364,3
0.0,0.0,0.0,15584,14079,10724,30838,27283,3
0.0,0.0,0.0,15553,13821,10724,30807,27283,3
0.0,0.0,0.0,15568,13679,10700,30745,27337,3
0.0,0.0,0.0,15568,13679,10724,30715,27310,3
0.0,0.0,0.0,15600,14209,10724,30838,27256,3
0.0,0.0,0.0,15584,14786,10748,30900,27256,3
0.0,0.0,0.0,15584,14801,10748,30962,27202,3
0.0,0.0,0.0,15537,14547,10748,30962,27310,3
0.0,0.0,0.0,15553,13735,10724,30838,27310,3
0.0,0.0,0.0,15521,13371,10724,30776,27283,3
0.0,0.0,0.0,15537,13510,10712,30745,27256,3
0.0,0.0,0.0,15553,14108,10748,30776,27256,3
0.0,0.0,0.0,15521,14297,10748,30838,27229,3
0.0,0.0,0.0,15553,14282,10724,30776,27202,3
0.0,0.0,0.0,15521,13863,10748,30745,27256,3
0.0,0.0,0.0,15521,13693,10771,30715,27256,3
0.0,0.0,0.0,15521,13679,10771,30715,27283,3
0.0,0.0,0.0,15521,13679,10771,30715,27202,3
0.0,0.0,0.0,15521,13679,10771,30653,27283,3
0.0,0.0,0.0,15521,13650,10771,30653,27202,3
0.0,0.0,0.0,15506,13622,10748,30653,27310,3
0.0,0.0,0.0,15537,13622,10771,30622,27256,3
0.0,0.0,0.0,15506,13622,10748,30622,27256,3
0.0,0.0,0.0,15521,13580,10748,30591,27175,3
0.0,0.0,0.0,15521,13580,10748,30622,27202,3
0.0,0.0,0.0,15553,13566,10748,30653,27202,3
0.0,0.0,0.0,15553,13552,10724,30684,27310,3
0.0,0.0,0.0,15521,13524,10748,30653,27256,3
0.0,0.0,0.0,15521,13510,10748,30653,27256,3
0.0,0.0,0.0,15490,13454,10748,30653,27256,3
0.0,0.0,0.0,15490,13468,10724,30622,27202,3
0.0,0.0,0.0,15521,13468,10748,30653,27256,3
0.0,0.0,0.0,15521,13426,10724,30653,27175,3
0.0,0.0,0.0,15521,13398,10748,30653,27175,3
0.0,0.0,0.0,15521,13412,10688,30715,27229,3
0.0,0.0,0.0,15521,13371,10724,30715,27256,3
0.0,0.0,0.0,15521,13343,10748,30776,27202,3
0.0,0.0,0.0,15521,13287,10748,30745,27202,3
0.0,0.0,0.0,15506,13232,10712,30776,27256,3
0.0,0.0,0.0,15521,13068,10748,30715,27148,3
0.0,0.0,0.0,15475,12945,10724,30715,27175,3
0.0,0.0,0.0,15506,13068,10724,30745,27175,3
0.0,0.0,0.0,15521,13371,10724,30838,27256,3
0.0,0.0,0.0,15521,13566,10748,30838,27256,3
0.0,0.0,0.0,15584,13510,10748,30869,27229,3
0.0,0.0,0.0,15521,13343,10724,30776,27148,3
0.0,0.0,0.0,15521,13177,10748,30715,27256,3
0.0,0.0,0.0,15521,13027,10748,30684,27202,3
0.0,0.0,0.0,15537,13027,10748,30715,27229,3
0.0,0.0,0.0,15506,13524,10748,30838,27175,3
0.0,0.0,0.0,15521,14108,10759,30931,27256,3
0.0,0.0,0.0,15521,14311,10748,30900,27175,3
0.0,0.0,0.0,15537,14021,10748,30807,27229,3
0.0,0.0,0.0,15521,13398,10748,30715,27202,3
0.0,0.0,0.0,15490,13122,10748,30653,27175,3
0.0,0.0,0.0,15521,13068,10748,30591,27202,3
0.0,0.0,0.0,15521,13371,10748,30776,27256,3
0.0,0.0,0.0,15521,13978,10748,30900,27256,3
0.0,0.0,0.0,15490,13992,10724,30900,27310,3
0.0,0.0,0.0,15584,13343,10724,30653,27256,3
0.0,0.0,0.0,15506,12959,10748,30591,27310,3
0.0,0.0,0.0,15490,12905,10748,30653,27283,3
0.0,0.0,0.0,15521,13177,10748,30715,27283,3
0.0,0.0,0.0,15521,13622,10748,30838,27364,3
0.0,0.0,0.0,15490,13806,10748,30838,27310,3
0.0,0.0,0.0,15521,13650,10748,30776,27256,3
0.0,0.0,0.0,15521,13274,10748,30715,27310,3
0.0,0.0,0.0,15490,13177,10724,30715,27310,3
0.0,0.0,0.0,15506,13205,10736,30653,27283,3
0.0,0.0,0.0,15490,13343,10724,30715,27283,3
0.0,0.0,0.0,15475,13398,10724,30715,27256,3
0.0,0.0,0.0,15521,13454,10724,30745,27310,3
0.0,0.0,0.0,15490,13357,10700,30900,27310,3
0.0,0.0,0.0,15490,12905,10676,30900,27310,3
0.0,0.0,0.0,15490,12663,10676,30838,27283,3
0.0,0.0,0.0,15490,12517,10676,30776,27202,3
0.0,0.0,0.0,15490,12530,10676,30776,27283,3
0.0,0.0,0.0,15490,13095,10676,30745,27229,3
0.0,0.0,0.0,15475,13735,10688,30715,27256,3
0.0,0.0,0.0,15490,13935,10700,30869,27256,3
0.0,0.0,0.0,15506,14079,10676,30838,27256,3
0.0,0.0,0.0,15475,13964,10676,30869,27283,3
0.0,0.0,0.0,15475,13287,10676,30715,27229,3
0.0,0.0,0.0,15459,12959,10676,30622,27202,3
0.0,0.0,0.0,15459,13068,10676,30715,27229,3
0.0,0.0,0.0,15459,13650,10676,30838,27256,3
0.0,0.0,0.0,15475,14050,10676,30776,27202,3
0.0,0.0,0.0,15521,14399,10688,30900,27256,3
0.0,0.0,0.0,15475,14488,10688,30838,27175,3
0.0,0.0,0.0,15521,14311,10700,30745,27175,3
0.0,0.0,0.0,15490,13792,10748,30653,27148,3
0.0,0.0,0.0,15459,13398,10759,30591,27175,3
0.0,0.0,0.0,15459,13482,10783,30591,27148,3
0.0,0.0,0.0,15475,13693,10771,30653,27122,3
0.0,0.0,0.0,15490,14021,10771,30715,27175,3
0.0,0.0,0.0,15459,13935,10771,30715,27175,3
0.0,0.0,0.0,15459,13863,10748,30745,27148,3
0.0,0.0,0.0,15459,13792,10759,30776,27148,3
0.0,0.0,0.0,15459,13992,10748,30838,27148,3
0.0,0.0,0.0,15459,14108,10748,30776,27095,3
0.0,0.0,0.0,15459,14326,10748,30994,27148,3
0.0,0.0,0.0,15475,14429,10748,31025,27095,3
0.0,0.0,0.0,15490,14488,10748,31150,27148,3
0.0,0.0,0.0,15475,14518,10748,31150,27175,3
0.0,0.0,0.0,15490,14547,10748,31150,27148,3
0.0,0.0,0.0,15459,14607,10748,31150,27202,3
0.0,0.0,0.0,15475,14547,10748,31087,27148,3
0.0,0.0,0.0,15459,14503,10748,31087,27148,3
0.0,0.0,0.0,15459,14488,10748,31150,27175,3
0.0,0.0,0.0,15475,14429,10748,31087,27122,3
0.0,0.0,0.0,15459,14399,10748,30994,27148,3
0.0,0.0,0.0,15459,14370,10748,30994,27095,3
0.0,0.0,0.0,15475,14311,10748,30962,27095,3
0.0,0.0,0.0,15459,14268,10748,31056,27148,3
0.0,0.0,0.0,15459,14268,10748,30900,27095,3
0.0,0.0,0.0,15459,14253,10771,30962,27175,3
0.0,0.0,0.0,15475,14209,10748,30962,27095,3
0.0,0.0,0.0,15475,14209,10771,30931,27148,3
0.0,0.0,0.0,15475,14195,10771,30994,27095,3
0.0,0.0,0.0,15475,14195,10771,30900,27122,3
0.0,0.0,0.0,15459,14151,10748,30962,27148,3
0.0,0.0,0.0,15459,14166,10771,30869,27148,3
0.0,0.0,0.0,15475,14137,10748,30869,27068,3
0.0,0.0,0.0,15475,14108,10748,30900,27148,3
0.0,0.0,0.0,15475,14079,10748,30962,27068,3
0.0,0.0,0.0,15475,14036,10771,30869,27095,3
0.0,0.0,0.0,15459,13792,10724,30838,27122,3
0.0,0.0,0.0,15459,13679,10724,30776,27041,3
0.0,0.0,0.0,15443,13594,10724,30715,27095,3
0.0,0.0,0.0,15459,13538,10724,30776,27122,3
0.0,0.0,0.0,15459,13454,10724,30715,27068,3
0.0,0.0,0.0,15428,13426,10724,30715,27122,3
0.0,0.0,0.0,15459,13468,10724,30715,27095,3
0.0,0.0,0.0,15428,13510,10700,30715,27095,3
0.0,0.0,0.0,15412,13468,10724,30715,27148,3
0.0,0.0,0.0,15459,13398,10724,30715,27148,3
0.0,0.0,0.0,15428,13301,10724,30622,27148,3
0.0,0.0,0.0,15428,13232,10724,30653,27148,3
0.0,0.0,0.0,15475,13260,10724,30653,27122,3
0.0,0.0,0.0,15459,13246,10712,30653,27095,3
0.0,0.0,0.0,15412,13232,10724,30653,27095,3
0.0,0.0,0.0,15459,13246,10748,30684,27148,3
0.0,0.0,0.0,15459,13232,10724,30653,27122,3
0.0,0.0,0.0,15459,13232,10724,30622,27068,3
0.0,0.0,0.0,15459,13232,10748,30715,27148,3
0.0,0.0,0.0,15459,13232,10724,30591,27148,3
0.0,0.0,0.0,15443,13205,10724,30591,27148,3
0.0,0.0,0.0,15459,13232,10712,30622,27148,3
0.0,0.0,0.0,15412,13232,10724,30684,27202,3
0.0,0.0,0.0,15443,13232,10724,30622,27175,3
0.0,0.0,0.0,15428,13260,10700,30622,27175,3
0.0,0.0,0.0,15459,13232,10724,30622,27175,3
0.0,0.0,0.0,15428,13232,10700,30622,27148,3
0.0,0.0,0.0,15428,13205,10724,30653,27256,3
0.0,0.0,0.0,15459,13232,10748,30622,27148,3
0.0,0.0,0.0,15459,13205,10724,30591,27202,3
0.0,0.0,0.0,15428,13287,10748,30653,27256,3
0.0,0.0,0.0,15428,13177,10724,30622,27229,3
0.0,0.0,0.0,15412,13081,10688,30591,27175,3
0.0,0.0,0.0,15412,13068,10724,30591,27175,3
0.0,0.0,0.0,15397,13013,10748,30684,27283,3
0.0,0.0,0.0,15443,13027,10748,30715,27256,3
0.0,0.0,0.0,15428,13013,10759,30653,27256,3
0.0,0.0,0.0,15428,12986,10748,30653,27202,3
0.0,0.0,0.0,15412,12972,10748,30684,27202,3
0.0,0.0,0.0,15412,12972,10724,30622,27202,3
0.0,0.0,0.0,15412,13013,10724,30715,27256,3
0.0,0.0,0.0,15428,13068,10700,30715,27175,3
0.0,0.0,0.0,15412,13095,10688,30715,27202,3
0.0,0.0,0.0,15459,13081,10700,30715,27148,3
0.0,0.0,0.0,15428,13068,10688,30653,27175,3
0.0,0.0,0.0,15397,13068,10700,30715,27256,3
0.0,0.0,0.0,15412,13068,10700,30745,27445,3
0.0,0.0,0.0,15428,13040,10688,30869,27472,3
0.0,0.0,0.0,15428,13040,10700,30838,27472,3
0.0,0.0,0.0,15459,13068,10688,30715,27256,3
0.0,0.0,0.0,15490,13068,10700,30776,27068,3
0.0,0.0,0.0,15459,13068,10700,30653,26935,3
0.0,0.0,0.0,15459,13068,10700,30715,27041,3
0.0,0.0,0.0,15459,13040,10724,30715,27202,3
0.0,0.0,0.0,15428,13054,10688,30653,27229,3
0.0,0.0,0.0,15459,13027,10688,30684,27041,3
0.0,0.0,0.0,15490,13040,10700,30622,26988,3
0.0,0.0,0.0,15459,13040,10676,30653,27041,3
0.0,0.0,0.0,15459,13040,10712,30715,27202,3
0.0,0.0,0.0,15459,13013,10700,30745,27337,3
0.0,0.0,0.0,15459,13040,10700,30715,27256,3
0.0,0.0,0.0,15459,13068,10676,30530,27095,3
0.0,0.0,0.0,15521,13068,10712,30622,26961,3
0.0,0.0,0.0,15490,13068,10700,30530,27041,3
0.0,0.0,0.0,15490,13040,10688,30530,27041,3
0.0,0.0,0.0,15459,13040,10700,30591,27122,3
0.0,0.0,0.0,15475,13095,10688,30499,27148,3
0.0,0.0,0.0,15459,13068,10700,30530,26829,3
0.0,0.0,0.0,15521,13081,10724,30469,26670,3
0.0,0.0,0.0,15459,13068,10688,30530,26749,3
0.0,0.0,0.0,15475,13068,10700,30530,26723,3
0.0,0.0,0.0,15428,13068,10688,30530,26749,3
0.0,0.0,0.0,15459,13068,10712,30561,26749,3
0.0,0.0,0.0,15459,12959,10700,30469,26670,3
0.0,0.0,0.0,15475,12676,10748,30438,26670,3
0.0,0.0,0.0,15475,12676,10724,30347,26618,3
0.0,0.0,0.0,15459,12797,10712,30530,26644,3
0.0,0.0,0.0,15443,12918,10748,30653,26776,3
0.0,0.0,0.0,15443,13301,10724,30653,26670,3
0.0,0.0,0.0,15459,13205,10724,30561,26618,3
0.0,0.0,0.0,15459,13013,10724,30469,26618,3
0.0,0.0,0.0,15412,12797,10748,30408,26618,3
0.0,0.0,0.0,15428,12797,10748,30347,26618,3
0.0,0.0,0.0,15428,13040,10748,30591,26776,3
0.0,0.0,0.0,15459,13398,10748,30653,26776,3
0.0,0.0,0.0,15459,13398,10748,30561,26618,3
0.0,0.0,0.0,15412,13068,10748,30438,26618,3
0.0,0.0,0.0,15412,12959,10748,30469,26618,3
0.0,0.0,0.0,15428,12959,10748,30469,26618,3
0.0,0.0,0.0,15428,13122,10748,30499,26670,3
0.0,0.0,0.0,15428,13177,10748,30591,26644,3
0.0,0.0,0.0,15428,13343,10724,30530,26566,3
0.0,0.0,0.0,15397,13398,10724,30469,26618,3
0.0,0.0,0.0,15428,13260,10724,30408,26670,3
0.0,0.0,0.0,15428,12959,10724,30408,26618,3
0.0,0.0,0.0,15459,12905,10724,30469,26592,3
0.0,0.0,0.0,15663,13013,10700,30469,26566,3
0.0,0.0,0.0,15773,13232,10712,30469,26539,3
0.0,0.0,0.0,15773,13232,10724,30469,26566,3
0.0,0.0,0.0,15741,13232,10712,30469,26618,3
0.0,0.0,0.0,15710,13150,10700,30530,26618,3
0.0,0.0,0.0,15741,13040,10700,30530,26513,3
0.0,0.0,0.0,15710,12972,10688,30530,26566,3
0.0,0.0,0.0,15710,12959,10700,30530,26566,3
0.0,0.0,0.0,15726,12959,10700,30469,26513,3
0.0,0.0,0.0,15710,13013,10724,30469,26513,3
0.0,0.0,0.0,15773,13218,10700,30469,26618,3
0.0,0.0,0.0,15710,13260,10700,30408,26566,3
0.0,0.0,0.0,15710,13260,10700,30438,26513,3
0.0,0.0,0.0,15663,12918,10700,30438,26539,3
0.0,0.0,0.0,15694,12810,10724,30347,26513,3
0.0,0.0,0.0,15663,12810,10748,30347,26566,3
0.0,0.0,0.0,15647,13068,10748,30438,26461,3
0.0,0.0,0.0,15678,13301,10748,30438,26461,3
0.0,0.0,0.0,15647,13412,10700,30377,26461,3
0.0,0.0,0.0,15647,13260,10700,30377,26435,3
0.0,0.0,0.0,15647,13040,10724,30286,26513,3
0.0,0.0,0.0,15615,12864,10724,30286,26513,3
0.0,0.0,0.0,15647,12837,10748,30286,26566,3
0.0,0.0,0.0,15647,12972,10724,30347,26513,3
0.0,0.0,0.0,15647,13398,10748,30317,26409,3
0.0,0.0,0.0,15647,13580,10724,30377,26435,3
0.0,0.0,0.0,15647,13454,10712,30408,26409,3
0.0,0.0,0.0,15615,13122,10724,30226,26409,3
0.0,0.0,0.0,15584,12905,10748,30226,26513,3
0.0,0.0,0.0,15584,12905,10748,30256,26513,3
0.0,0.0,0.0,15615,13013,10748,30286,26487,3
0.0,0.0,0.0,15584,13095,10748,30226,26513,3
0.0,0.0,0.0,15615,13081,10724,30286,26487,3
0.0,0.0,0.0,15584,13068,10700,30226,26435,3
0.0,0.0,0.0,15584,13068,10748,30256,26513,3
0.0,0.0,0.0,15584,13068,10748,30165,26435,3
0.0,0.0,0.0,15584,13040,10748,30226,26409,3
0.0,0.0,0.0,15600,13040,10748,30286,26409,3
0.0,0.0,0.0,15584,13040,10748,30256,26513,3
0.0,0.0,0.0,15584,13027,10724,30256,26435,3
0.0,0.0,0.0,15584,13040,10748,30286,26409,3
0.0,0.0,0.0,15600,13027,10724,30226,26409,3
0.0,0.0,0.0,15584,13040,10748,30226,26461,3
0.0,0.0,0.0,15584,13054,10748,30286,26566,3
0.0,0.0,0.0,15615,13040,10748,30286,26487,3
0.0,0.0,0.0,15600,13013,10724,30347,26592,3
0.0,0.0,0.0,15615,12986,10724,30438,26670,3
0.0,0.0,0.0,15584,12999,10748,30408,26618,3
0.0,0.0,0.0,15553,13013,10748,30347,26618,3
0.0,0.0,0.0,15615,12999,10724,30347,26618,3
0.0,0.0,0.0,15615,13013,10724,30317,26513,3
0.0,0.0,0.0,15615,12972,10748,30347,26513,3
0.0,0.0,0.0,15600,12959,10748,30377,26461,3
0.0,0.0,0.0,15647,12959,10724,30347,26409,3
0.0,0.0,0.0,15647,12959,10736,30347,26409,3
0.0,0.0,0.0,15647,12905,10748,30347,26409,3
0.0,0.0,0.0,15631,12918,10724,30377,26202,3
0.0,0.0,0.0,15663,12932,10724,30377,26409,3
0.0,0.0,0.0,15647,13081,10724,30347,26305,3
0.0,0.0,0.0,15678,13191,10712,30438,26305,3
0.0,0.0,0.0,15710,13232,10724,30469,26305,3
0.0,0.0,0.0,15678,13205,10700,30469,26357,3
0.0,0.0,0.0,15678,13218,10724,30469,26409,3
0.0,0.0,0.0,15710,13177,10700,30469,26409,3
0.0,0.0,0.0,15678,13150,10712,30469,26357,3
0.0,0.0,0.0,15710,13150,10724,30469,26305,3
0.0,0.0,0.0,15741,13177,10724,30469,26305,3
0.0,0.0,0.0,15789,13177,10724,30499,26409,3
0.0,0.0,0.0,15773,13163,10700,30469,26357,3
0.0,0.0,0.0,15773,13136,10724,30469,26331,3
0.0,0.0,0.0,15773,13136,10724,30408,26305,3
0.0,0.0,0.0,15726,13122,10700,30377,26409,3
0.0,0.0,0.0,15773,13122,10700,30530,26513,3
0.0,0.0,0.0,15726,13150,10700,30530,26566,3
0.0,0.0,0.0,15741,13136,10676,30408,26566,3
0.0,0.0,0.0,15789,13122,10688,30530,26357,3
0.0,0.0,0.0,15837,13122,10700,30530,26202,3
0.0,0.0,0.0,15773,13081,10688,30561,26305,3
0.0,0.0,0.0,15773,13122,10688,30591,26513,3
0.0,0.0,0.0,15726,13068,10700,30653,26670,3
0.0,0.0,0.0,15710,13081,10700,30591,26670,3
0.0,0.0,0.0,15773,13081,10700,30622,26670,3
0.0,0.0,0.0,15805,13068,10712,30653,26618,3
0.0,0.0,0.0,15837,13081,10724,30653,26644,3
0.0,0.0,0.0,15900,13068,10700,30653,26618,3
0.0,0.0,0.0,15932,13081,10676,30622,26513,3
0.0,0.0,0.0,15900,13054,10688,30653,26592,3
0.0,0.0,0.0,15900,13068,10700,30622,26618,3
0.0,0.0,0.0,15932,13068,10700,30591,26566,3
0.0,0.0,0.0,15900,13068,10688,30591,26566,3
0.0,0.0,0.0,15868,13027,10700,30591,26513,3
0.0,0.0,0.0,15852,13040,10688,30530,26592,3
0.0,0.0,0.0,15852,13013,10676,30591,26566,3
0.0,0.0,0.0,15789,13068,10688,30591,26566,3
0.0,0.0,0.0,15773,13081,10688,30653,26566,3
0.0,0.0,0.0,15726,13095,10676,30715,26697,3
0.0,0.0,0.0,15710,13287,10700,30776,26670,3
0.0,0.0,0.0,15726,13246,10676,30776,26723,3
0.0,0.0,0.0,15710,13232,10688,30776,26723,3
0.0,0.0,0.0,15710,13205,10700,30715,26723,3
0.0,0.0,0.0,15678,13177,10688,30776,26697,3
0.0,0.0,0.0,15678,13177,10700,30715,26670,3
0.0,0.0,0.0,15663,13177,10700,30715,26670,3
0.0,0.0,0.0,15710,13177,10700,30715,26723,3
0.0,0.0,0.0,15663,13343,10676,30715,26749,3
0.0,0.0,0.0,15678,13343,10688,30653,26723,3
0.0,0.0,0.0,15678,13329,10700,30715,26723,3
0.0,0.0,0.0,15647,13343,10688,30715,26723,3
0.0,0.0,0.0,15678,13301,10688,30745,26723,3
0.0,0.0,0.0,15647,13287,10700,30745,26723,3
0.0,0.0,0.0,15663,13287,10688,30715,26670,3
0.0,0.0,0.0,15678,13287,10700,30653,26723,3
0.0,0.0,0.0,15694,13287,10700,30622,26566,3
0.0,0.0,0.0,15678,13287,10700,30591,26618,3
0.0,0.0,0.0,15678,13274,10700,30591,26566,3
0.0,0.0,0.0,15647,13260,10724,30530,26566,3
0.0,0.0,0.0,15663,13260,10700,30591,26566,3
0.0,0.0,0.0,15678,13260,10700,30591,26618,3
0.0,0.0,0.0,15663,13246,10700,30622,26618,3
0.0,0.0,0.0,15710,13260,10724,30591,26644,3
0.0,0.0,0.0,15663,13260,10700,30591,26566,3
0.0,0.0,0.0,15647,13260,10724,30653,26618,3
0.0,0.0,0.0,15663,13260,10700,30591,26566,3
0.0,0.0,0.0,15663,13232,10676,30591,26618,3
0.0,0.0,0.0,15663,13232,10700,30530,26566,3
0.0,0.0,0.0,15663,13232,10676,30591,26592,3
0.0,0.0,0.0,15647,13232,10688,30622,26618,3
0.0,0.0,0.0,15678,13232,10712,30561,26592,3
0.0,0.0,0.0,15663,13232,10700,30591,26566,3
0.0,0.0,0.0,15678,13232,10724,30591,26513,3
0.0,0.0,0.0,15663,13260,10700,30561,26566,3
0.0,0.0,0.0,15678,13232,10688,30530,26487,3
0.0,0.0,0.0,15647,13260,10700,30530,26566,3
0.0,0.0,0.0,15647,13205,10700,30530,26566,3
0.0,0.0,0.0,15647,13232,10700,30499,26566,3
0.0,0.0,0.0,15678,13232,10688,30530,26566,3
0.0,0.0,0.0,15663,13232,10700,30530,26539,3
0.0,0.0,0.0,15663,13232,10700,30561,26566,3
0.0,0.0,0.0,15663,13218,10724,30499,26513,3
0.0,0.0,0.0,15647,13191,10700,30530,26566,3
0.0,0.0,0.0,15647,13232,10712,30499,26513,3
0.0,0.0,0.0,15678,13177,10700,30530,26487,3
0.0,0.0,0.0,15647,13205,10688,30530,26487,3
0.0,0.0,0.0,15710,13232,10712,30469,26566,3
0.0,0.0,0.0,15678,13232,10700,30530,26513,3
0.0,0.0,0.0,15647,13177,10688,30591,26513,3
0.0,0.0,0.0,15647,13232,10700,30499,26487,3
0.0,0.0,0.0,15584,13205,10700,30591,26592,3
0.0,0.0,0.0,15678,13191,10688,30591,26566,3
0.0,0.0,0.0,15694,13205,10700,30530,26618,3
0.0,0.0,0.0,15678,13122,10700,30591,26592,3
0.0,0.0,0.0,15694,12959,10712,30530,26513,3
0.0,0.0,0.0,15647,12945,10688,30591,26566,3
0.0,0.0,0.0,15647,13040,10700,30591,26644,3
0.0,0.0,0.0,15663,13287,10724,30561,26618,3
0.0,0.0,0.0,15663,13301,10700,30591,26566,3
0.0,0.0,0.0,15647,13357,10724,30591,26566,3
0.0,0.0,0.0,15647,13398,10748,30653,26461,3
0.0,0.0,0.0,15647,13622,10748,30591,26461,3
0.0,0.0,0.0,15647,13735,10771,30653,26566,3
0.0,0.0,0.0,15553,13679,10748,30622,26513,3
0.0,0.0,0.0,15647,13679,10771,30530,26487,3
0.0,0.0,0.0,15615,13650,10771,30591,26409,3
0.0,0.0,0.0,15647,13693,10771,30591,26435,3
0.0,0.0,0.0,15647,14137,10795,30530,26357,3
0.0,0.0,0.0,15615,14036,10771,30561,26305,3
0.0,0.0,0.0,15631,13964,10748,30469,26357,3
0.0,0.0,0.0,15615,13454,10783,30530,26409,3
0.0,0.0,0.0,15584,13398,10807,30469,26409,3
0.0,0.0,0.0,15584,13205,10819,30469,26461,3
0.0,0.0,0.0,15584,13246,10843,30499,26513,3
0.0,0.0,0.0,15584,13287,10831,30530,26461,3
0.0,0.0,0.0,15584,13454,10855,30530,26461,3
0.0,0.0,0.0,15600,13538,10867,30622,26513,3
0.0,0.0,0.0,15600,13426,10831,30653,26513,3
0.0,0.0,0.0,15584,13343,10855,30622,26461,3
0.0,0.0,0.0,15584,13287,10843,30591,26409,3
0.0,0.0,0.0,15584,13232,10819,30530,26435,3
0.0,0.0,0.0,15584,13205,10819,30499,26513,3
0.0,0.0,0.0,15600,13205,10819,30499,26461,3
0.0,0.0,0.0,15615,13260,10819,30530,26435,3
0.0,0.0,0.0,15584,13218,10807,30530,26435,3
0.0,0.0,0.0,15600,13218,10819,30530,26409,3
0.0,0.0,0.0,15584,13232,10819,30499,26435,3
0.0,0.0,0.0,15584,13205,10819,30469,26409,3
0.0,0.0,0.0,15584,13205,10819,30469,26461,3
0.0,0.0,0.0,15615,13205,10795,30469,26435,3
0.0,0.0,0.0,15600,13191,10819,30469,26409,3
0.0,0.0,0.0,15584,13177,10795,30469,26409,3
0.0,0.0,0.0,15584,13191,10795,30469,26435,3
0.0,0.0,0.0,15584,13177,10819,30469,26435,3
0.0,0.0,0.0,15584,13177,10771,30469,26409,3
0.0,0.0,0.0,15600,13177,10795,30499,26461,3
0.0,0.0,0.0,15600,13191,10771,30469,26513,3
0.0,0.0,0.0,15600,13205,10819,30469,26435,3
0.0,0.0,0.0,15615,13177,10771,30469,26383,3
0.0,0.0,0.0,15600,13177,10795,30408,26383,3
0.0,0.0,0.0,15584,13191,10795,30469,26331,3
0.0,0.0,0.0,15584,13177,10795,30438,26357,3
0.0,0.0,0.0,15600,13177,10795,30408,26409,3
0.0,0.0,0.0,15584,13177,10771,30530,26461,3
0.0,0.0,0.0,15584,13177,10795,30591,26461,3
0.0,0.0,0.0,15584,13205,10795,30530,26513,3
0.0,0.0,0.0,15600,13177,10819,30561,26513,3
0.0,0.0,0.0,15584,13191,10795,30530,26461,3
0.0,0.0,0.0,15600,13191,10795,30530,26409,3
0.0,0.0,0.0,15584,13191,10771,30469,26357,3
0.0,0.0,0.0,15600,13177,10795,30469,26357,3
0.0,0.0,0.0,15584,13177,10783,30469,26331,3
0.0,0.0,0.0,15584,13177,10795,30408,26305,3
0.0,0.0,0.0,15584,13150,10795,30469,26409,3
0.0,0.0,0.0,15584,13163,10783,30408,26409,3
0.0,0.0,0.0,15584,13177,10783,30469,26435,3
0.0,0.0,0.0,15584,13177,10783,30469,26487,3
0.0,0.0,0.0,15584,13150,10795,30591,26566,3
0.0,0.0,0.0,15584,13177,10795,30469,26461,3
0.0,0.0,0.0,15615,13191,10795,30469,26435,3
0.0,0.0,0.0,15600,13177,10771,30530,26383,3
0.0,0.0,0.0,15584,12878,10771,30499,26513,3
0.0,0.0,0.0,15584,12730,10748,30499,26409,3
0.0,0.0,0.0,15600,13081,10748,30591,26461,3
0.0,0.0,0.0,15615,13412,10771,30561,26513,3
0.0,0.0,0.0,15600,13821,10771,30653,26409,3
0.0,0.0,0.0,15584,13863,10748,30715,26409,3
0.0,0.0,0.0,15615,13764,10748,30715,26409,3
0.0,0.0,0.0,15584,13150,10759,30622,26409,3
0.0,0.0,0.0,15553,12636,10771,30469,26435,3
0.0,0.0,0.0,15553,12663,10771,30530,26487,3
0.0,0.0,0.0,15568,13792,10748,30653,26409,3
0.0,0.0,0.0,15584,14253,10783,30715,26409,3
0.0,0.0,0.0,15553,13792,10771,30622,26357,3
0.0,0.0,0.0,15553,13329,10748,30530,26357,3
0.0,0.0,0.0,15521,13246,10748,30561,26331,3
0.0,0.0,0.0,15553,13150,10771,30438,26383,3
0.0,0.0,0.0,15553,13122,10748,30499,26357,3
0.0,0.0,0.0,15553,13122,10771,30438,26357,3
0.0,0.0,0.0,15584,13260,10748,30499,26331,3
0.0,0.0,0.0,15537,13260,10771,30745,26409,3
0.0,0.0,0.0,15553,13232,10748,30745,26331,3
0.0,0.0,0.0,15553,13177,10748,30715,26357,3
0.0,0.0,0.0,15553,13122,10748,30776,26409,3
0.0,0.0,0.0,15553,13027,10748,30715,26409,3
0.0,0.0,0.0,15553,13013,10748,30653,26357,3
0.0,0.0,0.0,15537,13013,10748,30653,26409,3
0.0,0.0,0.0,15537,12986,10748,30622,26409,3
0.0,0.0,0.0,15521,13013,10724,30591,26331,3
0.0,0.0,0.0,15521,13068,10748,30591,26383,3
0.0,0.0,0.0,15521,13343,10748,30561,26331,3
0.0,0.0,0.0,15521,13650,10748,30591,26409,3
0.0,0.0,0.0,15537,13679,10748,30591,26409,3
0.0,0.0,0.0,15521,13454,10748,30591,26305,3
0.0,0.0,0.0,15521,13027,10748,30377,26331,3
0.0,0.0,0.0,15521,12878,10748,30530,26331,3
0.0,0.0,0.0,15521,12837,10748,30469,26305,3
0.0,0.0,0.0,15521,13122,10748,30499,26409,3
0.0,0.0,0.0,15521,13510,10748,30591,26228,3
