GyroX,GyroY,GyroZ,Thumb,Index,Middle,Ring,Pinky,Gesture
0.0,0.0,0.0,15089,10963,32932,38019,37900,2
0.0,0.0,0.0,15089,10975,32832,38019,37820,2
0.0,0.0,0.0,15058,10963,32899,37900,37781,2
0.0,0.0,0.0,15058,10987,32832,37860,37701,2
0.0,0.0,0.0,15028,10975,32832,37860,37701,2
0.0,0.0,0.0,15043,10987,32832,37781,37701,2
0.0,0.0,0.0,15058,10987,32765,37781,37583,2
0.0,0.0,0.0,15028,10975,32765,37741,37583,2
0.0,0.0,0.0,15058,10975,32765,37741,37622,2
0.0,0.0,0.0,15028,10975,32765,37701,37504,2
0.0,0.0,0.0,15028,10987,32666,37662,37543,2
0.0,0.0,0.0,15028,10999,32699,37701,37543,2
0.0,0.0,0.0,15028,11012,32633,37741,37504,2
0.0,0.0,0.0,15028,11012,32566,37701,37426,2
0.0,0.0,0.0,15028,10999,32633,37662,37386,2
0.0,0.0,0.0,14967,11012,32566,37781,37347,2
0.0,0.0,0.0,14982,10999,32500,37701,37269,2
0.0,0.0,0.0,14967,10987,32500,37583,37230,2
0.0,0.0,0.0,14982,10999,32500,37622,37230,2
0.0,0.0,0.0,14997,11012,32467,37543,37230,2
0.0,0.0,0.0,14997,11012,32435,37465,37308,2
0.0,0.0,0.0,14982,11012,32369,37543,37230,2
0.0,0.0,0.0,14967,11012,32369,37465,37230,2
0.0,0.0,0.0,14997,11012,32435,37426,37152,2
0.0,0.0,0.0,14982,11012,32369,37543,37152,2
0.0,0.0,0.0,14997,11012,32303,37465,37114,2
0.0,0.0,0.0,14967,11012,32303,37347,37191,2
0.0,0.0,0.0,14967,11012,32271,37386,37075,2
0.0,0.0,0.0,14967,11024,32238,37308,37152,2
0.0,0.0,0.0,14967,11012,32238,37308,37075,2
0.0,0.0,0.0,14967,11012,32271,37347,37114,2
0.0,0.0,0.0,14937,11012,32238,37269,37075,2
0.0,0.0,0.0,14952,11036,32140,37230,36998,2
0.0,0.0,0.0,14967,11012,32140,37230,37036,2
0.0,0.0,0.0,14967,11012,32108,37230,36998,2
0.0,0.0,0.0,14967,11012,32075,37152,36920,2
0.0,0.0,0.0,14922,11012,32043,37230,36998,2
0.0,0.0,0.0,14937,11012,32043,37152,36959,2
0.0,0.0,0.0,14952,11024,32010,37114,36920,2
0.0,0.0,0.0,14922,11012,32010,37075,36805,2
0.0,0.0,0.0,14922,11012,32010,37075,36998,2
0.0,0.0,0.0,14907,11012,31978,37075,36882,2
0.0,0.0,0.0,14907,11012,32010,37036,36920,2
0.0,0.0,0.0,14907,11024,31978,36920,36882,2
0.0,0.0,0.0,14876,11012,31913,36959,36920,2
0.0,0.0,0.0,14907,11012,31881,36843,36843,2
0.0,0.0,0.0,14907,11012,31881,36920,36767,2
0.0,0.0,0.0,14907,11012,31881,36843,36805,2
0.0,0.0,0.0,14907,11060,31849,36843,36767,2
0.0,0.0,0.0,14907,11133,31849,36998,36805,2
0.0,0.0,0.0,14907,11133,31785,36805,36805,2
0.0,0.0,0.0,14876,11157,31849,36843,36728,2
0.0,0.0,0.0,14891,11182,31785,36882,36690,2
0.0,0.0,0.0,14846,11206,31752,36728,36576,2
0.0,0.0,0.0,14861,11096,31752,36767,36576,2
0.0,0.0,0.0,14846,11060,31720,36767,36614,2
0.0,0.0,0.0,14861,11048,31593,36690,36499,2
0.0,0.0,0.0,14846,11060,31624,36690,36462,2
0.0,0.0,0.0,14846,11133,31624,36538,36348,2
0.0,0.0,0.0,14816,11268,31561,36614,36085,2
0.0,0.0,0.0,14801,11243,31465,36462,36010,2
0.0,0.0,0.0,14801,11109,31465,36348,35935,2
0.0,0.0,0.0,14816,11060,31497,36235,36010,2
0.0,0.0,0.0,14801,11060,31465,36310,35861,2
0.0,0.0,0.0,14846,11012,31434,36272,35935,2
0.0,0.0,0.0,14801,11036,31402,36160,35824,2
0.0,0.0,0.0,14786,11012,31434,36197,35749,2
0.0,0.0,0.0,14801,11024,31339,36160,35787,2
0.0,0.0,0.0,14786,11012,31402,36160,35861,2
0.0,0.0,0.0,14786,11012,31339,36122,35639,2
0.0,0.0,0.0,14786,11024,31339,36047,35749,2
0.0,0.0,0.0,14801,11012,31276,36160,35712,2
0.0,0.0,0.0,14786,11012,31307,36122,35712,2
0.0,0.0,0.0,14786,11024,31276,36160,35712,2
0.0,0.0,0.0,14756,11036,31276,36047,35712,2
0.0,0.0,0.0,14756,11012,31244,36010,35712,2
0.0,0.0,0.0,14771,11024,31244,36010,35602,2
0.0,0.0,0.0,14786,11036,31213,36010,35565,2
0.0,0.0,0.0,14756,11012,31213,36010,35639,2
0.0,0.0,0.0,14786,11012,31213,36047,35602,2
0.0,0.0,0.0,14786,11012,31213,36010,35602,2
0.0,0.0,0.0,14741,11036,31276,36010,35528,2
0.0,0.0,0.0,14786,11012,31150,36010,35565,2
0.0,0.0,0.0,14756,11024,31213,36047,35492,2
0.0,0.0,0.0,14756,11036,31213,36010,35565,2
0.0,0.0,0.0,14741,11024,31181,35935,35492,2
0.0,0.0,0.0,14771,11024,31181,35898,35602,2
0.0,0.0,0.0,14741,11024,31213,35972,35565,2
0.0,0.0,0.0,14771,11036,31181,35898,35528,2
0.0,0.0,0.0,14756,11048,31150,36010,35418,2
0.0,0.0,0.0,14726,11012,31150,36010,35455,2
0.0,0.0,0.0,14741,10975,31150,35935,35455,2
0.0,0.0,0.0,14756,10963,31244,36010,35565,2
0.0,0.0,0.0,14756,10975,31213,36010,35492,2
0.0,0.0,0.0,14756,10963,31150,35935,35565,2
0.0,0.0,0.0,14756,10963,31087,36010,35492,2
0.0,0.0,0.0,14756,10963,31025,35972,35455,2
0.0,0.0,0.0,14756,11024,31025,35861,35528,2
0.0,0.0,0.0,14696,11157,31025,35787,35492,2
0.0,0.0,0.0,14726,11194,30994,35861,35455,2
0.0,0.0,0.0,14741,11231,30962,35787,35418,2
0.0,0.0,0.0,14726,11255,30962,35749,35418,2
0.0,0.0,0.0,14711,11280,30962,35787,35309,2
0.0,0.0,0.0,14726,11268,30931,35787,35382,2
0.0,0.0,0.0,14726,11268,30869,35749,35455,2
0.0,0.0,0.0,14726,11255,30869,35712,35345,2
0.0,0.0,0.0,14726,11231,30838,35787,35163,2
0.0,0.0,0.0,14711,11231,30838,35712,35382,2
0.0,0.0,0.0,14711,11219,30838,35712,35309,2
0.0,0.0,0.0,14726,11170,30776,35565,35345,2
0.0,0.0,0.0,14726,11182,30838,35639,35345,2
0.0,0.0,0.0,14741,11182,30745,35565,35309,2
0.0,0.0,0.0,14696,11206,30745,35712,35272,2
0.0,0.0,0.0,14696,11255,30745,35712,35163,2
0.0,0.0,0.0,14726,11255,30745,35565,35272,2
0.0,0.0,0.0,14726,11219,30715,35602,35272,2
0.0,0.0,0.0,14726,11121,30715,35639,35309,2
0.0,0.0,0.0,14726,11084,30684,35565,35272,2
0.0,0.0,0.0,14726,11084,30715,35565,35163,2
0.0,0.0,0.0,14726,11060,30653,35492,35236,2
0.0,0.0,0.0,14726,11060,30622,35492,35309,2
0.0,0.0,0.0,14726,11060,30591,35492,35309,2
0.0,0.0,0.0,14726,11072,30591,35492,35236,2
0.0,0.0,0.0,14756,11109,30653,35565,35236,2
0.0,0.0,0.0,14771,11121,30622,35418,35199,2
0.0,0.0,0.0,14681,11096,30591,35418,35163,2
0.0,0.0,0.0,14726,11121,30591,35418,35163,2
0.0,0.0,0.0,14726,11109,30591,35492,35127,2
0.0,0.0,0.0,14756,11109,30591,35418,35199,2
0.0,0.0,0.0,14786,11072,30622,35455,35163,2
0.0,0.0,0.0,14756,11024,30591,35418,35163,2
0.0,0.0,0.0,14786,10987,30591,35418,35236,2
0.0,0.0,0.0,14756,10963,30591,35492,35163,2
0.0,0.0,0.0,14696,10927,30591,35492,35018,2
0.0,0.0,0.0,14681,10939,30591,35272,34910,2
0.0,0.0,0.0,14681,10915,30591,35272,34982,2
0.0,0.0,0.0,14696,10891,30469,35236,34910,2
0.0,0.0,0.0,14696,10915,30499,35163,34910,2
0.0,0.0,0.0,14681,10891,30469,35127,34874,2
0.0,0.0,0.0,14696,10915,30499,35055,34874,2
0.0,0.0,0.0,14666,10915,30469,35236,34767,2
0.0,0.0,0.0,14696,10915,30408,35055,34767,2
0.0,0.0,0.0,14666,10915,30408,35018,34767,2
0.0,0.0,0.0,14681,11084,30347,34982,34874,2
0.0,0.0,0.0,14666,11255,30286,34946,34803,2
0.0,0.0,0.0,14666,11170,30286,35018,34731,2
0.0,0.0,0.0,14696,11109,30256,34910,34803,2
0.0,0.0,0.0,14696,11072,30226,34910,34660,2
0.0,0.0,0.0,14711,10975,30256,34839,34624,2
0.0,0.0,0.0,14726,10927,30226,34910,34624,2
0.0,0.0,0.0,14726,10891,30226,34839,34731,2
0.0,0.0,0.0,14711,10879,30226,34910,34624,2
0.0,0.0,0.0,14726,10891,30165,34839,34696,2
0.0,0.0,0.0,14681,10963,30165,34767,34589,2
0.0,0.0,0.0,14666,11157,30105,34696,34553,2
0.0,0.0,0.0,14666,11280,30165,34767,34589,2
0.0,0.0,0.0,14666,11304,30135,34767,34447,2
0.0,0.0,0.0,14651,11255,30075,34731,34482,2
0.0,0.0,0.0,14666,11157,30045,34696,34553,2
0.0,0.0,0.0,14666,11109,30015,34696,34447,2
0.0,0.0,0.0,14666,11024,29984,34696,34553,2
0.0,0.0,0.0,14666,10963,30045,34624,34553,2
0.0,0.0,0.0,14621,10975,30045,34696,34482,2
0.0,0.0,0.0,14666,10963,30015,34696,34482,2
0.0,0.0,0.0,14666,10963,29984,34624,34518,2
0.0,0.0,0.0,14666,10963,29984,34731,34341,2
0.0,0.0,0.0,14636,10927,30045,34696,34412,2
0.0,0.0,0.0,14636,10963,30105,34731,34482,2
0.0,0.0,0.0,14666,10915,30105,34696,34482,2
0.0,0.0,0.0,14651,10915,30105,34696,34482,2
0.0,0.0,0.0,14666,10891,30165,34767,34447,2
0.0,0.0,0.0,14666,10891,30226,34803,34553,2
0.0,0.0,0.0,14681,10879,30165,34767,34447,2
0.0,0.0,0.0,14666,10867,30195,34731,34447,2
0.0,0.0,0.0,14681,10867,30165,34731,34412,2
0.0,0.0,0.0,14726,10867,30105,34624,34553,2
0.0,0.0,0.0,14651,10843,29984,34624,34341,2
0.0,0.0,0.0,14621,10891,30045,34624,34412,2
0.0,0.0,0.0,14651,11012,30015,34553,34412,2
0.0,0.0,0.0,14636,11072,29925,34482,34341,2
0.0,0.0,0.0,14607,11072,29895,34482,34341,2
0.0,0.0,0.0,14621,11109,29925,34482,34341,2
0.0,0.0,0.0,14607,11109,29895,34518,34341,2
0.0,0.0,0.0,14636,11109,29895,34482,34412,2
0.0,0.0,0.0,14636,11109,29865,34482,34341,2
0.0,0.0,0.0,14636,11084,29895,34447,34412,2
0.0,0.0,0.0,14636,11084,29865,34482,34341,2
0.0,0.0,0.0,14621,11060,29865,34447,34271,2
0.0,0.0,0.0,14607,11084,29865,34412,34235,2
0.0,0.0,0.0,14621,11072,29805,34412,34341,2
0.0,0.0,0.0,14607,11084,29805,34482,34271,2
0.0,0.0,0.0,14726,11060,29775,34341,34412,2
0.0,0.0,0.0,14607,11012,29835,34482,34235,2
0.0,0.0,0.0,14666,10999,29865,34447,34271,2
0.0,0.0,0.0,14636,10987,29805,34412,34235,2
0.0,0.0,0.0,14636,10975,29746,34412,34306,2
0.0,0.0,0.0,14636,10963,29805,34412,34306,2
0.0,0.0,0.0,14607,10963,29746,34376,34271,2
0.0,0.0,0.0,14651,10939,29805,34482,34271,2
0.0,0.0,0.0,14636,10939,29835,34412,34341,2
0.0,0.0,0.0,14621,10927,29895,34412,34412,2
0.0,0.0,0.0,14621,10915,29925,34482,34341,2
0.0,0.0,0.0,14621,10891,29865,34447,34412,2
0.0,0.0,0.0,14636,10891,29865,34412,34412,2
0.0,0.0,0.0,14636,10879,29865,34412,34341,2
0.0,0.0,0.0,14607,10915,29865,34447,34200,2
0.0,0.0,0.0,14621,10891,29805,34341,34341,2
0.0,0.0,0.0,14636,10891,29775,34341,34341,2
0.0,0.0,0.0,14607,10963,29775,34341,34271,2
0.0,0.0,0.0,14607,10987,29746,34482,34200,2
0.0,0.0,0.0,14607,11072,29746,34341,34271,2
0.0,0.0,0.0,14607,11219,29746,34412,34200,2
0.0,0.0,0.0,14562,11255,29746,34412,34060,2
0.0,0.0,0.0,14607,11255,29716,34341,34130,2
0.0,0.0,0.0,14607,11255,29686,34341,34060,2
0.0,0.0,0.0,14607,11268,29746,34376,34026,2
0.0,0.0,0.0,14577,11280,29686,34271,34026,2
0.0,0.0,0.0,14577,11280,29627,34341,34026,2
0.0,0.0,0.0,14607,11292,29657,34341,34095,2
0.0,0.0,0.0,14607,11231,29627,34200,34165,2
0.0,0.0,0.0,14607,11194,29568,34165,34060,2
0.0,0.0,0.0,14607,11170,29657,34271,34026,2
0.0,0.0,0.0,14607,11121,29627,34165,34026,2
0.0,0.0,0.0,14577,11060,29627,34200,34026,2
0.0,0.0,0.0,14592,11012,29627,34130,34060,2
0.0,0.0,0.0,14607,11012,29568,34165,33991,2
0.0,0.0,0.0,14607,10987,29568,34200,33921,2
0.0,0.0,0.0,14607,10987,29627,34165,33887,2
0.0,0.0,0.0,14607,10963,29568,34200,33852,2
0.0,0.0,0.0,14607,10963,29509,34130,33956,2
0.0,0.0,0.0,14577,10963,29509,34165,33887,2
0.0,0.0,0.0,14577,11012,29509,34130,33887,2
0.0,0.0,0.0,14577,11109,29450,34130,33887,2
0.0,0.0,0.0,14562,11084,29509,34130,33783,2
0.0,0.0,0.0,14562,11121,29450,34130,33303,2
0.0,0.0,0.0,14577,11109,29421,34060,33337,2
0.0,0.0,0.0,14562,11133,29450,34130,33236,2
0.0,0.0,0.0,14577,11145,29450,34026,33168,2
0.0,0.0,0.0,14547,11121,29391,34026,33269,2
0.0,0.0,0.0,14577,11157,29421,34026,33236,2
0.0,0.0,0.0,14607,11121,29450,34060,33202,2
0.0,0.0,0.0,14547,11157,29421,34026,33168,2
0.0,0.0,0.0,14577,11157,29421,33991,33168,2
0.0,0.0,0.0,14577,11133,29421,33991,33168,2
0.0,0.0,0.0,14577,11109,29391,34095,33168,2
0.0,0.0,0.0,14547,11133,29391,34060,33202,2
0.0,0.0,0.0,14577,11121,29421,34026,33100,2
0.0,0.0,0.0,14562,11121,29391,34026,33168,2
0.0,0.0,0.0,14592,11121,29391,34060,33168,2
0.0,0.0,0.0,14577,11109,29391,33956,33236,2
0.0,0.0,0.0,14562,11036,29333,33887,33303,2
0.0,0.0,0.0,14577,11024,29391,33956,33303,2
0.0,0.0,0.0,14577,11012,29391,33921,33405,2
0.0,0.0,0.0,14547,11012,29362,33991,33236,2
0.0,0.0,0.0,14577,10987,29362,33921,33168,2
0.0,0.0,0.0,14562,10987,29333,33887,33202,2
0.0,0.0,0.0,14562,10987,29362,33887,33236,2
0.0,0.0,0.0,14547,10987,29333,33991,33236,2
0.0,0.0,0.0,14577,10999,29333,33887,33168,2
0.0,0.0,0.0,14547,10975,29333,33991,33202,2
0.0,0.0,0.0,14562,10987,29304,33887,33236,2
0.0,0.0,0.0,14547,10975,29333,33852,33202,2
0.0,0.0,0.0,14547,10987,29304,33921,33067,2
0.0,0.0,0.0,14547,10963,29245,33921,33067,2
0.0,0.0,0.0,14577,11012,29333,33887,33100,2
0.0,0.0,0.0,14562,10999,29304,33956,33067,2
0.0,0.0,0.0,14607,10987,29391,33921,33202,2
0.0,0.0,0.0,14636,11182,29333,34026,33100,2
0.0,0.0,0.0,14621,11528,29391,34130,33168,2
0.0,0.0,0.0,14621,11628,29391,34130,33067,2
0.0,0.0,0.0,14607,11553,29333,34130,33033,2
0.0,0.0,0.0,14621,11553,29391,34060,33033,2
0.0,0.0,0.0,14681,11528,29333,33991,32932,2
0.0,0.0,0.0,14666,11528,29304,33921,32966,2
0.0,0.0,0.0,14666,11503,29216,33991,33033,2
0.0,0.0,0.0,14666,11453,29216,33921,33033,2
0.0,0.0,0.0,14726,11403,29304,33956,32966,2
0.0,0.0,0.0,14696,11354,29391,33921,32966,2
0.0,0.0,0.0,14726,11268,29245,33887,32899,2
0.0,0.0,0.0,14726,11206,29274,33887,32966,2
0.0,0.0,0.0,14681,11109,29216,33921,33168,2
0.0,0.0,0.0,14666,11060,29216,33921,33168,2
0.0,0.0,0.0,14666,11024,29187,33852,33269,2
0.0,0.0,0.0,14666,11036,29216,33852,33303,2
0.0,0.0,0.0,14666,11060,29158,33748,33100,2
0.0,0.0,0.0,14607,11182,29129,33783,33100,2
0.0,0.0,0.0,14607,11280,29216,33783,33033,2
0.0,0.0,0.0,14607,11317,29158,33748,32966,2
0.0,0.0,0.0,14636,11354,29158,33714,32899,2
0.0,0.0,0.0,14636,11268,29158,33679,32966,2
0.0,0.0,0.0,14621,11157,29100,33748,32899,2
0.0,0.0,0.0,14636,11157,29100,33714,32899,2
0.0,0.0,0.0,14621,11133,29158,33714,32932,2
0.0,0.0,0.0,14607,11133,29158,33748,32899,2
0.0,0.0,0.0,14621,11084,29158,33714,32899,2
0.0,0.0,0.0,14636,11084,29100,33645,33033,2
0.0,0.0,0.0,14621,11060,29100,33714,33100,2
0.0,0.0,0.0,14621,11060,29158,33714,33033,2
0.0,0.0,0.0,14621,11048,29100,33748,33100,2
0.0,0.0,0.0,14607,11060,29100,33714,33033,2
0.0,0.0,0.0,14607,11060,29071,33679,33168,2
0.0,0.0,0.0,14577,11109,29042,33679,33269,2
0.0,0.0,0.0,14577,11182,29042,33714,33168,2
0.0,0.0,0.0,14547,11206,29042,33714,33033,2
0.0,0.0,0.0,14547,11243,29042,33714,32966,2
0.0,0.0,0.0,14547,11206,28984,33645,32999,2
0.0,0.0,0.0,14547,11157,28984,33645,33033,2
0.0,0.0,0.0,14532,11157,29042,33645,32999,2
0.0,0.0,0.0,14532,11133,28984,33645,32999,2
0.0,0.0,0.0,14547,11109,28927,33576,33168,2
0.0,0.0,0.0,14532,11109,28984,33645,33067,2
0.0,0.0,0.0,14532,11084,29042,33714,32999,2
0.0,0.0,0.0,14518,11060,28984,33714,33033,2
0.0,0.0,0.0,14503,11060,28955,33576,33033,2
0.0,0.0,0.0,14532,11084,28955,33576,32966,2
0.0,0.0,0.0,14532,11366,28927,33645,32966,2
0.0,0.0,0.0,14532,11528,28898,33576,32799,2
0.0,0.0,0.0,14518,11465,28927,33576,32832,2
0.0,0.0,0.0,14503,11490,28927,33576,32899,2
0.0,0.0,0.0,14503,11453,28869,33645,32765,2
0.0,0.0,0.0,14503,11478,28898,33576,32799,2
0.0,0.0,0.0,14518,11615,28927,33576,32732,2
0.0,0.0,0.0,14518,11665,28927,33576,32799,2
0.0,0.0,0.0,14577,11628,28898,33508,32732,2
0.0,0.0,0.0,14547,11528,28927,33474,33033,2
0.0,0.0,0.0,14532,11453,28812,33474,32832,2
0.0,0.0,0.0,14518,11354,28869,33474,32899,2
0.0,0.0,0.0,14532,11255,28812,33474,32999,2
0.0,0.0,0.0,14547,11133,28840,33439,32765,2
0.0,0.0,0.0,14518,11121,28812,33439,32832,2
0.0,0.0,0.0,14532,11133,28812,33405,32832,2
0.0,0.0,0.0,14503,11109,28697,33337,32732,2
0.0,0.0,0.0,14473,11109,28783,33405,32899,2
0.0,0.0,0.0,14503,11084,28812,33439,32799,2
0.0,0.0,0.0,14547,11121,28726,33371,32699,2
0.0,0.0,0.0,14458,11109,28783,33337,32799,2
0.0,0.0,0.0,14503,11084,28783,33337,32799,2
0.0,0.0,0.0,14488,11109,28812,33405,32832,2
0.0,0.0,0.0,14518,11121,28812,33371,32832,2
0.0,0.0,0.0,14532,11133,28726,33337,32799,2
0.0,0.0,0.0,14488,11157,28812,33405,32765,2
0.0,0.0,0.0,14488,11255,28726,33303,32899,2
0.0,0.0,0.0,14488,11255,28754,33337,32765,2
0.0,0.0,0.0,14473,11366,28754,33337,32699,2
0.0,0.0,0.0,14488,11478,28726,33337,32699,2
0.0,0.0,0.0,14518,11453,28726,33269,32633,2
0.0,0.0,0.0,14503,11453,28697,33337,32566,2
0.0,0.0,0.0,14518,11503,28697,33303,32699,2
0.0,0.0,0.0,14488,11503,28697,33303,32765,2
0.0,0.0,0.0,14532,11440,28697,33236,32500,2
0.0,0.0,0.0,14488,11292,28640,33303,32566,2
0.0,0.0,0.0,14503,11280,28669,33236,32500,2
0.0,0.0,0.0,14518,11255,28640,33236,32435,2
0.0,0.0,0.0,14547,11231,28697,33236,32500,2
0.0,0.0,0.0,14518,11206,28697,33202,32500,2
0.0,0.0,0.0,14532,11170,28697,33236,32500,2
0.0,0.0,0.0,14488,11157,28697,33202,32500,2
0.0,0.0,0.0,14488,11157,28697,33100,32369,2
0.0,0.0,0.0,14518,11157,28669,33168,32533,2
0.0,0.0,0.0,14503,11157,28726,33134,32467,2
0.0,0.0,0.0,14488,11157,28697,33202,32500,2
0.0,0.0,0.0,14518,11157,28640,33100,32435,2
0.0,0.0,0.0,14518,11133,28612,33100,32500,2
0.0,0.0,0.0,14532,11182,28612,33100,32533,2
0.0,0.0,0.0,14503,11157,28640,33100,32500,2
0.0,0.0,0.0,14547,11170,28640,33067,32500,2
0.0,0.0,0.0,14518,11231,28583,33134,32467,2
0.0,0.0,0.0,14562,11366,28612,33168,32435,2
0.0,0.0,0.0,14518,11503,28612,33168,32402,2
0.0,0.0,0.0,14547,11503,28640,33100,32402,2
0.0,0.0,0.0,14577,11503,28612,33168,32435,2
0.0,0.0,0.0,14547,11503,28583,33134,32435,2
0.0,0.0,0.0,14547,11503,28583,33168,32435,2
0.0,0.0,0.0,14518,11465,28612,33168,32500,2
0.0,0.0,0.0,14547,11354,28612,33033,32435,2
0.0,0.0,0.0,14547,11280,28583,33033,32435,2
0.0,0.0,0.0,14518,11268,28555,33033,32369,2
0.0,0.0,0.0,14503,11255,28527,33033,32402,2
0.0,0.0,0.0,14503,11231,28555,33033,32369,2
0.0,0.0,0.0,14518,11206,28555,33033,32435,2
0.0,0.0,0.0,14488,11182,28527,33067,32435,2
0.0,0.0,0.0,14503,11182,28555,32999,32402,2
0.0,0.0,0.0,14547,11170,28555,32966,32435,2
0.0,0.0,0.0,14503,11182,28583,32999,32369,2
0.0,0.0,0.0,14518,11182,28527,32999,32435,2
0.0,0.0,0.0,14518,11157,28527,32932,32369,2
0.0,0.0,0.0,14518,11157,28527,33033,32402,2
0.0,0.0,0.0,14488,11170,28527,32999,32435,2
0.0,0.0,0.0,14518,11182,28555,33033,32435,2
0.0,0.0,0.0,14518,11170,28527,33033,32500,2
0.0,0.0,0.0,14488,11157,28470,32999,32435,2
0.0,0.0,0.0,14503,11157,28527,33033,32402,2
0.0,0.0,0.0,14503,11182,28527,33067,32369,2
0.0,0.0,0.0,14532,11231,28527,32932,32402,2
0.0,0.0,0.0,14488,11528,28470,33100,32435,2
0.0,0.0,0.0,14488,11817,28498,32966,32369,2
0.0,0.0,0.0,14488,11716,28470,33067,32303,2
0.0,0.0,0.0,14488,11665,28470,32999,32303,2
0.0,0.0,0.0,14488,11653,28470,32966,32402,2
0.0,0.0,0.0,14444,11603,28414,33033,32369,2
0.0,0.0,0.0,14488,11578,28498,33033,32303,2
0.0,0.0,0.0,14488,11553,28498,32999,32271,2
0.0,0.0,0.0,14458,11465,28470,32999,32369,2
0.0,0.0,0.0,14488,11403,28470,32932,32369,2
0.0,0.0,0.0,14458,11317,28470,32932,32369,2
0.0,0.0,0.0,14518,11304,28470,32832,32303,2
0.0,0.0,0.0,14488,11268,28470,32932,32271,2
0.0,0.0,0.0,14518,11292,28414,32999,32369,2
0.0,0.0,0.0,14488,11280,28470,32932,32369,2
0.0,0.0,0.0,14488,11255,28470,32932,32271,2
0.0,0.0,0.0,14488,11255,28470,32966,32271,2
0.0,0.0,0.0,14488,11231,28442,32932,32402,2
0.0,0.0,0.0,14488,11219,28442,32899,32402,2
0.0,0.0,0.0,14458,11219,28414,32932,32435,2
0.0,0.0,0.0,14503,11219,28414,32899,32369,2
0.0,0.0,0.0,14488,11206,28470,32932,32369,2
0.0,0.0,0.0,14444,11206,28442,32832,32303,2
0.0,0.0,0.0,14488,11231,28470,32866,32303,2
0.0,0.0,0.0,14488,11231,28385,32899,32369,2
0.0,0.0,0.0,14458,11206,28385,32899,32303,2
0.0,0.0,0.0,14473,11219,28414,32899,32303,2
0.0,0.0,0.0,14488,11231,28414,32832,32303,2
0.0,0.0,0.0,14488,11206,28414,32899,32271,2
0.0,0.0,0.0,14488,11206,28414,32832,32402,2
0.0,0.0,0.0,14503,11219,28385,32832,32336,2
0.0,0.0,0.0,14458,11206,28442,32899,32369,2
0.0,0.0,0.0,14458,11219,28414,32932,32303,2
0.0,0.0,0.0,14458,11182,28385,32832,32402,2
0.0,0.0,0.0,14429,11219,28414,32866,32369,2
0.0,0.0,0.0,14473,11231,28385,32866,32336,2
0.0,0.0,0.0,14458,11219,28357,32832,32336,2
0.0,0.0,0.0,14444,11231,28357,32799,32238,2
0.0,0.0,0.0,14488,11219,28414,32899,32238,2
0.0,0.0,0.0,14488,11231,28357,32765,32303,2
0.0,0.0,0.0,14458,11219,28357,32832,32271,2
0.0,0.0,0.0,14488,11231,28414,32832,32271,2
0.0,0.0,0.0,14473,11255,28357,32899,32271,2
0.0,0.0,0.0,14444,11366,28357,32866,32271,2
0.0,0.0,0.0,14458,11416,28357,32866,32303,2
0.0,0.0,0.0,14444,11515,28357,32866,32303,2
0.0,0.0,0.0,14429,11440,28357,32832,32303,2
0.0,0.0,0.0,14429,11304,28385,32799,32205,2
0.0,0.0,0.0,14429,11170,28385,32799,32303,2
0.0,0.0,0.0,14429,11060,28442,32866,32369,2
0.0,0.0,0.0,14473,11060,28470,32799,32402,2
0.0,0.0,0.0,14429,11012,28470,32832,32402,2
0.0,0.0,0.0,14444,11012,28414,32799,32303,2
0.0,0.0,0.0,14444,11024,28414,32832,32369,2
0.0,0.0,0.0,14488,11012,28470,32799,32402,2
0.0,0.0,0.0,14518,11012,28442,32732,32402,2
0.0,0.0,0.0,14547,11012,28470,32765,32402,2
0.0,0.0,0.0,14532,10987,28385,32799,32467,2
0.0,0.0,0.0,14518,11012,28385,32765,32435,2
0.0,0.0,0.0,14547,11012,28385,32765,32402,2
0.0,0.0,0.0,14503,11060,28385,32765,32369,2
0.0,0.0,0.0,14488,11304,28357,32765,32271,2
0.0,0.0,0.0,14503,11465,28357,32799,32336,2
0.0,0.0,0.0,14488,11578,28301,32765,32303,2
0.0,0.0,0.0,14488,11565,28245,32765,32303,2
0.0,0.0,0.0,14503,11366,28301,32633,32238,2
0.0,0.0,0.0,14518,11170,28301,32765,32173,2
0.0,0.0,0.0,14488,11121,28301,32699,32271,2
0.0,0.0,0.0,14503,11084,28245,32633,32303,2
0.0,0.0,0.0,14488,11096,28301,32699,32336,2
0.0,0.0,0.0,14518,11084,28245,32633,32303,2
0.0,0.0,0.0,14488,11072,28301,32666,32336,2
0.0,0.0,0.0,14488,11109,28217,32666,32271,2
0.0,0.0,0.0,14488,11121,28245,32666,32303,2
0.0,0.0,0.0,14473,11121,28245,32633,32303,2
0.0,0.0,0.0,14458,11157,28189,32666,32271,2
0.0,0.0,0.0,14488,11182,28161,32633,32271,2
0.0,0.0,0.0,14473,11206,28245,32633,32336,2
0.0,0.0,0.0,14473,11268,28301,32633,32173,2
0.0,0.0,0.0,14429,11280,28245,32633,32238,2
0.0,0.0,0.0,14444,11280,28245,32599,32205,2
0.0,0.0,0.0,14444,11255,28189,32666,32238,2
0.0,0.0,0.0,14444,11268,28217,32633,32173,2
0.0,0.0,0.0,14429,11703,28329,32832,32238,2
0.0,0.0,0.0,14370,11830,28301,32832,32271,2
0.0,0.0,0.0,14399,11754,28301,32765,32238,2
0.0,0.0,0.0,14414,11653,28245,32732,32173,2
0.0,0.0,0.0,14429,11603,28245,32633,32140,2
0.0,0.0,0.0,14429,11354,28217,32599,32238,2
0.0,0.0,0.0,14429,11280,28189,32500,32205,2
0.0,0.0,0.0,14429,11219,28161,32500,32238,2
0.0,0.0,0.0,14458,11182,28189,32533,32238,2
0.0,0.0,0.0,14429,11182,28189,32566,32271,2
0.0,0.0,0.0,14399,11553,28189,32566,32173,2
0.0,0.0,0.0,14385,11665,28161,32633,32173,2
0.0,0.0,0.0,14429,11603,28189,32599,32108,2
0.0,0.0,0.0,14399,11465,28133,32533,32108,2
0.0,0.0,0.0,14399,11268,28133,32500,32173,2
0.0,0.0,0.0,14429,11231,28161,32500,32173,2
0.0,0.0,0.0,14385,11170,28161,32566,32108,2
0.0,0.0,0.0,14399,11280,28161,32435,32043,2
0.0,0.0,0.0,14429,11354,28161,32566,32173,2
0.0,0.0,0.0,14370,11416,28133,32500,32075,2
0.0,0.0,0.0,14385,11391,28133,32435,32108,2
0.0,0.0,0.0,14414,11304,28133,32500,32173,2
0.0,0.0,0.0,14399,11292,28161,32435,32108,2
0.0,0.0,0.0,14370,11219,28077,32435,32108,2
0.0,0.0,0.0,14370,11317,28077,32369,32173,2
0.0,0.0,0.0,14370,11503,28049,32435,32108,2
0.0,0.0,0.0,14370,11665,28049,32435,32108,2
0.0,0.0,0.0,14370,11628,28077,32369,32043,2
0.0,0.0,0.0,14370,11354,28022,32369,32010,2
0.0,0.0,0.0,14385,11206,28022,32369,32108,2
0.0,0.0,0.0,14399,11182,28077,32336,32108,2
0.0,0.0,0.0,14399,11157,28049,32402,32108,2
0.0,0.0,0.0,14326,11170,28022,32369,32108,2
0.0,0.0,0.0,14341,11194,28049,32435,32075,2
0.0,0.0,0.0,14341,11304,28049,32369,32108,2
0.0,0.0,0.0,14326,11329,28022,32271,32108,2
0.0,0.0,0.0,14370,11268,28022,32369,32108,2
0.0,0.0,0.0,14326,11255,28022,32271,32043,2
0.0,0.0,0.0,14311,11194,27994,32303,32402,2
0.0,0.0,0.0,14326,11182,27994,32271,32303,2
0.0,0.0,0.0,14370,11157,28022,32336,32369,2
0.0,0.0,0.0,14385,11317,28077,32402,32369,2
0.0,0.0,0.0,14341,11578,28077,32369,32173,2
0.0,0.0,0.0,14326,11653,28022,32467,32043,2
0.0,0.0,0.0,14326,11653,28022,32435,32108,2
0.0,0.0,0.0,14311,11503,28049,32402,32271,2
0.0,0.0,0.0,14341,11354,28022,32369,32205,2
0.0,0.0,0.0,14385,11219,27994,32303,32173,2
0.0,0.0,0.0,14326,11194,28022,32336,32666,2
0.0,0.0,0.0,14444,11182,28105,32336,32799,2
0.0,0.0,0.0,14429,11194,28049,32369,32500,2
0.0,0.0,0.0,14429,11255,28022,32369,32238,2
0.0,0.0,0.0,14429,11304,28022,32336,32205,2
0.0,0.0,0.0,14429,11268,28022,32303,32173,2
0.0,0.0,0.0,14370,11243,27966,32303,32271,2
0.0,0.0,0.0,14385,11219,27966,32205,32238,2
0.0,0.0,0.0,14399,11219,28022,32271,32238,2
0.0,0.0,0.0,14370,11206,27966,32238,32173,2
0.0,0.0,0.0,14429,11219,27994,32238,32173,2
0.0,0.0,0.0,14429,11219,27966,32238,32205,2
0.0,0.0,0.0,14429,11379,27911,32238,32271,2
0.0,0.0,0.0,14429,11528,27966,32303,32238,2
0.0,0.0,0.0,14385,11515,27911,32238,32108,2
0.0,0.0,0.0,14385,11317,27911,32205,32238,2
0.0,0.0,0.0,14399,11206,27911,32173,32303,2
0.0,0.0,0.0,14370,11157,27966,32238,32500,2
0.0,0.0,0.0,14370,11133,27911,32173,32271,2
0.0,0.0,0.0,14385,11133,27939,32173,32303,2
0.0,0.0,0.0,14399,11109,27883,32173,32402,2
0.0,0.0,0.0,14370,11109,27911,32173,32402,2
0.0,0.0,0.0,14370,11109,27966,32140,32271,2
0.0,0.0,0.0,14370,11109,27911,32140,32303,2
0.0,0.0,0.0,14370,11109,27883,32108,32369,2
0.0,0.0,0.0,14399,11109,27883,32108,32369,2
0.0,0.0,0.0,14370,11109,27911,32140,32238,2
0.0,0.0,0.0,14355,11109,27856,32010,32369,2
0.0,0.0,0.0,14370,11121,27883,32075,32238,2
0.0,0.0,0.0,14370,11157,27883,32173,32336,2
0.0,0.0,0.0,14370,11255,27800,32010,32173,2
0.0,0.0,0.0,14355,11354,27828,32043,32238,2
0.0,0.0,0.0,14326,11503,27828,32010,32108,2
0.0,0.0,0.0,14341,11528,27828,32010,32173,2
0.0,0.0,0.0,14326,11528,27800,31978,32140,2
0.0,0.0,0.0,14326,11528,27828,32043,32108,2
0.0,0.0,0.0,14311,11515,27800,31978,32140,2
0.0,0.0,0.0,14370,11416,27800,31978,32075,2
0.0,0.0,0.0,14326,11268,27800,32075,32173,2
0.0,0.0,0.0,14326,11206,27828,31978,32173,2
0.0,0.0,0.0,14341,11121,27800,31978,32205,2
0.0,0.0,0.0,14326,11157,27856,31978,32173,2
0.0,0.0,0.0,14311,11121,27828,32010,32108,2
0.0,0.0,0.0,14326,11109,27800,31913,32173,2
0.0,0.0,0.0,14326,11109,27828,31913,32173,2
0.0,0.0,0.0,14326,11109,27828,31913,32205,2
0.0,0.0,0.0,14326,11109,27800,31978,32173,2
0.0,0.0,0.0,14341,11109,27800,31978,32140,2
0.0,0.0,0.0,14326,11182,27800,31913,31978,2
0.0,0.0,0.0,14341,11317,27800,31881,32108,2
0.0,0.0,0.0,14311,11453,27800,31978,32173,2
0.0,0.0,0.0,14311,11503,27745,31913,32043,2
0.0,0.0,0.0,14326,11478,27718,31881,32043,2
0.0,0.0,0.0,14311,11453,27745,31913,32108,2
0.0,0.0,0.0,14282,11379,27800,31881,32043,2
0.0,0.0,0.0,14311,11366,27800,31913,32108,2
0.0,0.0,0.0,14326,11354,27800,31881,32010,2
0.0,0.0,0.0,14311,11354,27773,31881,32043,2
0.0,0.0,0.0,14311,11329,27800,31913,32108,2
0.0,0.0,0.0,14311,11317,27745,31849,32108,2
0.0,0.0,0.0,14311,11329,27745,31978,32108,2
0.0,0.0,0.0,14311,11354,27745,31849,32010,2
0.0,0.0,0.0,14311,11329,27800,31913,32140,2
0.0,0.0,0.0,14311,11341,27745,31913,32108,2
0.0,0.0,0.0,14282,11329,27800,31849,32140,2
0.0,0.0,0.0,14297,11317,27800,31849,32108,2
0.0,0.0,0.0,14311,11329,27773,31881,32043,2
0.0,0.0,0.0,14282,11317,27745,31881,32108,2
0.0,0.0,0.0,14282,11280,27800,31849,32010,2
0.0,0.0,0.0,14311,11243,27828,31881,32010,2
0.0,0.0,0.0,14326,11243,27745,31881,32075,2
0.0,0.0,0.0,14311,11231,27745,31881,32108,2
0.0,0.0,0.0,14311,11231,27745,31849,32108,2
0.0,0.0,0.0,14326,11219,27800,31881,31978,2
0.0,0.0,0.0,14341,11219,27745,31881,32043,2
0.0,0.0,0.0,14326,11219,27745,31849,32108,2
0.0,0.0,0.0,14326,11231,27773,31881,32010,2
0.0,0.0,0.0,14341,11206,27745,31849,32075,2
0.0,0.0,0.0,14326,11206,27800,31849,32010,2
0.0,0.0,0.0,14385,11133,27800,31881,31913,2
0.0,0.0,0.0,14444,11109,27745,31978,32108,2
0.0,0.0,0.0,14429,11109,27718,31978,31978,2
0.0,0.0,0.0,14429,11109,27745,31978,32010,2
0.0,0.0,0.0,14414,11157,27745,31978,31881,2
0.0,0.0,0.0,14399,11231,27718,31978,31913,2
0.0,0.0,0.0,14429,11243,27691,31913,31849,2
0.0,0.0,0.0,14429,11280,27691,31913,31978,2
0.0,0.0,0.0,14399,11280,27691,31881,31913,2
0.0,0.0,0.0,14385,11231,27691,31849,31881,2
0.0,0.0,0.0,14399,11157,27691,31849,31913,2
0.0,0.0,0.0,14399,11133,27718,31913,31978,2
0.0,0.0,0.0,14429,11109,27718,31978,31881,2
0.0,0.0,0.0,14429,11109,27691,31913,31946,2
0.0,0.0,0.0,14429,11109,27691,31849,31978,2
0.0,0.0,0.0,14429,11109,27718,31849,31978,2
0.0,0.0,0.0,14399,11109,27691,31913,31978,2
0.0,0.0,0.0,14370,11109,27663,31881,31881,2
0.0,0.0,0.0,14429,11121,27663,31913,31913,2
0.0,0.0,0.0,14429,11157,27691,31881,31881,2
0.0,0.0,0.0,14399,11133,27691,31881,31849,2
0.0,0.0,0.0,14399,11121,27691,31849,31881,2
0.0,0.0,0.0,14370,11170,27691,31849,31849,2
0.0,0.0,0.0,14399,11157,27691,31849,31849,2
0.0,0.0,0.0,14385,11157,27691,31817,31817,2
0.0,0.0,0.0,14399,11182,27663,31881,31817,2
0.0,0.0,0.0,14399,11157,27663,31849,31881,2
0.0,0.0,0.0,14414,11182,27663,31881,31881,2
0.0,0.0,0.0,14429,11157,27691,31785,31849,2
0.0,0.0,0.0,14399,11157,27691,31881,31849,2
0.0,0.0,0.0,14429,11157,27691,31913,31817,2
0.0,0.0,0.0,14429,11182,27663,31881,31849,2
0.0,0.0,0.0,14385,11157,27636,31849,31849,2
0.0,0.0,0.0,14385,11194,27691,31817,31849,2
0.0,0.0,0.0,14399,11157,27691,31849,31881,2
0.0,0.0,0.0,14385,11170,27663,31849,31817,2
0.0,0.0,0.0,14399,11170,27636,31849,31849,2
0.0,0.0,0.0,14429,11157,27663,31849,31849,2
0.0,0.0,0.0,14399,11157,27636,31849,31913,2
0.0,0.0,0.0,14399,11157,27636,31785,31881,2
0.0,0.0,0.0,14385,11182,27691,31849,31817,2
0.0,0.0,0.0,14429,11182,27636,31785,31881,2
0.0,0.0,0.0,14399,11170,27636,31720,31785,2
0.0,0.0,0.0,14385,11182,27636,31849,31849,2
0.0,0.0,0.0,14399,11182,27609,31785,31881,2
0.0,0.0,0.0,14385,11182,27609,31785,31881,2
0.0,0.0,0.0,14370,11182,27663,31849,31881,2
0.0,0.0,0.0,14385,11170,27636,31785,31881,2
0.0,0.0,0.0,14429,11157,27636,31752,31785,2
0.0,0.0,0.0,14399,11182,27636,31785,31785,2
0.0,0.0,0.0,14429,11182,27663,31785,31785,2
0.0,0.0,0.0,14429,11182,27636,31785,31785,2
0.0,0.0,0.0,14414,11170,27691,31817,31849,2
0.0,0.0,0.0,14429,11170,27636,31785,31881,2
0.0,0.0,0.0,14429,11157,27636,31849,31785,2
0.0,0.0,0.0,14399,11157,27636,31785,31881,2
0.0,0.0,0.0,14385,11170,27663,31752,31881,2
0.0,0.0,0.0,14399,11170,27663,31785,31849,2
0.0,0.0,0.0,14385,11170,27636,31785,31849,2
0.0,0.0,0.0,14429,11182,27636,31752,31849,2
0.0,0.0,0.0,14429,11182,27636,31785,31849,2
0.0,0.0,0.0,14429,11157,27691,31752,31881,2
0.0,0.0,0.0,14429,11206,27636,31817,31849,2
0.0,0.0,0.0,14399,11206,27636,31720,31785,2
0.0,0.0,0.0,14399,11503,27609,31720,31849,2
0.0,0.0,0.0,14370,11779,27636,31752,31752,2
0.0,0.0,0.0,14370,11615,27691,31752,31817,2
0.0,0.0,0.0,14370,11503,27581,31752,31817,2
0.0,0.0,0.0,14370,11379,27581,31752,31752,2
0.0,0.0,0.0,14370,11329,27581,31720,31785,2
0.0,0.0,0.0,14326,11255,27609,31656,31817,2
0.0,0.0,0.0,14370,11206,27527,31688,31817,2
0.0,0.0,0.0,14385,11170,27581,31720,31720,2
0.0,0.0,0.0,14370,11182,27554,31656,31785,2
0.0,0.0,0.0,14326,11182,27527,31720,31785,2
0.0,0.0,0.0,14370,11182,27554,31720,31817,2
0.0,0.0,0.0,14370,11170,27609,31624,31720,2
0.0,0.0,0.0,14370,11170,27609,31720,31752,2
0.0,0.0,0.0,14385,11182,27527,31656,31785,2
0.0,0.0,0.0,14370,11206,27581,31656,31785,2
0.0,0.0,0.0,14370,11206,27581,31688,31849,2
0.0,0.0,0.0,14370,11206,27581,31720,31785,2
0.0,0.0,0.0,14370,11157,27581,31656,31785,2
0.0,0.0,0.0,14370,11182,27581,31720,31817,2
0.0,0.0,0.0,14385,11182,27609,31656,31785,2
0.0,0.0,0.0,14341,11170,27527,31720,31849,2
0.0,0.0,0.0,14370,11206,27581,31624,31849,2
0.0,0.0,0.0,14370,11170,27581,31720,31720,2
0.0,0.0,0.0,14370,11182,27581,31624,31720,2
0.0,0.0,0.0,14370,11170,27581,31656,31720,2
0.0,0.0,0.0,14370,11206,27581,31720,31849,2
0.0,0.0,0.0,14341,11182,27581,31720,31785,2
0.0,0.0,0.0,14370,11182,27581,31624,31720,2
0.0,0.0,0.0,14385,11182,27499,31593,31752,2
0.0,0.0,0.0,14370,11170,27527,31624,31849,2
0.0,0.0,0.0,14385,11182,27581,31688,31720,2
0.0,0.0,0.0,14370,11170,27527,31720,31817,2
0.0,0.0,0.0,14370,11206,27581,31656,31720,2
0.0,0.0,0.0,14341,11182,27527,31656,31720,2
0.0,0.0,0.0,14370,11182,27554,31656,31849,2
0.0,0.0,0.0,14370,11206,27554,31656,31785,2
0.0,0.0,0.0,14355,11194,27581,31656,31785,2
0.0,0.0,0.0,14370,11182,27499,31656,31849,2
0.0,0.0,0.0,14326,11182,27609,31688,31752,2
0.0,0.0,0.0,14370,11182,27581,31624,31720,2
0.0,0.0,0.0,14370,11206,27499,31593,31849,2
0.0,0.0,0.0,14370,11182,27554,31720,31752,2
0.0,0.0,0.0,14385,11182,27581,31624,31785,2
0.0,0.0,0.0,14370,11182,27609,31720,31785,2
0.0,0.0,0.0,14370,11170,27499,31624,31720,2
0.0,0.0,0.0,14370,11206,27499,31656,31785,2
0.0,0.0,0.0,14385,11194,27581,31593,31688,2
0.0,0.0,0.0,14370,11206,27527,31656,31849,2
0.0,0.0,0.0,14370,11194,27527,31656,31752,2
0.0,0.0,0.0,14385,11206,27499,31656,31849,2
0.0,0.0,0.0,14370,11206,27527,31720,31785,2
0.0,0.0,0.0,14370,11206,27527,31752,31817,2
0.0,0.0,0.0,14370,11182,27554,31656,31785,2
0.0,0.0,0.0,14385,11170,27499,31624,31817,2
0.0,0.0,0.0,14399,11206,27527,31624,31752,2
0.0,0.0,0.0,14370,11206,27527,31656,31720,2
0.0,0.0,0.0,14370,11206,27527,31656,31785,2
0.0,0.0,0.0,14399,11231,27472,31593,31752,2
0.0,0.0,0.0,14399,11219,27527,31656,31785,2
0.0,0.0,0.0,14370,11206,27472,31656,31752,2
0.0,0.0,0.0,14370,11219,27499,31656,31752,2
0.0,0.0,0.0,14370,11206,27499,31656,31720,2
0.0,0.0,0.0,14385,11219,27472,31656,31785,2
0.0,0.0,0.0,14370,11206,27445,31624,31752,2
0.0,0.0,0.0,14370,11231,27499,31624,31720,2
0.0,0.0,0.0,14370,11231,27472,31593,31817,2
0.0,0.0,0.0,14370,11243,27472,31656,31817,2
0.0,0.0,0.0,14370,11206,27472,31593,31752,2
0.0,0.0,0.0,14355,11206,27472,31656,31752,2
0.0,0.0,0.0,14370,11219,27472,31656,31785,2
0.0,0.0,0.0,14326,11206,27499,31624,31817,2
0.0,0.0,0.0,14370,11206,27472,31656,31817,2
0.0,0.0,0.0,14370,11206,27472,31624,31849,2
0.0,0.0,0.0,14399,11231,27472,31624,31720,2
0.0,0.0,0.0,14370,11255,27472,31593,31817,2
0.0,0.0,0.0,14385,11231,27472,31593,31817,2
0.0,0.0,0.0,14399,11255,27472,31624,31752,2
0.0,0.0,0.0,14385,11231,27472,31656,31817,2
0.0,0.0,0.0,14385,11231,27499,31624,31752,2
0.0,0.0,0.0,14355,11255,27472,31624,31849,2
0.0,0.0,0.0,14370,11231,27418,31624,31881,2
0.0,0.0,0.0,14370,11206,27472,31656,31785,2
0.0,0.0,0.0,14370,11231,27472,31593,31720,2
0.0,0.0,0.0,14370,11231,27418,31593,31720,2
0.0,0.0,0.0,14370,11255,27418,31593,31785,2
0.0,0.0,0.0,14370,11243,27418,31624,31720,2
0.0,0.0,0.0,14370,11255,27472,31593,31785,2
0.0,0.0,0.0,14385,11255,27472,31624,31720,2
0.0,0.0,0.0,14370,11219,27472,31656,31720,2
0.0,0.0,0.0,14414,11231,27472,31593,31785,2
0.0,0.0,0.0,14341,11231,27445,31593,31720,2
0.0,0.0,0.0,14370,11255,27499,31656,31720,2
0.0,0.0,0.0,14326,11231,27472,31624,32108,2
0.0,0.0,0.0,14326,11255,27472,31593,31913,2
0.0,0.0,0.0,14355,11231,27418,31624,31785,2
0.0,0.0,0.0,14355,11206,27472,31624,31817,2
0.0,0.0,0.0,14326,11219,27472,31497,31849,2
0.0,0.0,0.0,14341,11231,27418,31593,31752,2
0.0,0.0,0.0,14370,11231,27418,31593,31752,2
0.0,0.0,0.0,14370,11255,27391,31529,31978,2
0.0,0.0,0.0,14385,11219,27418,31624,31849,2
0.0,0.0,0.0,14341,11231,27499,31561,31849,2
0.0,0.0,0.0,14355,11255,27472,31593,31849,2
0.0,0.0,0.0,14326,11255,27472,31624,31817,2
0.0,0.0,0.0,14370,11219,27418,31593,31849,2
0.0,0.0,0.0,14355,11255,27472,31593,31752,2
0.0,0.0,0.0,14326,11243,27418,31593,31785,2
0.0,0.0,0.0,14399,11255,27472,31624,31913,2
0.0,0.0,0.0,14355,11231,27472,31561,31785,2
0.0,0.0,0.0,14326,11231,27418,31656,31785,2
0.0,0.0,0.0,14370,11255,27418,31656,31752,2
0.0,0.0,0.0,14341,11231,27445,31593,31849,2
0.0,0.0,0.0,14355,11243,27418,31593,31752,2
0.0,0.0,0.0,14370,11255,27418,31593,31817,2
0.0,0.0,0.0,14370,11255,27445,31624,31817,2
0.0,0.0,0.0,14341,11255,27391,31593,31849,2
0.0,0.0,0.0,14341,11255,27418,31656,31688,2
0.0,0.0,0.0,14341,11255,27472,31593,31785,2
0.0,0.0,0.0,14311,11255,27445,31624,31785,2
0.0,0.0,0.0,14326,11231,27418,31593,31785,2
0.0,0.0,0.0,14355,11219,27418,31593,31849,2
0.0,0.0,0.0,14370,11219,27445,31593,31946,2
0.0,0.0,0.0,14370,11206,27418,31593,32075,2
0.0,0.0,0.0,14385,11219,27418,31561,31881,2
0.0,0.0,0.0,14370,11219,27391,31593,31849,2
0.0,0.0,0.0,14355,11206,27418,31656,31849,2
0.0,0.0,0.0,14326,11206,27418,31624,31720,2
0.0,0.0,0.0,14385,11219,27364,31561,31720,2
0.0,0.0,0.0,14326,11206,27418,31593,31656,2
0.0,0.0,0.0,14370,11206,27472,31497,31752,2
0.0,0.0,0.0,14399,11219,27418,31593,31720,2
0.0,0.0,0.0,14370,11231,27364,31561,31593,2
0.0,0.0,0.0,14370,11219,27445,31656,31720,2
0.0,0.0,0.0,14370,11206,27391,31624,31785,2
0.0,0.0,0.0,14370,11206,27418,31688,31785,2
0.0,0.0,0.0,14370,11194,27472,31656,31656,2
0.0,0.0,0.0,14341,11182,27472,31593,31720,2
0.0,0.0,0.0,14385,11157,27472,31593,31688,2
0.0,0.0,0.0,14370,11231,27391,31529,31656,2
0.0,0.0,0.0,14385,11206,27472,31593,31688,2
0.0,0.0,0.0,14414,11206,27418,31561,31785,2
0.0,0.0,0.0,14488,11231,27472,31465,31785,2
0.0,0.0,0.0,14429,11255,27418,31497,31785,2
0.0,0.0,0.0,14385,11280,27391,31497,31785,2
0.0,0.0,0.0,14414,11304,27364,31529,31656,2
0.0,0.0,0.0,14429,11304,27445,31593,31688,2
0.0,0.0,0.0,14385,11354,27418,31593,31688,2
0.0,0.0,0.0,14429,11366,27391,31497,31656,2
0.0,0.0,0.0,14414,11416,27364,31593,31720,2
0.0,0.0,0.0,14385,11403,27364,31497,31593,2
0.0,0.0,0.0,14414,11304,27364,31529,31656,2
0.0,0.0,0.0,14429,11255,27418,31561,31720,2
0.0,0.0,0.0,14429,11255,27418,31593,31656,2
0.0,0.0,0.0,14429,11304,27418,31529,31593,2
0.0,0.0,0.0,14458,11565,27391,31561,31752,2
0.0,0.0,0.0,14399,11804,27472,31720,31656,2
0.0,0.0,0.0,14385,11754,27418,31593,31624,2
0.0,0.0,0.0,14399,11503,27472,31593,31720,2
0.0,0.0,0.0,14385,11280,27472,31465,31624,2
0.0,0.0,0.0,14385,11194,27445,31465,31593,2
0.0,0.0,0.0,14399,11170,27418,31497,31624,2
0.0,0.0,0.0,14370,11157,27364,31529,31624,2
0.0,0.0,0.0,14385,11416,27418,31529,31624,2
0.0,0.0,0.0,14326,11983,27364,31593,31593,2
0.0,0.0,0.0,14326,12047,27364,31561,31593,2
0.0,0.0,0.0,14326,11766,27364,31529,31593,2
0.0,0.0,0.0,14341,11428,27364,31465,31624,2
0.0,0.0,0.0,14326,11304,27364,31497,31593,2
0.0,0.0,0.0,14326,11280,27364,31434,31561,2
0.0,0.0,0.0,14341,11304,27310,31434,31529,2
0.0,0.0,0.0,14326,11665,27310,31434,31497,2
0.0,0.0,0.0,14326,11855,27364,31497,31529,2
0.0,0.0,0.0,14311,11830,27310,31497,31593,2
0.0,0.0,0.0,14311,11553,27310,31434,31497,2
0.0,0.0,0.0,14311,11416,27310,31402,31593,2
0.0,0.0,0.0,14311,11317,27256,31465,31593,2
0.0,0.0,0.0,14355,11304,27283,31402,31593,2
0.0,0.0,0.0,14326,11268,27283,31402,31593,2
0.0,0.0,0.0,14326,11653,27337,31402,31529,2
0.0,0.0,0.0,14326,11983,27256,31497,31529,2
0.0,0.0,0.0,14311,11754,27256,31465,31497,2
0.0,0.0,0.0,14355,11553,27256,31370,31465,2
0.0,0.0,0.0,14341,11403,27310,31402,31529,2
0.0,0.0,0.0,14370,11379,27256,31402,31497,2
0.0,0.0,0.0,14370,11317,27283,31402,31529,2
0.0,0.0,0.0,14311,11280,27256,31402,31561,2
0.0,0.0,0.0,14370,11268,27283,31402,31529,2
0.0,0.0,0.0,14326,11354,27256,31402,31465,2
0.0,0.0,0.0,14326,12034,27256,31465,31497,2
0.0,0.0,0.0,14311,12086,27283,31497,31465,2
0.0,0.0,0.0,14311,11919,27256,31370,31497,2
0.0,0.0,0.0,14326,11766,27256,31497,31529,2
0.0,0.0,0.0,14311,11503,27202,31370,31497,2
0.0,0.0,0.0,14311,11379,27256,31402,31465,2
0.0,0.0,0.0,14311,11366,27337,31434,31529,2
0.0,0.0,0.0,14326,11341,27256,31465,31529,2
0.0,0.0,0.0,14326,11354,27310,31370,31465,2
0.0,0.0,0.0,14326,11329,27283,31370,31624,2
0.0,0.0,0.0,14326,11304,27256,31339,31497,2
0.0,0.0,0.0,14311,11304,27310,31370,31465,2
0.0,0.0,0.0,14326,11206,27283,31370,31465,2
0.0,0.0,0.0,14326,11133,27391,31434,31497,2
0.0,0.0,0.0,14370,11109,27418,31434,31593,2
0.0,0.0,0.0,14370,11084,27418,31402,31593,2
0.0,0.0,0.0,14326,11072,27472,31465,31593,2
0.0,0.0,0.0,14326,11060,27418,31465,31624,2
0.0,0.0,0.0,14355,11072,27472,31402,31529,2
0.0,0.0,0.0,14326,11072,27391,31465,31593,2
0.0,0.0,0.0,14326,11060,27418,31434,31593,2
0.0,0.0,0.0,14370,11060,27472,31402,31465,2
0.0,0.0,0.0,14326,11060,27418,31465,31529,2
0.0,0.0,0.0,14370,11060,27364,31339,31497,2
0.0,0.0,0.0,14326,11072,27364,31402,31593,2
0.0,0.0,0.0,14326,11133,27364,31339,31465,2
0.0,0.0,0.0,14311,11231,27310,31434,31465,2
0.0,0.0,0.0,14311,11304,27364,31402,31593,2
0.0,0.0,0.0,14326,11354,27283,31402,31465,2
0.0,0.0,0.0,14311,11366,27337,31434,31465,2
0.0,0.0,0.0,14326,11453,27283,31339,31434,2
0.0,0.0,0.0,14311,11416,27256,31307,31497,2
0.0,0.0,0.0,14311,11416,27283,31339,31465,2
0.0,0.0,0.0,14311,11403,27256,31370,31529,2
0.0,0.0,0.0,14311,11416,27256,31339,31465,2
0.0,0.0,0.0,14311,11403,27256,31370,31465,2
0.0,0.0,0.0,14326,11403,27256,31370,31402,2
0.0,0.0,0.0,14297,11379,27256,31339,31465,2
0.0,0.0,0.0,14297,11379,27256,31339,31465,2
0.0,0.0,0.0,14311,11403,27391,31370,31465,2
0.0,0.0,0.0,14297,11379,27229,31339,31465,2
0.0,0.0,0.0,14311,11354,27202,31339,31465,2
0.0,0.0,0.0,14326,11403,27256,31276,31465,2
0.0,0.0,0.0,14326,11403,27229,31307,31402,2
0.0,0.0,0.0,14297,11403,27175,31339,31497,2
0.0,0.0,0.0,14268,11403,27202,31339,31465,2
0.0,0.0,0.0,14311,11379,27229,31307,31402,2
0.0,0.0,0.0,14311,11391,27256,31402,31497,2
0.0,0.0,0.0,14282,11379,27256,31370,31465,2
0.0,0.0,0.0,14311,11379,27256,31370,31497,2
0.0,0.0,0.0,14311,11403,27229,31339,31529,2
0.0,0.0,0.0,14282,11391,27256,31434,31497,2
0.0,0.0,0.0,14311,11403,27202,31339,31465,2
0.0,0.0,0.0,14311,11403,27256,31370,31529,2
0.0,0.0,0.0,14282,11403,27256,31307,31402,2
0.0,0.0,0.0,14311,11416,27229,31370,31402,2
0.0,0.0,0.0,14311,11403,27256,31402,31561,2
0.0,0.0,0.0,14311,11416,27256,31307,31465,2
0.0,0.0,0.0,14326,11391,27256,31339,31465,2
0.0,0.0,0.0,14311,11416,27256,31370,31465,2
0.0,0.0,0.0,14311,11478,27202,31339,31465,2
0.0,0.0,0.0,14311,11403,27256,31276,31370,2
0.0,0.0,0.0,14282,11403,27202,31370,31465,2
0.0,0.0,0.0,14282,11416,27229,31339,31497,2
0.0,0.0,0.0,14326,11416,27175,31307,31434,2
0.0,0.0,0.0,14311,11403,27175,31339,31465,2
0.0,0.0,0.0,14311,11416,27148,31276,31465,2
0.0,0.0,0.0,14282,11416,27175,31276,31465,2
0.0,0.0,0.0,14268,11403,27229,31307,31402,2
0.0,0.0,0.0,14311,11403,27175,31339,31465,2
0.0,0.0,0.0,14311,11403,27256,31276,31465,2
0.0,0.0,0.0,14311,11403,27202,31244,31402,2
0.0,0.0,0.0,14297,11416,27229,31276,31402,2
0.0,0.0,0.0,14311,11403,27202,31402,31402,2
0.0,0.0,0.0,14297,11403,27175,31276,31402,2
0.0,0.0,0.0,14311,11416,27202,31339,31497,2
0.0,0.0,0.0,14311,11428,27148,31276,31465,2
0.0,0.0,0.0,14311,11428,27256,31307,31465,2
0.0,0.0,0.0,14282,11416,27202,31370,31434,2
0.0,0.0,0.0,14311,11416,27202,31339,31434,2
0.0,0.0,0.0,14282,11416,27122,31339,31402,2
0.0,0.0,0.0,14311,11416,27202,31339,31370,2
0.0,0.0,0.0,14311,11416,27202,31339,31497,2
0.0,0.0,0.0,14326,11416,27148,31339,31434,2
0.0,0.0,0.0,14311,11379,27202,31307,31497,2
0.0,0.0,0.0,14311,11428,27175,31339,31402,2
0.0,0.0,0.0,14311,11403,27202,31276,31465,2
0.0,0.0,0.0,14311,11354,27175,31307,31339,2
0.0,0.0,0.0,14268,11304,27256,31339,31402,2
0.0,0.0,0.0,14282,11255,27175,31307,31497,2
0.0,0.0,0.0,14282,11255,27256,31276,31465,2
0.0,0.0,0.0,14311,11231,27202,31276,31529,2
0.0,0.0,0.0,14282,11206,27256,31276,31402,2
0.0,0.0,0.0,14297,11231,27256,31339,31465,2
0.0,0.0,0.0,14311,11219,27148,31276,31402,2
