GyroX,GyroY,GyroZ,Thumb,Index,Middle,Ring,Pinky,Gesture
0.0,0.0,0.0,14621,28414,25843,36272,16303,5
0.0,0.0,0.0,14444,28385,25818,36160,16483,5
0.0,0.0,0.0,14399,28301,25793,36047,16582,5
0.0,0.0,0.0,15600,28273,25691,36010,16648,5
0.0,0.0,0.0,16949,28161,25591,35898,16615,5
0.0,0.0,0.0,17050,28245,25591,35861,16582,5
0.0,0.0,0.0,16582,28498,25666,35861,16632,5
0.0,0.0,0.0,16665,28640,25843,35861,16615,5
0.0,0.0,0.0,16632,28612,25894,35898,16731,5
0.0,0.0,0.0,16648,28612,25843,35824,16715,5
0.0,0.0,0.0,16665,28470,25793,35861,16731,5
0.0,0.0,0.0,16898,28301,25691,35749,16748,5
0.0,0.0,0.0,17915,28301,25540,35749,16648,5
0.0,0.0,0.0,17862,28161,25490,35749,16715,5
0.0,0.0,0.0,18164,28161,25515,35676,16748,5
0.0,0.0,0.0,18362,28133,25515,35639,16698,5
0.0,0.0,0.0,17118,28189,25591,35565,16698,5
0.0,0.0,0.0,16499,28133,25540,35455,16681,5
0.0,0.0,0.0,16352,28245,25540,35492,16715,5
0.0,0.0,0.0,16238,28217,25591,35455,16748,5
0.0,0.0,0.0,16157,28133,25515,35309,16681,5
0.0,0.0,0.0,16028,28049,25440,35418,16598,5
0.0,0.0,0.0,15996,28049,25390,35345,16582,5
0.0,0.0,0.0,15757,27966,25341,35345,16632,5
0.0,0.0,0.0,15805,27911,25390,35199,16532,5
0.0,0.0,0.0,15710,27800,25291,35236,16434,5
0.0,0.0,0.0,15663,27856,25291,35163,16467,5
0.0,0.0,0.0,15647,27828,25291,35018,16417,5
0.0,0.0,0.0,15584,27745,25291,35055,16287,5
0.0,0.0,0.0,15600,27691,25266,34982,16093,5
0.0,0.0,0.0,15932,27745,25192,34946,16012,5
0.0,0.0,0.0,16060,27745,25192,34910,16060,5
0.0,0.0,0.0,16157,27581,25192,34874,16060,5
0.0,0.0,0.0,16483,27745,25142,34874,16093,5
0.0,0.0,0.0,17582,27691,25192,34839,16060,5
0.0,0.0,0.0,19268,27609,25118,34839,16060,5
0.0,0.0,0.0,19554,27609,25167,34946,16060,5
0.0,0.0,0.0,19458,27581,25192,34910,16093,5
0.0,0.0,0.0,19155,27581,25142,34874,16109,5
0.0,0.0,0.0,18783,27554,25093,34839,16125,5
0.0,0.0,0.0,18581,27499,25044,34767,16173,5
0.0,0.0,0.0,17845,27554,25118,34767,16238,5
0.0,0.0,0.0,17357,27581,25093,34767,16254,5
0.0,0.0,0.0,17186,27581,25068,34767,16385,5
0.0,0.0,0.0,16715,27609,25093,34696,16467,5
0.0,0.0,0.0,16352,27581,25093,34731,16582,5
0.0,0.0,0.0,16238,27554,25118,34731,16549,5
0.0,0.0,0.0,16189,27527,25093,34731,16516,5
0.0,0.0,0.0,16189,27581,25044,34696,16450,5
0.0,0.0,0.0,16238,27527,25044,34696,16483,5
0.0,0.0,0.0,16848,27418,25044,34624,16385,5
0.0,0.0,0.0,17986,27472,24995,34624,16401,5
0.0,0.0,0.0,18801,27418,24995,34624,16417,5
0.0,0.0,0.0,18894,27364,24946,34553,16385,5
0.0,0.0,0.0,18599,27364,24946,34589,16417,5
0.0,0.0,0.0,18362,27418,24970,34482,16417,5
0.0,0.0,0.0,17220,27418,24946,34447,16434,5
0.0,0.0,0.0,16385,27391,24946,34447,16483,5
0.0,0.0,0.0,16125,27310,24897,34412,16434,5
0.0,0.0,0.0,16254,27256,24946,34341,16450,5
0.0,0.0,0.0,16781,27310,24946,34412,16434,5
0.0,0.0,0.0,17634,27256,24897,34341,16434,5
0.0,0.0,0.0,18344,27256,24824,34341,16483,5
0.0,0.0,0.0,18236,27283,24799,34341,16483,5
0.0,0.0,0.0,17845,27256,24848,34376,16483,5
0.0,0.0,0.0,16748,27256,24848,34341,16483,5
0.0,0.0,0.0,16157,27256,24799,34306,16516,5
0.0,0.0,0.0,15996,27256,24824,34271,16516,5
0.0,0.0,0.0,15964,27202,24824,34271,16582,5
0.0,0.0,0.0,16206,27229,24824,34271,16549,5
0.0,0.0,0.0,16882,27202,24751,34200,16615,5
0.0,0.0,0.0,17739,27148,24751,34235,16582,5
0.0,0.0,0.0,17862,27148,24727,34271,16565,5
0.0,0.0,0.0,17565,27148,24727,34200,16582,5
0.0,0.0,0.0,16615,27148,24727,34165,16648,5
0.0,0.0,0.0,16093,27148,24702,34130,16698,5
0.0,0.0,0.0,16352,27095,24702,34165,16681,5
0.0,0.0,0.0,17530,27122,24654,34130,16681,5
0.0,0.0,0.0,18783,27095,24702,34271,16582,5
0.0,0.0,0.0,18783,27041,24630,34235,16582,5
0.0,0.0,0.0,18635,27041,24654,34235,16648,5
0.0,0.0,0.0,17306,27068,24606,34095,16648,5
0.0,0.0,0.0,16352,27041,24702,34060,16648,5
0.0,0.0,0.0,16157,27041,24654,34130,16615,5
0.0,0.0,0.0,16385,26961,24606,34060,16648,5
0.0,0.0,0.0,16966,26935,24606,33991,16615,5
0.0,0.0,0.0,17565,26882,24534,33991,16615,5
0.0,0.0,0.0,17652,26935,24534,34026,16632,5
0.0,0.0,0.0,17357,26882,24510,33921,16632,5
0.0,0.0,0.0,16549,26908,24582,34026,16648,5
0.0,0.0,0.0,16417,26935,24510,33852,16715,5
0.0,0.0,0.0,18164,26882,24510,33852,16715,5
0.0,0.0,0.0,18508,26882,24414,33921,16815,5
0.0,0.0,0.0,18236,26829,24510,33817,16781,5
0.0,0.0,0.0,18004,26829,24462,33817,16848,5
0.0,0.0,0.0,17237,26829,24462,33852,16815,5
0.0,0.0,0.0,16848,26776,24462,33783,16815,5
0.0,0.0,0.0,16949,26802,24414,33714,16815,5
0.0,0.0,0.0,17634,26776,24438,33748,16848,5
0.0,0.0,0.0,17986,26829,24366,33783,16882,5
0.0,0.0,0.0,17809,26776,24271,33714,16798,5
0.0,0.0,0.0,16582,26749,24366,33714,16798,5
0.0,0.0,0.0,16125,26776,24318,33611,16781,5
0.0,0.0,0.0,15980,26829,24318,33576,16781,5
0.0,0.0,0.0,15980,26749,24294,33542,16781,5
0.0,0.0,0.0,16467,26749,24271,33645,16848,5
0.0,0.0,0.0,17374,26670,24223,33611,16815,5
0.0,0.0,0.0,17827,26723,24271,33611,16815,5
0.0,0.0,0.0,17426,26723,24271,33645,16815,5
0.0,0.0,0.0,16815,26776,24271,33576,16831,5
0.0,0.0,0.0,16615,26723,24318,33611,16765,5
0.0,0.0,0.0,17101,26723,24318,33542,16815,5
0.0,0.0,0.0,18129,26723,24318,33576,16815,5
0.0,0.0,0.0,18599,26670,24247,33576,16831,5
0.0,0.0,0.0,18453,26723,24223,33508,16831,5
0.0,0.0,0.0,17220,26618,24271,33576,16949,5
0.0,0.0,0.0,16287,26723,24247,33474,16932,5
0.0,0.0,0.0,16125,26723,24223,33474,16949,5
0.0,0.0,0.0,16109,26697,24247,33439,16932,5
0.0,0.0,0.0,16549,26644,24223,33474,16949,5
0.0,0.0,0.0,16748,26644,24199,33474,16949,5
0.0,0.0,0.0,16781,26618,24199,33439,16966,5
0.0,0.0,0.0,16715,26670,24176,33474,17016,5
0.0,0.0,0.0,16748,26618,24223,33439,17050,5
0.0,0.0,0.0,17118,26670,24176,33474,17050,5
0.0,0.0,0.0,17186,26618,24176,33405,17050,5
0.0,0.0,0.0,17237,26618,24129,33439,17050,5
0.0,0.0,0.0,17084,26592,24152,33439,17016,5
0.0,0.0,0.0,16848,26618,24152,33371,17033,5
0.0,0.0,0.0,16222,26618,24129,33337,17152,5
0.0,0.0,0.0,15789,26566,24152,33303,17186,5
0.0,0.0,0.0,15710,26644,24129,33236,17186,5
0.0,0.0,0.0,15615,26618,24081,33168,17118,5
0.0,0.0,0.0,15537,26566,24081,33202,17152,5
0.0,0.0,0.0,15490,26566,24105,33100,17118,5
0.0,0.0,0.0,15584,26566,24058,33168,17101,5
0.0,0.0,0.0,15852,26513,24058,33100,17118,5
0.0,0.0,0.0,15980,26566,24034,33168,17084,5
0.0,0.0,0.0,15868,26566,24058,33168,17135,5
0.0,0.0,0.0,15615,26566,24058,33168,17152,5
0.0,0.0,0.0,15553,26539,24011,33100,17152,5
0.0,0.0,0.0,15490,26513,24058,33168,17186,5
0.0,0.0,0.0,15600,26566,24011,33134,17186,5
0.0,0.0,0.0,15726,26513,24034,33134,17186,5
0.0,0.0,0.0,15980,26461,24034,33168,17186,5
0.0,0.0,0.0,16028,26461,23987,33067,17152,5
0.0,0.0,0.0,16028,26513,23987,33067,17169,5
0.0,0.0,0.0,15996,26409,24034,33067,17203,5
0.0,0.0,0.0,15900,26461,23964,33033,17169,5
0.0,0.0,0.0,15647,26513,23964,33033,17220,5
0.0,0.0,0.0,15521,26409,23987,33067,17186,5
0.0,0.0,0.0,15459,26435,23987,33033,17306,5
0.0,0.0,0.0,15428,26383,23964,32966,17220,5
0.0,0.0,0.0,15678,26357,23964,32999,17220,5
0.0,0.0,0.0,16781,26461,23894,33067,17152,5
0.0,0.0,0.0,17169,26409,23894,33033,17203,5
0.0,0.0,0.0,17357,26409,23847,32966,17220,5
0.0,0.0,0.0,17340,26409,23847,33033,17220,5
0.0,0.0,0.0,16417,26461,23894,32999,17169,5
0.0,0.0,0.0,15837,26409,23917,32966,17220,5
0.0,0.0,0.0,15631,26409,23870,32899,17254,5
0.0,0.0,0.0,15553,26409,23870,32899,17254,5
0.0,0.0,0.0,15459,26331,23847,33033,17289,5
0.0,0.0,0.0,15900,26383,23847,32832,17237,5
0.0,0.0,0.0,16815,26357,23847,32899,17237,5
0.0,0.0,0.0,16983,26305,23777,32899,17220,5
0.0,0.0,0.0,16516,26305,23847,32899,17289,5
0.0,0.0,0.0,16028,26305,23754,32899,17272,5
0.0,0.0,0.0,15694,26331,23847,32899,17289,5
0.0,0.0,0.0,15647,26305,23847,32899,17289,5
0.0,0.0,0.0,15852,26357,23777,32832,17254,5
0.0,0.0,0.0,16483,26305,23754,32866,17289,5
0.0,0.0,0.0,17461,26253,23754,32899,17323,5
0.0,0.0,0.0,17722,26253,23800,32899,17254,5
0.0,0.0,0.0,17704,26253,23754,32932,17306,5
0.0,0.0,0.0,17289,26305,23754,32899,17306,5
0.0,0.0,0.0,16352,26357,23754,32866,17254,5
0.0,0.0,0.0,16093,26253,23777,32899,17289,5
0.0,0.0,0.0,15773,26279,23754,32799,17289,5
0.0,0.0,0.0,15710,26331,23777,32765,17306,5
0.0,0.0,0.0,15726,26305,23730,32832,17289,5
0.0,0.0,0.0,15741,26253,23754,32799,17254,5
0.0,0.0,0.0,15996,26305,23707,32765,17289,5
0.0,0.0,0.0,16385,26228,23707,32765,17306,5
0.0,0.0,0.0,16516,26202,23684,32765,17289,5
0.0,0.0,0.0,16450,26202,23754,32765,17289,5
0.0,0.0,0.0,16287,26202,23754,32765,17289,5
0.0,0.0,0.0,16060,26150,23684,32765,17323,5
0.0,0.0,0.0,15663,26202,23707,32832,17323,5
0.0,0.0,0.0,15412,26228,23661,32765,17357,5
0.0,0.0,0.0,15288,26202,23661,32699,17323,5
0.0,0.0,0.0,15242,26202,23684,32732,17306,5
0.0,0.0,0.0,15227,26202,23661,32699,17357,5
0.0,0.0,0.0,15663,26228,23661,32666,17323,5
0.0,0.0,0.0,16189,26202,23615,32666,17323,5
0.0,0.0,0.0,16173,26150,23661,32699,17357,5
0.0,0.0,0.0,16012,26150,23661,32666,17323,5
0.0,0.0,0.0,15647,26150,23615,32633,17374,5
0.0,0.0,0.0,15412,26150,23661,32633,17357,5
0.0,0.0,0.0,15366,26202,23661,32633,17374,5
0.0,0.0,0.0,15288,26150,23592,32599,17374,5
0.0,0.0,0.0,15288,26176,23569,32566,17340,5
0.0,0.0,0.0,15288,26124,23638,32566,17340,5
0.0,0.0,0.0,15258,26124,23661,32566,17357,5
0.0,0.0,0.0,15288,26150,23661,32633,17340,5
0.0,0.0,0.0,15335,26124,23615,32633,17426,5
0.0,0.0,0.0,15335,26150,23569,32566,17374,5
0.0,0.0,0.0,16222,26150,23569,32566,17392,5
0.0,0.0,0.0,17186,26124,23522,32666,17392,5
0.0,0.0,0.0,17186,26150,23569,32566,17323,5
0.0,0.0,0.0,16715,26124,23522,32500,17357,5
0.0,0.0,0.0,16109,26150,23522,32500,17374,5
0.0,0.0,0.0,15852,26124,23522,32633,17374,5
0.0,0.0,0.0,15647,26124,23569,32533,17426,5
0.0,0.0,0.0,15521,26124,23499,32500,17357,5
0.0,0.0,0.0,15615,26124,23499,32500,17392,5
0.0,0.0,0.0,15996,26047,23522,32500,17357,5
0.0,0.0,0.0,16109,26099,23522,32435,17357,5
0.0,0.0,0.0,15932,26099,23477,32435,17374,5
0.0,0.0,0.0,15631,26099,23477,32500,17426,5
0.0,0.0,0.0,15288,26099,23522,32500,17426,5
0.0,0.0,0.0,15150,26099,23477,32467,17461,5
0.0,0.0,0.0,15074,26047,23477,32500,17513,5
0.0,0.0,0.0,15058,26099,23499,32435,17530,5
0.0,0.0,0.0,15028,26124,23499,32402,17565,5
0.0,0.0,0.0,14982,26047,23477,32500,17600,5
0.0,0.0,0.0,14952,26124,23454,32435,17634,5
0.0,0.0,0.0,14907,26099,23477,32500,17617,5
0.0,0.0,0.0,14801,26022,23499,32435,17582,5
0.0,0.0,0.0,14861,26124,23431,32369,17617,5
0.0,0.0,0.0,15490,26047,23431,32369,17565,5
0.0,0.0,0.0,16303,26099,23431,32303,17565,5
0.0,0.0,0.0,16648,26022,23454,32500,17513,5
0.0,0.0,0.0,16450,25996,23477,32435,17530,5
0.0,0.0,0.0,16254,26022,23454,32369,17495,5
0.0,0.0,0.0,15647,26022,23431,32402,17530,5
0.0,0.0,0.0,15288,25996,23454,32369,17513,5
0.0,0.0,0.0,15242,25996,23431,32369,17513,5
0.0,0.0,0.0,15181,25996,23431,32303,17547,5
0.0,0.0,0.0,15335,26022,23431,32303,17530,5
0.0,0.0,0.0,15615,25996,23431,32402,17530,5
0.0,0.0,0.0,15900,26022,23385,32303,17565,5
0.0,0.0,0.0,16368,26047,23431,32369,17530,5
0.0,0.0,0.0,16681,25971,23431,32303,17565,5
0.0,0.0,0.0,16044,25996,23385,32303,17565,5
0.0,0.0,0.0,15584,26099,23431,32303,17582,5
0.0,0.0,0.0,15335,25996,23385,32303,17565,5
0.0,0.0,0.0,15288,26022,23431,32303,17565,5
0.0,0.0,0.0,15273,25996,23431,32303,17600,5
0.0,0.0,0.0,15119,25996,23385,32271,17582,5
0.0,0.0,0.0,14562,25920,23385,32238,17600,5
0.0,0.0,0.0,14488,25945,23431,32238,17530,5
0.0,0.0,0.0,15150,25945,23385,32238,17495,5
0.0,0.0,0.0,15350,25996,23362,32238,17495,5
0.0,0.0,0.0,15211,25945,23316,32271,17426,5
0.0,0.0,0.0,15273,25996,23294,32238,17461,5
0.0,0.0,0.0,15553,25971,23316,32238,17461,5
0.0,0.0,0.0,15412,25996,23294,32205,17426,5
0.0,0.0,0.0,15366,25945,23294,32205,17461,5
0.0,0.0,0.0,15335,25945,23248,32205,17513,5
0.0,0.0,0.0,15319,25945,23294,32173,17513,5
0.0,0.0,0.0,15211,25894,23339,32205,17530,5
0.0,0.0,0.0,15288,25920,23316,32173,17495,5
0.0,0.0,0.0,15227,25945,23294,32140,17513,5
0.0,0.0,0.0,15181,25945,23294,32173,17565,5
0.0,0.0,0.0,15104,25894,23294,32173,17530,5
0.0,0.0,0.0,15089,25894,23294,32173,17530,5
0.0,0.0,0.0,15058,25843,23248,32140,17582,5
0.0,0.0,0.0,14937,25869,23225,32108,17634,5
0.0,0.0,0.0,14846,25843,23225,32108,17530,5
0.0,0.0,0.0,14846,25869,23294,32140,17617,5
0.0,0.0,0.0,14786,25894,23271,32108,17634,5
0.0,0.0,0.0,14726,25767,23248,32140,17600,5
0.0,0.0,0.0,14681,25894,23203,32043,17634,5
0.0,0.0,0.0,14726,25843,23225,32108,17600,5
0.0,0.0,0.0,14846,25793,23248,32108,17652,5
0.0,0.0,0.0,15211,25818,23203,32108,17634,5
0.0,0.0,0.0,15459,25793,23203,32043,17600,5
0.0,0.0,0.0,15647,25894,23180,32108,17617,5
0.0,0.0,0.0,15319,25894,23157,32010,17669,5
0.0,0.0,0.0,15119,25894,23203,32108,17652,5
0.0,0.0,0.0,14982,25793,23203,32075,17669,5
0.0,0.0,0.0,14937,25869,23203,32010,17652,5
0.0,0.0,0.0,14801,25793,23225,32108,17704,5
0.0,0.0,0.0,14801,25767,23248,32108,17704,5
0.0,0.0,0.0,14666,25742,23180,32108,17669,5
0.0,0.0,0.0,14253,25818,23157,32043,17652,5
0.0,0.0,0.0,14370,25767,23180,32043,17634,5
0.0,0.0,0.0,14503,25793,23135,32043,17600,5
0.0,0.0,0.0,14756,25793,23157,32043,17652,5
0.0,0.0,0.0,14771,25818,23112,32010,17582,5
0.0,0.0,0.0,14666,25717,23067,32075,17669,5
0.0,0.0,0.0,14562,25793,23112,32108,17634,5
0.0,0.0,0.0,14458,25793,23112,32010,17634,5
0.0,0.0,0.0,14444,25717,23112,31978,17669,5
0.0,0.0,0.0,14399,25767,23112,32010,17634,5
0.0,0.0,0.0,14253,25767,23112,31978,17652,5
0.0,0.0,0.0,14050,25793,23157,32010,17634,5
0.0,0.0,0.0,13964,25767,23112,32010,17600,5
0.0,0.0,0.0,13863,25793,23067,32043,17600,5
0.0,0.0,0.0,13863,25691,23112,31978,17600,5
0.0,0.0,0.0,13849,25767,23090,31913,17600,5
0.0,0.0,0.0,13849,25717,23067,31946,17634,5
0.0,0.0,0.0,13806,25691,23112,32010,17634,5
0.0,0.0,0.0,13806,25742,23044,31978,17652,5
0.0,0.0,0.0,13792,25742,23022,31978,17600,5
0.0,0.0,0.0,13821,25742,23067,31978,17669,5
0.0,0.0,0.0,13921,25717,23044,31978,17582,5
0.0,0.0,0.0,13964,25717,23112,32010,17634,5
0.0,0.0,0.0,13921,25691,23112,31913,17687,5
0.0,0.0,0.0,13849,25691,23090,31978,17634,5
0.0,0.0,0.0,13806,25742,23044,31946,17704,5
0.0,0.0,0.0,13792,25641,23022,31913,17704,5
0.0,0.0,0.0,13778,25742,22977,31881,17722,5
0.0,0.0,0.0,13749,25717,23022,31978,17704,5
0.0,0.0,0.0,13764,25717,23022,31913,17722,5
0.0,0.0,0.0,13749,25691,23022,31849,17704,5
0.0,0.0,0.0,13735,25742,22999,31849,17739,5
0.0,0.0,0.0,13721,25717,23022,31849,17739,5
0.0,0.0,0.0,13679,25691,23022,31785,17722,5
0.0,0.0,0.0,13707,25641,23022,31849,17845,5
0.0,0.0,0.0,13707,25691,23022,31849,17739,5
0.0,0.0,0.0,13735,25616,22977,31849,17722,5
0.0,0.0,0.0,13693,25666,22977,31849,17774,5
0.0,0.0,0.0,13835,25691,23022,31849,17704,5
0.0,0.0,0.0,13906,25641,22977,31849,17774,5
0.0,0.0,0.0,13906,25691,22977,31849,17704,5
0.0,0.0,0.0,13849,25691,22955,31785,17739,5
0.0,0.0,0.0,13849,25742,22977,31785,17687,5
0.0,0.0,0.0,13906,25641,22977,31817,17774,5
0.0,0.0,0.0,13906,25691,22955,31849,17722,5
0.0,0.0,0.0,14108,25616,22977,31849,17739,5
0.0,0.0,0.0,14195,25616,22977,31849,17739,5
0.0,0.0,0.0,14311,25666,22932,31849,17739,5
0.0,0.0,0.0,14224,25591,22955,31785,17722,5
0.0,0.0,0.0,14166,25666,22910,31785,17722,5
0.0,0.0,0.0,14166,25616,22932,31720,17739,5
0.0,0.0,0.0,14137,25616,22932,31752,17774,5
0.0,0.0,0.0,14137,25591,22910,31817,17722,5
0.0,0.0,0.0,14079,25591,22932,31785,17774,5
0.0,0.0,0.0,14036,25616,22865,31720,17774,5
0.0,0.0,0.0,13978,25616,22932,31720,17739,5
0.0,0.0,0.0,13921,25616,22887,31785,17792,5
0.0,0.0,0.0,13906,25591,22932,31720,17757,5
0.0,0.0,0.0,13849,25540,22932,31720,17774,5
0.0,0.0,0.0,13863,25616,22843,31688,17757,5
0.0,0.0,0.0,14253,25641,22910,31785,17739,5
0.0,0.0,0.0,14636,25591,22910,31688,17792,5
0.0,0.0,0.0,14846,25616,22887,31720,17739,5
0.0,0.0,0.0,14907,25591,22932,31785,17809,5
0.0,0.0,0.0,14801,25515,22910,31752,17774,5
0.0,0.0,0.0,14786,25591,22932,31720,17792,5
0.0,0.0,0.0,14846,25591,22932,31688,17739,5
0.0,0.0,0.0,14846,25490,22887,31752,17809,5
0.0,0.0,0.0,14846,25591,22865,31624,17774,5
0.0,0.0,0.0,15028,25515,22910,31720,17774,5
0.0,0.0,0.0,15043,25540,22887,31688,17757,5
0.0,0.0,0.0,14937,25540,22887,31656,17774,5
0.0,0.0,0.0,14831,25490,22843,31624,17774,5
0.0,0.0,0.0,14726,25515,22887,31720,17792,5
0.0,0.0,0.0,14666,25540,22887,31593,17739,5
0.0,0.0,0.0,14547,25515,22865,31593,17792,5
0.0,0.0,0.0,14429,25540,22887,31593,17774,5
0.0,0.0,0.0,14399,25490,22843,31688,17827,5
0.0,0.0,0.0,14370,25515,22843,31656,17774,5
0.0,0.0,0.0,14297,25540,22865,31593,17809,5
0.0,0.0,0.0,14282,25490,22843,31593,17774,5
0.0,0.0,0.0,14253,25490,22887,31497,17845,5
0.0,0.0,0.0,14253,25490,22843,31593,17845,5
0.0,0.0,0.0,14253,25465,22865,31624,17845,5
0.0,0.0,0.0,14253,25540,22843,31624,17809,5
0.0,0.0,0.0,14224,25490,22843,31624,17933,5
0.0,0.0,0.0,14253,25490,22843,31593,17845,5
0.0,0.0,0.0,14253,25490,22843,31624,17898,5
0.0,0.0,0.0,14311,25565,22843,31529,17862,5
0.0,0.0,0.0,14385,25490,22798,31561,17845,5
0.0,0.0,0.0,14370,25490,22798,31593,17862,5
0.0,0.0,0.0,14399,25490,22798,31593,17880,5
0.0,0.0,0.0,14311,25440,22843,31624,17845,5
0.0,0.0,0.0,14311,25490,22843,31561,17845,5
0.0,0.0,0.0,14253,25515,22776,31529,17915,5
0.0,0.0,0.0,14224,25490,22798,31593,17862,5
0.0,0.0,0.0,14224,25440,22798,31497,17898,5
0.0,0.0,0.0,14209,25490,22843,31593,17862,5
0.0,0.0,0.0,14195,25490,22798,31465,17915,5
0.0,0.0,0.0,14195,25440,22798,31593,17880,5
0.0,0.0,0.0,14166,25540,22798,31593,17862,5
0.0,0.0,0.0,14137,25415,22776,31561,17880,5
0.0,0.0,0.0,14137,25465,22798,31465,17862,5
0.0,0.0,0.0,14166,25490,22776,31497,17880,5
0.0,0.0,0.0,14137,25490,22776,31529,17933,5
0.0,0.0,0.0,14079,25440,22754,31529,17880,5
0.0,0.0,0.0,14079,25490,22776,31465,17915,5
0.0,0.0,0.0,14036,25415,22798,31497,17915,5
0.0,0.0,0.0,14079,25415,22798,31529,17933,5
0.0,0.0,0.0,14108,25440,22798,31529,17915,5
0.0,0.0,0.0,14108,25390,22754,31465,17915,5
0.0,0.0,0.0,14122,25440,22754,31370,17933,5
0.0,0.0,0.0,14166,25440,22754,31465,17933,5
0.0,0.0,0.0,14414,25440,22731,31497,17845,5
0.0,0.0,0.0,14547,25440,22709,31370,17915,5
0.0,0.0,0.0,14666,25440,22754,31465,17880,5
0.0,0.0,0.0,14756,25440,22709,31465,17880,5
0.0,0.0,0.0,14711,25415,22709,31465,17915,5
0.0,0.0,0.0,14651,25490,22798,31465,17862,5
0.0,0.0,0.0,14577,25465,22709,31465,17933,5
0.0,0.0,0.0,14518,25390,22709,31402,17986,5
0.0,0.0,0.0,14370,25440,22709,31465,17915,5
0.0,0.0,0.0,14326,25390,22665,31370,17915,5
0.0,0.0,0.0,14253,25341,22665,31402,17951,5
0.0,0.0,0.0,14209,25390,22709,31402,17968,5
0.0,0.0,0.0,14268,25440,22687,31402,17933,5
0.0,0.0,0.0,14166,25440,22687,31465,17915,5
0.0,0.0,0.0,14282,25415,22665,31370,17915,5
0.0,0.0,0.0,14444,25390,22709,31402,17951,5
0.0,0.0,0.0,14488,25465,22621,31370,17951,5
0.0,0.0,0.0,14429,25390,22665,31339,17933,5
0.0,0.0,0.0,14399,25341,22665,31465,17951,5
0.0,0.0,0.0,14268,25390,22665,31307,17933,5
0.0,0.0,0.0,14108,25341,22621,31434,17933,5
0.0,0.0,0.0,14050,25341,22665,31434,17951,5
0.0,0.0,0.0,14021,25365,22621,31339,17915,5
0.0,0.0,0.0,13978,25341,22599,31276,17915,5
0.0,0.0,0.0,13964,25291,22599,31339,17986,5
0.0,0.0,0.0,13921,25291,22643,31402,17986,5
0.0,0.0,0.0,13863,25341,22621,31339,17915,5
0.0,0.0,0.0,13878,25316,22621,31370,17986,5
0.0,0.0,0.0,13906,25341,22599,31339,17915,5
0.0,0.0,0.0,14036,25341,22576,31339,17933,5
0.0,0.0,0.0,14385,25291,22576,31339,17915,5
0.0,0.0,0.0,14562,25341,22621,31370,17915,5
0.0,0.0,0.0,14726,25316,22621,31339,17933,5
0.0,0.0,0.0,14681,25341,22621,31339,17951,5
0.0,0.0,0.0,14666,25291,22621,31339,17986,5
0.0,0.0,0.0,14577,25291,22599,31339,17951,5
0.0,0.0,0.0,14518,25316,22576,31276,17951,5
0.0,0.0,0.0,14385,25316,22510,31339,17986,5
0.0,0.0,0.0,14370,25291,22576,31370,18004,5
0.0,0.0,0.0,14326,25291,22532,31276,17986,5
0.0,0.0,0.0,14282,25341,22599,31276,17968,5
0.0,0.0,0.0,14282,25291,22510,31213,17986,5
0.0,0.0,0.0,14311,25316,22576,31339,17951,5
0.0,0.0,0.0,14268,25266,22576,31276,17986,5
0.0,0.0,0.0,14253,25266,22532,31213,17986,5
0.0,0.0,0.0,14224,25291,22510,31276,17986,5
0.0,0.0,0.0,14195,25291,22510,31276,17968,5
0.0,0.0,0.0,14209,25291,22532,31213,17986,5
0.0,0.0,0.0,14195,25291,22532,31213,17951,5
0.0,0.0,0.0,14195,25241,22554,31276,17933,5
0.0,0.0,0.0,14195,25241,22576,31339,17951,5
0.0,0.0,0.0,14195,25316,22488,31244,17986,5
0.0,0.0,0.0,14166,25241,22532,31244,17968,5
0.0,0.0,0.0,14166,25241,22554,31276,17986,5
0.0,0.0,0.0,14166,25291,22510,31213,17986,5
0.0,0.0,0.0,14137,25192,22510,31244,18022,5
0.0,0.0,0.0,14137,25266,22576,31276,17986,5
0.0,0.0,0.0,14079,25241,22488,31244,17986,5
0.0,0.0,0.0,14064,25241,22510,31213,18022,5
0.0,0.0,0.0,14036,25266,22488,31150,18004,5
0.0,0.0,0.0,14050,25216,22488,31150,17986,5
0.0,0.0,0.0,14021,25241,22488,31087,18004,5
0.0,0.0,0.0,14021,25192,22532,31181,18004,5
0.0,0.0,0.0,14021,25291,22466,31119,17986,5
0.0,0.0,0.0,14021,25266,22488,31150,18022,5
0.0,0.0,0.0,13992,25241,22488,31181,18022,5
0.0,0.0,0.0,13964,25241,22444,31150,18022,5
0.0,0.0,0.0,13935,25192,22444,31119,18022,5
0.0,0.0,0.0,13964,25241,22488,31087,17986,5
0.0,0.0,0.0,13935,25241,22444,31087,18057,5
0.0,0.0,0.0,13964,25266,22444,31119,18004,5
0.0,0.0,0.0,13964,25192,22466,31119,18004,5
0.0,0.0,0.0,13935,25216,22488,31150,18022,5
0.0,0.0,0.0,13935,25167,22488,31087,18004,5
0.0,0.0,0.0,14021,25216,22488,31150,18057,5
0.0,0.0,0.0,14209,25216,22488,31150,18057,5
0.0,0.0,0.0,14414,25216,22488,31213,18022,5
0.0,0.0,0.0,14370,25216,22488,31119,18004,5
0.0,0.0,0.0,14326,25216,22488,31119,18022,5
0.0,0.0,0.0,14253,25216,22444,31119,17951,5
0.0,0.0,0.0,14166,25216,22488,31150,18022,5
0.0,0.0,0.0,14137,25216,22423,31150,18004,5
0.0,0.0,0.0,14079,25167,22444,31087,17933,5
0.0,0.0,0.0,14108,25192,22401,31056,17986,5
0.0,0.0,0.0,14036,25216,22444,31119,17986,5
0.0,0.0,0.0,14036,25192,22466,31087,17986,5
0.0,0.0,0.0,14021,25216,22444,31087,18004,5
0.0,0.0,0.0,14036,25142,22488,31087,17986,5
0.0,0.0,0.0,14079,25192,22444,30994,18022,5
0.0,0.0,0.0,14079,25192,22401,31056,17986,5
0.0,0.0,0.0,14036,25167,22488,31087,17968,5
0.0,0.0,0.0,14021,25167,22423,31087,17986,5
0.0,0.0,0.0,14079,25192,22444,31087,18004,5
0.0,0.0,0.0,14050,25192,22423,31150,17986,5
0.0,0.0,0.0,14108,25142,22444,31119,17986,5
0.0,0.0,0.0,14108,25192,22401,31025,17986,5
0.0,0.0,0.0,14195,25192,22401,31087,18022,5
0.0,0.0,0.0,13978,25216,22401,31150,17986,5
0.0,0.0,0.0,14036,25142,22444,31025,17986,5
0.0,0.0,0.0,13978,25192,22401,31087,18004,5
0.0,0.0,0.0,14021,25216,22423,31087,17986,5
0.0,0.0,0.0,14079,25118,22444,30994,17986,5
0.0,0.0,0.0,14108,25142,22423,31119,18004,5
0.0,0.0,0.0,14036,25167,22401,31025,18004,5
0.0,0.0,0.0,14021,25093,22423,31025,17986,5
0.0,0.0,0.0,14036,25192,22401,31087,18022,5
0.0,0.0,0.0,14050,25192,22401,30994,18004,5
0.0,0.0,0.0,14253,25142,22423,31025,18057,5
0.0,0.0,0.0,14238,25142,22401,31025,18004,5
0.0,0.0,0.0,14282,25142,22357,30994,17986,5
0.0,0.0,0.0,14253,25192,22401,31025,18039,5
0.0,0.0,0.0,14166,25167,22401,31025,18057,5
0.0,0.0,0.0,14108,25192,22401,30994,18022,5
0.0,0.0,0.0,14079,25093,22401,31025,17986,5
0.0,0.0,0.0,14108,25118,22401,31087,17986,5
0.0,0.0,0.0,14209,25142,22357,31025,18004,5
0.0,0.0,0.0,14195,25167,22335,31025,18057,5
0.0,0.0,0.0,14108,25142,22335,30962,18022,5
0.0,0.0,0.0,14050,25167,22335,31025,18057,5
0.0,0.0,0.0,13935,25118,22335,30962,18057,5
0.0,0.0,0.0,13878,25093,22335,30994,18057,5
0.0,0.0,0.0,13878,25093,22313,30962,18039,5
0.0,0.0,0.0,13863,25167,22335,30931,18057,5
0.0,0.0,0.0,14036,25093,22335,30962,18075,5
0.0,0.0,0.0,14036,25044,22313,31025,18057,5
0.0,0.0,0.0,14297,25093,22313,30900,18022,5
0.0,0.0,0.0,14547,25093,22313,30900,18022,5
0.0,0.0,0.0,14846,25093,22335,30962,18022,5
0.0,0.0,0.0,14997,25068,22313,30962,18039,5
0.0,0.0,0.0,15165,25093,22270,30962,17986,5
0.0,0.0,0.0,15211,25093,22270,30931,17986,5
0.0,0.0,0.0,15150,25044,22292,30931,18039,5
0.0,0.0,0.0,14997,25142,22313,30962,18039,5
0.0,0.0,0.0,14562,25044,22313,30900,18057,5
0.0,0.0,0.0,14209,25068,22313,30900,18004,5
0.0,0.0,0.0,14108,25093,22292,30869,18057,5
0.0,0.0,0.0,14007,24995,22292,30931,18057,5
0.0,0.0,0.0,14007,25093,22270,30869,18057,5
0.0,0.0,0.0,13992,25019,22313,30931,18075,5
0.0,0.0,0.0,13935,25044,22248,30962,18057,5
0.0,0.0,0.0,13863,25044,22313,30900,18057,5
0.0,0.0,0.0,13863,25044,22270,30900,18057,5
0.0,0.0,0.0,13821,25044,22270,30900,18022,5
0.0,0.0,0.0,13792,25093,22313,30869,18057,5
0.0,0.0,0.0,13792,25019,22248,30838,18039,5
0.0,0.0,0.0,13749,24995,22292,30869,18129,5
0.0,0.0,0.0,13735,25019,22270,30838,18075,5
0.0,0.0,0.0,13707,25044,22248,30869,18075,5
0.0,0.0,0.0,13707,24995,22226,30838,18039,5
0.0,0.0,0.0,13707,24995,22226,30869,18111,5
0.0,0.0,0.0,13679,25044,22226,30807,18075,5
0.0,0.0,0.0,13679,24995,22226,30838,18093,5
0.0,0.0,0.0,13679,25044,22205,30838,18057,5
0.0,0.0,0.0,13650,25142,22183,30838,18057,5
0.0,0.0,0.0,13650,24995,22226,30838,18129,5
0.0,0.0,0.0,13622,24995,22183,30776,18057,5
0.0,0.0,0.0,13622,25044,22248,30838,18075,5
0.0,0.0,0.0,13608,25019,22161,30838,18129,5
0.0,0.0,0.0,13594,24995,22226,30838,18129,5
0.0,0.0,0.0,13594,24995,22183,30776,18129,5
0.0,0.0,0.0,13566,24946,22205,30776,18129,5
0.0,0.0,0.0,13524,25044,22183,30807,18129,5
0.0,0.0,0.0,13524,24946,22226,30838,18111,5
0.0,0.0,0.0,13566,24946,22183,30776,18093,5
0.0,0.0,0.0,13524,24946,22183,30776,18164,5
0.0,0.0,0.0,13524,24995,22183,30838,18129,5
0.0,0.0,0.0,13566,25019,22183,30869,18147,5
0.0,0.0,0.0,13538,24995,22226,30838,18129,5
0.0,0.0,0.0,13510,24946,22161,30807,18164,5
0.0,0.0,0.0,13524,25019,22226,30776,18129,5
0.0,0.0,0.0,13679,24995,22161,30776,18129,5
0.0,0.0,0.0,13906,24995,22161,30807,18129,5
0.0,0.0,0.0,14137,25019,22140,30807,18129,5
0.0,0.0,0.0,14253,24946,22183,30776,18129,5
0.0,0.0,0.0,14370,24995,22140,30776,18129,5
0.0,0.0,0.0,14311,24995,22161,30745,18129,5
0.0,0.0,0.0,14311,24995,22140,30715,18129,5
0.0,0.0,0.0,14326,25044,22140,30684,18129,5
0.0,0.0,0.0,14253,24946,22161,30776,18200,5
0.0,0.0,0.0,14122,24970,22140,30776,18164,5
0.0,0.0,0.0,14021,24970,22140,30745,18164,5
0.0,0.0,0.0,13992,24946,22140,30776,18200,5
0.0,0.0,0.0,13906,24970,22140,30776,18164,5
0.0,0.0,0.0,13849,24946,22118,30745,18147,5
0.0,0.0,0.0,13806,24946,22140,30776,18164,5
0.0,0.0,0.0,13735,24995,22075,30745,18182,5
0.0,0.0,0.0,13693,24946,22140,30776,18164,5
0.0,0.0,0.0,13721,24946,22118,30776,18200,5
0.0,0.0,0.0,13892,24946,22140,30745,18164,5
0.0,0.0,0.0,14458,24970,22096,30715,18164,5
0.0,0.0,0.0,15335,24946,22096,30715,18164,5
0.0,0.0,0.0,15521,24897,22140,30745,18200,5
0.0,0.0,0.0,14907,24946,22096,30715,18200,5
0.0,0.0,0.0,14429,24897,22118,30715,18200,5
0.0,0.0,0.0,14297,24946,22075,30684,18236,5
0.0,0.0,0.0,14195,24921,22053,30653,18200,5
0.0,0.0,0.0,14108,24946,22096,30715,18236,5
0.0,0.0,0.0,14079,24921,22053,30715,18218,5
0.0,0.0,0.0,14166,24897,22096,30715,18236,5
0.0,0.0,0.0,14108,24848,22053,30715,18164,5
0.0,0.0,0.0,14488,24848,22053,30715,18236,5
0.0,0.0,0.0,14370,24897,22053,30653,18200,5
0.0,0.0,0.0,14166,24897,22010,30653,18200,5
0.0,0.0,0.0,13906,24848,22010,30653,18272,5
0.0,0.0,0.0,13792,24848,22053,30684,18200,5
0.0,0.0,0.0,13735,24848,22010,30684,18200,5
0.0,0.0,0.0,13679,24848,22010,30653,18236,5
0.0,0.0,0.0,13650,24799,22032,30653,18200,5
0.0,0.0,0.0,13622,24799,22053,30622,18218,5
0.0,0.0,0.0,13580,24848,22010,30715,18236,5
0.0,0.0,0.0,13594,24848,22053,30684,18218,5
0.0,0.0,0.0,13764,24824,22053,30715,18200,5
0.0,0.0,0.0,14326,24897,22053,30622,18218,5
0.0,0.0,0.0,15319,24873,22010,30715,18182,5
0.0,0.0,0.0,16157,24824,22010,30653,18236,5
0.0,0.0,0.0,15227,24873,22096,30653,18272,5
0.0,0.0,0.0,15028,24873,22053,30653,18308,5
0.0,0.0,0.0,14801,24873,22010,30591,18272,5
0.0,0.0,0.0,14907,24799,22010,30530,18272,5
0.0,0.0,0.0,14967,24799,22010,30653,18290,5
0.0,0.0,0.0,15319,24751,22010,30530,18308,5
0.0,0.0,0.0,15319,24702,22010,30591,18308,5
0.0,0.0,0.0,15288,24799,21967,30994,18272,5
0.0,0.0,0.0,14666,24727,22010,30530,18326,5
0.0,0.0,0.0,14224,24799,22010,30530,18308,5
0.0,0.0,0.0,14036,24775,22010,30591,18272,5
0.0,0.0,0.0,13906,24751,21967,31025,18308,5
0.0,0.0,0.0,13622,24727,22010,30499,18272,5
0.0,0.0,0.0,13524,24751,22010,30469,18272,5
0.0,0.0,0.0,13510,24727,22010,30499,18344,5
0.0,0.0,0.0,13510,24702,21882,30962,18272,5
0.0,0.0,0.0,13468,24751,21903,30900,18272,5
0.0,0.0,0.0,13454,24702,21903,30994,18308,5
0.0,0.0,0.0,13398,24702,21924,30931,18272,5
0.0,0.0,0.0,13398,24727,21903,30994,18272,5
0.0,0.0,0.0,13398,24727,21903,30994,18272,5
0.0,0.0,0.0,13371,24702,21882,30962,18290,5
0.0,0.0,0.0,13343,24727,21924,30962,18272,5
0.0,0.0,0.0,13357,24702,21882,30962,18308,5
0.0,0.0,0.0,13343,24702,21924,30962,18272,5
0.0,0.0,0.0,13287,24702,21882,30962,18272,5
0.0,0.0,0.0,13260,24702,21903,30994,18290,5
0.0,0.0,0.0,13205,24630,21924,30900,18308,5
0.0,0.0,0.0,13205,24654,21903,30962,18290,5
0.0,0.0,0.0,13163,24775,21882,30962,18308,5
0.0,0.0,0.0,13122,24727,21903,30962,18308,5
0.0,0.0,0.0,13068,24702,21882,30869,18344,5
0.0,0.0,0.0,13068,24702,21860,30869,18290,5
0.0,0.0,0.0,13013,24678,21882,30900,18308,5
0.0,0.0,0.0,12959,24654,21924,30900,18344,5
0.0,0.0,0.0,12972,24702,21903,30869,18344,5
0.0,0.0,0.0,12932,24702,21882,30900,18308,5
0.0,0.0,0.0,12918,24702,21839,30869,18344,5
0.0,0.0,0.0,12905,24702,21882,30900,18344,5
0.0,0.0,0.0,12864,24702,21818,30838,18344,5
0.0,0.0,0.0,12851,24654,21882,30838,18344,5
0.0,0.0,0.0,12837,24654,21882,30869,18344,5
0.0,0.0,0.0,12851,24727,21818,30838,18344,5
0.0,0.0,0.0,12851,24654,21860,30838,18380,5
0.0,0.0,0.0,12851,24654,21882,30838,18344,5
0.0,0.0,0.0,12851,24702,21839,30838,18380,5
0.0,0.0,0.0,13191,24678,21839,30838,18362,5
0.0,0.0,0.0,13566,24702,21818,30807,18272,5
0.0,0.0,0.0,13992,24702,21839,30838,18236,5
0.0,0.0,0.0,14122,24630,21882,30869,18200,5
0.0,0.0,0.0,14666,24654,21839,30776,18236,5
0.0,0.0,0.0,14444,24702,21882,30807,18272,5
0.0,0.0,0.0,14607,24751,21882,30807,18200,5
0.0,0.0,0.0,14488,24606,21839,30838,18200,5
0.0,0.0,0.0,14458,24654,21882,30838,18236,5
0.0,0.0,0.0,14429,24702,21860,30838,18200,5
0.0,0.0,0.0,14399,24678,21818,30807,18236,5
0.0,0.0,0.0,14414,24702,21839,30838,18236,5
0.0,0.0,0.0,14488,24630,21818,30715,18236,5
0.0,0.0,0.0,14592,24582,21796,30776,18236,5
0.0,0.0,0.0,14518,24654,21796,30776,18200,5
0.0,0.0,0.0,14681,24702,21818,30715,18236,5
0.0,0.0,0.0,15242,24606,21796,30715,18218,5
0.0,0.0,0.0,15868,24606,21796,30807,18272,5
0.0,0.0,0.0,15964,24606,21796,30869,18290,5
0.0,0.0,0.0,15932,24534,21796,30838,18308,5
0.0,0.0,0.0,16287,24558,21796,30838,18344,5
0.0,0.0,0.0,15089,24702,21818,30776,18344,5
0.0,0.0,0.0,14967,24702,21860,30838,18362,5
0.0,0.0,0.0,14982,24678,21882,30745,18380,5
0.0,0.0,0.0,14922,24727,21839,30776,18417,5
0.0,0.0,0.0,14846,24702,21818,30715,18380,5
0.0,0.0,0.0,14681,24702,21839,30715,18380,5
0.0,0.0,0.0,14458,24654,21818,30653,18417,5
0.0,0.0,0.0,14282,24630,21796,30684,18417,5
0.0,0.0,0.0,13524,24630,21754,30715,18344,5
0.0,0.0,0.0,13849,24606,21796,30715,18362,5
0.0,0.0,0.0,13978,24534,21754,30715,18380,5
0.0,0.0,0.0,14253,24606,21733,30684,18362,5
0.0,0.0,0.0,14050,24606,21754,30684,18399,5
0.0,0.0,0.0,13821,24534,21754,30684,18344,5
0.0,0.0,0.0,13566,24558,21754,30684,18344,5
0.0,0.0,0.0,13454,24558,21733,30653,18344,5
0.0,0.0,0.0,13343,24582,21754,30591,18344,5
0.0,0.0,0.0,13329,24558,21754,30653,18380,5
0.0,0.0,0.0,13315,24510,21754,30591,18399,5
0.0,0.0,0.0,13246,24462,21733,30622,18362,5
0.0,0.0,0.0,13218,24510,21711,30591,18380,5
0.0,0.0,0.0,13177,24606,21711,30622,18344,5
0.0,0.0,0.0,13205,24510,21754,30653,18417,5
0.0,0.0,0.0,13205,24558,21711,30622,18380,5
0.0,0.0,0.0,13177,24534,21669,30591,18417,5
0.0,0.0,0.0,13122,24510,21711,30591,18380,5
0.0,0.0,0.0,13122,24534,21648,30653,18417,5
0.0,0.0,0.0,13068,24510,21711,30653,18417,5
0.0,0.0,0.0,13040,24510,21711,30591,18417,5
0.0,0.0,0.0,12972,24534,21711,30622,18362,5
0.0,0.0,0.0,12972,24558,21690,30591,18417,5
0.0,0.0,0.0,12972,24558,21711,30591,18362,5
0.0,0.0,0.0,13315,24486,21648,30561,18399,5
0.0,0.0,0.0,13707,24462,21711,30591,18380,5
0.0,0.0,0.0,14137,24510,21648,30591,18380,5
0.0,0.0,0.0,14922,24486,21711,30591,18399,5
0.0,0.0,0.0,15150,24486,21669,30591,18362,5
0.0,0.0,0.0,14488,24534,21711,30530,18380,5
0.0,0.0,0.0,14370,24510,21733,30530,18399,5
0.0,0.0,0.0,14282,24510,21711,30499,18417,5
0.0,0.0,0.0,14195,24486,21711,30591,18417,5
0.0,0.0,0.0,14151,24510,21711,30591,18453,5
0.0,0.0,0.0,14108,24534,21648,30530,18435,5
0.0,0.0,0.0,13992,24510,21690,30530,18453,5
0.0,0.0,0.0,13964,24414,21711,30530,18435,5
0.0,0.0,0.0,13849,24438,21669,30530,18417,5
0.0,0.0,0.0,13792,24462,21711,30530,18380,5
0.0,0.0,0.0,13764,24414,21669,30591,18417,5
0.0,0.0,0.0,13693,24462,21648,30591,18417,5
0.0,0.0,0.0,13650,24462,21648,30499,18417,5
0.0,0.0,0.0,13650,24438,21669,30499,18417,5
0.0,0.0,0.0,13608,24462,21669,30499,18362,5
0.0,0.0,0.0,13566,24462,21648,30499,18453,5
0.0,0.0,0.0,13524,24438,21648,30499,18435,5
0.0,0.0,0.0,13510,24462,21648,30530,18435,5
0.0,0.0,0.0,13707,24510,21648,30561,18380,5
0.0,0.0,0.0,13964,24414,21648,30469,18417,5
0.0,0.0,0.0,14326,24414,21648,30499,18380,5
0.0,0.0,0.0,14488,24414,21648,30591,18417,5
0.0,0.0,0.0,14607,24414,21648,30530,18453,5
0.0,0.0,0.0,14577,24414,21648,30469,18417,5
0.0,0.0,0.0,14282,24342,21648,30530,18435,5
0.0,0.0,0.0,13935,24462,21648,30499,18453,5
0.0,0.0,0.0,13764,24414,21648,30591,18417,5
0.0,0.0,0.0,13721,24462,21648,30469,18417,5
0.0,0.0,0.0,13636,24414,21711,30499,18435,5
0.0,0.0,0.0,13594,24414,21648,30530,18417,5
0.0,0.0,0.0,13580,24366,21648,30469,18417,5
0.0,0.0,0.0,13622,24414,21627,30469,18417,5
0.0,0.0,0.0,13566,24390,21648,30469,18417,5
0.0,0.0,0.0,13524,24414,21627,30530,18417,5
0.0,0.0,0.0,13566,24414,21648,30499,18435,5
0.0,0.0,0.0,13552,24414,21627,30499,18417,5
0.0,0.0,0.0,13594,24414,21627,30469,18435,5
0.0,0.0,0.0,13650,24414,21627,30499,18435,5
0.0,0.0,0.0,13735,24390,21648,30469,18435,5
0.0,0.0,0.0,13978,24438,21606,30469,18417,5
0.0,0.0,0.0,14166,24366,21627,30469,18489,5
0.0,0.0,0.0,14488,24438,21627,30499,18417,5
0.0,0.0,0.0,14592,24510,21627,30530,18489,5
0.0,0.0,0.0,14696,24510,21627,30469,18453,5
0.0,0.0,0.0,14696,24462,21648,30469,18489,5
0.0,0.0,0.0,14621,24462,21648,30469,18471,5
0.0,0.0,0.0,14741,24414,21627,30469,18489,5
0.0,0.0,0.0,14666,24414,21627,30499,18435,5
0.0,0.0,0.0,14967,24414,21627,30499,18453,5
0.0,0.0,0.0,15074,24414,21627,30469,18489,5
0.0,0.0,0.0,15181,24390,21627,30499,18489,5
0.0,0.0,0.0,15089,24414,21584,30469,18453,5
0.0,0.0,0.0,14876,24414,21584,30499,18435,5
0.0,0.0,0.0,14607,24414,21627,30469,18489,5
0.0,0.0,0.0,14444,24366,21584,30499,18453,5
0.0,0.0,0.0,14326,24366,21584,30469,18489,5
0.0,0.0,0.0,14268,24414,21606,30469,18453,5
0.0,0.0,0.0,14224,24366,21584,30499,18435,5
0.0,0.0,0.0,14209,24438,21627,30408,18471,5
0.0,0.0,0.0,14268,24462,21563,30469,18453,5
0.0,0.0,0.0,14282,24414,21584,30469,18508,5
0.0,0.0,0.0,14195,24438,21584,30408,18489,5
0.0,0.0,0.0,14224,24438,21606,30561,18489,5
0.0,0.0,0.0,14399,24510,21606,30408,18489,5
0.0,0.0,0.0,14562,24486,21648,30530,18562,5
0.0,0.0,0.0,14488,24462,21627,30469,18489,5
0.0,0.0,0.0,14370,24510,21584,30438,18489,5
0.0,0.0,0.0,14209,24462,21584,30469,18489,5
0.0,0.0,0.0,14151,24438,21584,30469,18526,5
0.0,0.0,0.0,14064,24438,21584,30469,18489,5
0.0,0.0,0.0,14050,24462,21563,30377,18453,5
0.0,0.0,0.0,14007,24462,21627,30438,18453,5
0.0,0.0,0.0,13964,24414,21606,30469,18489,5
0.0,0.0,0.0,13964,24462,21584,30469,18453,5
0.0,0.0,0.0,13964,24438,21606,30469,18453,5
0.0,0.0,0.0,13964,24414,21627,30408,18508,5
0.0,0.0,0.0,13906,24414,21584,30469,18508,5
0.0,0.0,0.0,13863,24366,21584,30438,18453,5
0.0,0.0,0.0,13863,24414,21584,30438,18471,5
0.0,0.0,0.0,13849,24462,21563,30347,18453,5
0.0,0.0,0.0,13821,24414,21584,30377,18489,5
0.0,0.0,0.0,13764,24366,21563,30408,18471,5
0.0,0.0,0.0,13735,24342,21606,30408,18489,5
0.0,0.0,0.0,13679,24414,21563,30347,18489,5
0.0,0.0,0.0,13679,24438,21563,30469,18489,5
0.0,0.0,0.0,13594,24366,21563,30377,18453,5
0.0,0.0,0.0,13594,24390,21563,30347,18471,5
0.0,0.0,0.0,13608,24366,21542,30377,18453,5
0.0,0.0,0.0,13693,24390,21563,30347,18508,5
0.0,0.0,0.0,13978,24318,21584,30408,18489,5
0.0,0.0,0.0,14311,24342,21584,30377,18526,5
0.0,0.0,0.0,14488,24414,21563,30408,18508,5
0.0,0.0,0.0,14607,24366,21584,30347,18489,5
0.0,0.0,0.0,14488,24366,21584,30377,18453,5
0.0,0.0,0.0,14726,24414,21584,30347,18489,5
0.0,0.0,0.0,14268,24366,21563,30408,18453,5
0.0,0.0,0.0,14253,24414,21606,30408,18453,5
0.0,0.0,0.0,13992,24366,21563,30438,18489,5
0.0,0.0,0.0,13964,24366,21542,30317,18489,5
0.0,0.0,0.0,13792,24366,21521,30347,18453,5
0.0,0.0,0.0,13679,24342,21542,30408,18435,5
0.0,0.0,0.0,13636,24366,21542,30347,18489,5
0.0,0.0,0.0,13594,24318,21542,30347,18489,5
0.0,0.0,0.0,13538,24366,21500,30347,18453,5
0.0,0.0,0.0,13468,24318,21521,30347,18453,5
0.0,0.0,0.0,13412,24366,21479,30347,18453,5
0.0,0.0,0.0,13398,24318,21521,30317,18489,5
0.0,0.0,0.0,13357,24366,21542,30377,18417,5
0.0,0.0,0.0,13398,24342,21563,30377,18417,5
0.0,0.0,0.0,13749,24318,21542,30347,18489,5
0.0,0.0,0.0,14636,24342,21542,30347,18489,5
0.0,0.0,0.0,14370,24414,21479,30286,18489,5
0.0,0.0,0.0,14282,24438,21542,30347,18471,5
0.0,0.0,0.0,14195,24318,21584,30347,18508,5
0.0,0.0,0.0,14137,24366,21542,30286,18489,5
0.0,0.0,0.0,13906,24342,21542,30377,18489,5
0.0,0.0,0.0,13792,24342,21542,30347,18489,5
0.0,0.0,0.0,13735,24318,21500,30256,18489,5
0.0,0.0,0.0,13735,24318,21500,30256,18489,5
0.0,0.0,0.0,13622,24318,21500,30286,18508,5
0.0,0.0,0.0,13566,24318,21542,30377,18489,5
0.0,0.0,0.0,13510,24271,21542,30347,18435,5
0.0,0.0,0.0,13510,24271,21521,30286,18508,5
0.0,0.0,0.0,13510,24294,21479,30286,18508,5
0.0,0.0,0.0,13510,24342,21479,30256,18489,5
0.0,0.0,0.0,13964,24271,21500,30347,18508,5
0.0,0.0,0.0,14967,24294,21500,30347,18508,5
0.0,0.0,0.0,15397,24247,21500,30347,18435,5
0.0,0.0,0.0,15521,24318,21521,30347,18489,5
0.0,0.0,0.0,15615,24294,21479,30377,18489,5
0.0,0.0,0.0,15475,24271,21479,30347,18453,5
0.0,0.0,0.0,14592,24318,21500,30286,18453,5
0.0,0.0,0.0,14253,24318,21500,30347,18489,5
0.0,0.0,0.0,14355,24366,21500,30286,18453,5
0.0,0.0,0.0,14311,24342,21479,30347,18489,5
0.0,0.0,0.0,14195,24390,21500,30286,18526,5
0.0,0.0,0.0,14137,24342,21458,30286,18508,5
0.0,0.0,0.0,14108,24318,21500,30286,18453,5
0.0,0.0,0.0,14137,24318,21479,30226,18453,5
0.0,0.0,0.0,14050,24318,21500,30286,18489,5
0.0,0.0,0.0,14050,24271,21458,30286,18489,5
0.0,0.0,0.0,14036,24271,21479,30226,18562,5
0.0,0.0,0.0,13992,24318,21458,30226,18489,5
0.0,0.0,0.0,13921,24294,21458,30226,18489,5
0.0,0.0,0.0,13921,24271,21500,30256,18526,5
0.0,0.0,0.0,13935,24247,21458,30256,18489,5
0.0,0.0,0.0,13906,24271,21458,30226,18489,5
0.0,0.0,0.0,13878,24271,21458,30286,18508,5
0.0,0.0,0.0,13863,24247,21458,30256,18508,5
0.0,0.0,0.0,13863,24271,21458,30226,18489,5
0.0,0.0,0.0,13863,24247,21479,30256,18562,5
0.0,0.0,0.0,13821,24271,21458,30226,18508,5
0.0,0.0,0.0,13792,24152,21458,30286,18489,5
0.0,0.0,0.0,13863,24247,21458,30226,18526,5
0.0,0.0,0.0,14079,24223,21437,30226,18526,5
0.0,0.0,0.0,14079,24247,21395,30165,18508,5
0.0,0.0,0.0,14108,24247,21458,30256,18489,5
0.0,0.0,0.0,13749,24247,21416,30226,18453,5
0.0,0.0,0.0,13821,24223,21437,30226,18489,5
0.0,0.0,0.0,14137,24247,21458,30165,18526,5
0.0,0.0,0.0,14195,24223,21416,30256,18489,5
0.0,0.0,0.0,13821,24271,21395,30165,18489,5
0.0,0.0,0.0,13792,24247,21416,30256,18489,5
0.0,0.0,0.0,13849,24271,21395,30226,18526,5
0.0,0.0,0.0,13863,24223,21416,30165,18526,5
0.0,0.0,0.0,13821,24223,21416,30195,18526,5
0.0,0.0,0.0,13679,24271,21375,30165,18508,5
0.0,0.0,0.0,13510,24199,21395,30226,18508,5
0.0,0.0,0.0,13246,24129,21416,30226,18508,5
0.0,0.0,0.0,13426,24223,21375,30226,18489,5
0.0,0.0,0.0,13622,24176,21395,30226,18526,5
0.0,0.0,0.0,14137,24223,21416,30226,18489,5
0.0,0.0,0.0,14577,24223,21395,30165,18526,5
0.0,0.0,0.0,14253,24199,21375,30195,18526,5
0.0,0.0,0.0,13863,24223,21416,30226,18544,5
0.0,0.0,0.0,13964,24271,21395,30165,18526,5
0.0,0.0,0.0,13921,24223,21416,30165,18581,5
0.0,0.0,0.0,13949,24223,21375,30165,18599,5
0.0,0.0,0.0,14166,24223,21416,30165,18544,5
0.0,0.0,0.0,14297,24176,21375,30165,18526,5
0.0,0.0,0.0,14268,24176,21375,30226,18562,5
0.0,0.0,0.0,14370,24176,21375,30165,18489,5
0.0,0.0,0.0,14137,24129,21375,30226,18508,5
0.0,0.0,0.0,14122,24152,21375,30165,18489,5
0.0,0.0,0.0,14137,24129,21354,30226,18489,5
0.0,0.0,0.0,13735,24176,21395,30226,18508,5
0.0,0.0,0.0,13594,24199,21395,30165,18562,5
0.0,0.0,0.0,13821,24199,21375,30165,18581,5
0.0,0.0,0.0,13806,24223,21333,30105,18508,5
0.0,0.0,0.0,13806,24176,21395,30165,18562,5
0.0,0.0,0.0,13707,24176,21375,30165,18508,5
0.0,0.0,0.0,13863,24176,21375,30165,18526,5
0.0,0.0,0.0,13964,24129,21333,30165,18562,5
0.0,0.0,0.0,14064,24081,21333,30165,18508,5
0.0,0.0,0.0,14079,24152,21333,30165,18508,5
0.0,0.0,0.0,14108,24081,21312,30105,18508,5
0.0,0.0,0.0,13978,24129,21375,30165,18508,5
0.0,0.0,0.0,13566,24129,21375,30165,18562,5
0.0,0.0,0.0,13454,24176,21333,30165,18508,5
0.0,0.0,0.0,13679,24129,21375,30135,18562,5
0.0,0.0,0.0,13735,24152,21312,30226,18562,5
0.0,0.0,0.0,13735,24129,21375,30165,18544,5
0.0,0.0,0.0,13764,24176,21333,30105,18581,5
0.0,0.0,0.0,13935,24129,21375,30165,18581,5
0.0,0.0,0.0,14997,24034,21375,30195,18508,5
0.0,0.0,0.0,15980,24129,21312,30195,18508,5
0.0,0.0,0.0,16173,24105,21375,30256,18526,5
0.0,0.0,0.0,16238,24058,21375,30256,18489,5
0.0,0.0,0.0,16060,24081,21375,30165,18489,5
0.0,0.0,0.0,15710,24129,21375,30226,18544,5
0.0,0.0,0.0,14967,24081,21375,30165,18508,5
0.0,0.0,0.0,14414,24129,21354,30165,18508,5
0.0,0.0,0.0,14547,24176,21375,30165,18508,5
0.0,0.0,0.0,14607,24176,21395,30165,18562,5
0.0,0.0,0.0,14621,24223,21375,30105,18562,5
0.0,0.0,0.0,14562,24199,21375,30105,18508,5
0.0,0.0,0.0,14488,24176,21395,30135,18526,5
0.0,0.0,0.0,14429,24176,21375,30105,18562,5
0.0,0.0,0.0,14370,24152,21375,30045,18581,5
0.0,0.0,0.0,14370,24223,21375,30045,18562,5
0.0,0.0,0.0,14666,24129,21354,30105,18544,5
0.0,0.0,0.0,15741,24129,21375,30165,18562,5
0.0,0.0,0.0,16028,24129,21375,30105,18544,5
0.0,0.0,0.0,16012,24081,21354,30165,18526,5
0.0,0.0,0.0,15916,24129,21354,30165,18526,5
0.0,0.0,0.0,15852,24152,21375,30135,18526,5
0.0,0.0,0.0,15741,24105,21333,30165,18562,5
0.0,0.0,0.0,15647,24105,21291,30105,18526,5
0.0,0.0,0.0,15397,24129,21312,30165,18562,5
0.0,0.0,0.0,14937,24058,21354,30105,18508,5
0.0,0.0,0.0,14444,24129,21375,30045,18526,5
0.0,0.0,0.0,14195,24129,21375,30105,18562,5
0.0,0.0,0.0,14021,24105,21333,30105,18526,5
0.0,0.0,0.0,13935,24152,21333,30105,18562,5
0.0,0.0,0.0,13978,24152,21312,30075,18581,5
0.0,0.0,0.0,14050,24176,21354,30015,18508,5
0.0,0.0,0.0,14137,24152,21333,30045,18581,5
0.0,0.0,0.0,14224,24176,21333,30105,18581,5
0.0,0.0,0.0,14224,24176,21375,30105,18635,5
0.0,0.0,0.0,14195,24199,21375,30045,18562,5
0.0,0.0,0.0,14195,24176,21375,30105,18599,5
0.0,0.0,0.0,14137,24152,21354,30105,18635,5
0.0,0.0,0.0,14137,24129,21375,30105,18562,5
0.0,0.0,0.0,14108,24152,21312,30015,18635,5
0.0,0.0,0.0,14108,24129,21375,30105,18617,5
0.0,0.0,0.0,14166,24058,21333,30015,18635,5
0.0,0.0,0.0,14370,24129,21312,30075,18562,5
0.0,0.0,0.0,14562,24081,21375,30105,18599,5
0.0,0.0,0.0,14741,24081,21333,30165,18599,5
0.0,0.0,0.0,14429,24081,21333,30105,18562,5
0.0,0.0,0.0,14621,24129,21333,30045,18599,5
0.0,0.0,0.0,15058,24081,21333,30165,18562,5
0.0,0.0,0.0,14547,24105,21375,30105,18581,5
0.0,0.0,0.0,14311,24129,21333,30075,18562,5
0.0,0.0,0.0,14370,24152,21354,30105,18581,5
0.0,0.0,0.0,14385,24176,21375,30045,18635,5
0.0,0.0,0.0,14370,24199,21375,30105,18635,5
0.0,0.0,0.0,14311,24176,21375,30045,18581,5
0.0,0.0,0.0,14224,24176,21395,30045,18635,5
0.0,0.0,0.0,14180,24176,21375,30045,18635,5
0.0,0.0,0.0,14166,24152,21416,30105,18635,5
0.0,0.0,0.0,14036,24223,21375,30105,18599,5
0.0,0.0,0.0,13315,24129,21375,30105,18654,5
0.0,0.0,0.0,13538,24129,21312,30105,18672,5
0.0,0.0,0.0,13821,24129,21354,30105,18599,5
0.0,0.0,0.0,14007,24081,21333,30105,18635,5
0.0,0.0,0.0,14036,24129,21375,30105,18635,5
0.0,0.0,0.0,13849,24081,21333,30195,18635,5
0.0,0.0,0.0,13454,24034,21312,30105,18654,5
0.0,0.0,0.0,13566,24081,21291,30045,18654,5
0.0,0.0,0.0,13636,24058,21333,30045,18654,5
0.0,0.0,0.0,13749,24058,21312,30105,18654,5
0.0,0.0,0.0,13935,24129,21375,30075,18709,5
0.0,0.0,0.0,14021,24129,21291,30045,18691,5
0.0,0.0,0.0,14036,24058,21333,30045,18654,5
0.0,0.0,0.0,14021,24129,21312,30075,18635,5
0.0,0.0,0.0,13935,24081,21375,30045,18672,5
0.0,0.0,0.0,13792,24129,21312,30015,18635,5
0.0,0.0,0.0,13343,24129,21291,30045,18635,5
0.0,0.0,0.0,13068,24081,21312,30015,18654,5
0.0,0.0,0.0,13357,24058,21229,30045,18635,5
0.0,0.0,0.0,13329,24081,21291,30045,18635,5
0.0,0.0,0.0,13849,24105,21291,30045,18654,5
0.0,0.0,0.0,14268,24011,21291,30015,18635,5
0.0,0.0,0.0,13849,24034,21291,30045,18672,5
0.0,0.0,0.0,13878,24034,21333,30045,18635,5
0.0,0.0,0.0,13707,24105,21291,30015,18654,5
0.0,0.0,0.0,13707,24081,21291,30015,18672,5
0.0,0.0,0.0,13622,24034,21229,30045,18654,5
0.0,0.0,0.0,13510,24081,21291,29984,18654,5
0.0,0.0,0.0,13398,24058,21229,29984,18635,5
0.0,0.0,0.0,13150,24034,21291,30045,18654,5
0.0,0.0,0.0,13232,24034,21270,30015,18709,5
0.0,0.0,0.0,12918,24034,21291,30045,18672,5
0.0,0.0,0.0,12905,24058,21270,29984,18654,5
0.0,0.0,0.0,12864,24034,21270,30105,18691,5
0.0,0.0,0.0,12797,23987,21250,30075,18654,5
0.0,0.0,0.0,12864,24058,21291,30015,18709,5
0.0,0.0,0.0,12690,23987,21250,30045,18709,5
0.0,0.0,0.0,12690,23987,21250,30015,18635,5
0.0,0.0,0.0,12636,24034,21250,29984,18654,5
0.0,0.0,0.0,12583,23940,21229,30045,18709,5
0.0,0.0,0.0,12530,24034,21270,30015,18709,5
