GyroX,GyroY,GyroZ,Thumb,Index,Middle,Ring,Pinky,Gesture
0.0,0.0,0.0,16125,11855,10394,10748,42766,4
0.0,0.0,0.0,16109,11906,10394,10748,42719,4
0.0,0.0,0.0,16157,12021,10418,10748,42673,4
0.0,0.0,0.0,16157,12241,10441,10748,42580,4
0.0,0.0,0.0,16222,12241,10441,10771,42488,4
0.0,0.0,0.0,16157,12009,10418,10771,42719,4
0.0,0.0,0.0,16157,11932,10453,10748,42488,4
0.0,0.0,0.0,16157,11957,10511,10771,42673,4
0.0,0.0,0.0,16173,12215,10582,10891,42719,4
0.0,0.0,0.0,16157,12320,10617,10939,42719,4
0.0,0.0,0.0,16157,12385,10629,10963,42580,4
0.0,0.0,0.0,16157,12424,10594,10939,42534,4
0.0,0.0,0.0,16189,12490,10570,10927,42395,4
0.0,0.0,0.0,16157,12477,10582,10915,42304,4
0.0,0.0,0.0,16189,12490,10535,10903,42212,4
0.0,0.0,0.0,16093,12530,10535,10903,42120,4
0.0,0.0,0.0,16109,12346,10546,10915,42258,4
0.0,0.0,0.0,16157,12228,10582,10963,42258,4
0.0,0.0,0.0,16157,12189,10629,11084,42304,4
0.0,0.0,0.0,16157,12215,10629,11109,42075,4
0.0,0.0,0.0,16189,12346,10629,11109,42166,4
0.0,0.0,0.0,16173,12477,10748,11109,42120,4
0.0,0.0,0.0,16189,12477,10831,11109,42120,4
0.0,0.0,0.0,16189,12610,11329,11109,42120,4
0.0,0.0,0.0,16189,12649,11440,11096,42120,4
0.0,0.0,0.0,16157,12824,11416,11084,41984,4
0.0,0.0,0.0,16157,13150,11403,11072,41893,4
0.0,0.0,0.0,16173,13315,11255,11084,41848,4
0.0,0.0,0.0,16173,13398,11157,11072,41757,4
0.0,0.0,0.0,16141,13232,11060,11072,41712,4
0.0,0.0,0.0,16189,13260,10963,11072,41757,4
0.0,0.0,0.0,16222,13371,10915,11072,41622,4
0.0,0.0,0.0,16238,13260,10963,11072,41667,4
0.0,0.0,0.0,16238,12797,10927,11109,41712,4
0.0,0.0,0.0,16254,12703,10915,11109,41399,4
0.0,0.0,0.0,16222,12649,10891,11084,41488,4
0.0,0.0,0.0,16222,12372,10903,11096,41488,4
0.0,0.0,0.0,16238,12451,10915,11084,41488,4
0.0,0.0,0.0,16222,12743,10963,11084,41443,4
0.0,0.0,0.0,16287,13122,10963,11084,41399,4
0.0,0.0,0.0,16222,13068,10939,11109,41399,4
0.0,0.0,0.0,16238,12530,10819,11084,41399,4
0.0,0.0,0.0,16271,12267,10771,11060,41354,4
0.0,0.0,0.0,16287,12176,10771,11109,41399,4
0.0,0.0,0.0,16287,12215,10795,11084,41309,4
0.0,0.0,0.0,16287,12228,10771,11096,41265,4
0.0,0.0,0.0,16287,12163,10783,11072,41354,4
0.0,0.0,0.0,16385,12073,10783,11072,41399,4
0.0,0.0,0.0,16401,12009,10819,11084,41354,4
0.0,0.0,0.0,16385,12060,10843,11084,41354,4
0.0,0.0,0.0,16385,12189,10843,11072,41399,4
0.0,0.0,0.0,16385,12610,10843,11084,41309,4
0.0,0.0,0.0,16368,12690,10819,11084,41399,4
0.0,0.0,0.0,16385,12424,10783,11072,41309,4
0.0,0.0,0.0,16352,12267,10748,11072,41221,4
0.0,0.0,0.0,16352,12215,10771,11072,41265,4
0.0,0.0,0.0,16352,12398,10819,11072,41265,4
0.0,0.0,0.0,16368,12730,10771,11060,41221,4
0.0,0.0,0.0,16401,12824,10748,11072,41443,4
0.0,0.0,0.0,16434,12797,10748,11060,41354,4
0.0,0.0,0.0,16417,12770,10748,11084,41309,4
0.0,0.0,0.0,16434,12797,10748,11060,41221,4
0.0,0.0,0.0,16434,12783,10724,11072,41265,4
0.0,0.0,0.0,16385,12703,10724,11060,41265,4
0.0,0.0,0.0,16385,12743,10724,11060,41132,4
0.0,0.0,0.0,16417,12797,10700,11060,41132,4
0.0,0.0,0.0,16368,12878,10700,11036,41088,4
0.0,0.0,0.0,16385,12918,10724,11060,41221,4
0.0,0.0,0.0,16385,13013,10676,11060,41221,4
0.0,0.0,0.0,16368,12959,10676,11012,41044,4
0.0,0.0,0.0,16352,12824,10629,10987,40955,4
0.0,0.0,0.0,16352,12797,10629,10987,40868,4
0.0,0.0,0.0,16352,12743,10605,10987,40955,4
0.0,0.0,0.0,16352,12636,10582,10987,40912,4
0.0,0.0,0.0,16352,12490,10594,10975,40868,4
0.0,0.0,0.0,16352,12424,10594,10987,40868,4
0.0,0.0,0.0,16368,12477,10582,10987,40824,4
0.0,0.0,0.0,16319,12490,10582,10963,40868,4
0.0,0.0,0.0,16319,12583,10582,10987,40780,4
0.0,0.0,0.0,16303,12797,10582,10987,40912,4
0.0,0.0,0.0,16303,12703,10594,10975,40780,4
0.0,0.0,0.0,16303,12690,10605,11012,40736,4
0.0,0.0,0.0,16303,12636,10605,11012,40780,4
0.0,0.0,0.0,16352,12583,10605,11036,40780,4
0.0,0.0,0.0,16352,12583,10605,11036,40736,4
0.0,0.0,0.0,16352,12556,10594,11060,40693,4
0.0,0.0,0.0,16352,12530,10594,11060,40780,4
0.0,0.0,0.0,16319,12530,10594,11060,40780,4
0.0,0.0,0.0,16352,12583,10605,11060,40649,4
0.0,0.0,0.0,16319,12649,10605,11084,40693,4
0.0,0.0,0.0,16303,12636,10605,11060,40780,4
0.0,0.0,0.0,16303,12583,10617,11072,40562,4
0.0,0.0,0.0,16303,12583,10605,11072,40780,4
0.0,0.0,0.0,16287,12556,10594,11072,40562,4
0.0,0.0,0.0,16287,12583,10594,11072,40519,4
0.0,0.0,0.0,16287,12556,10594,11060,40519,4
0.0,0.0,0.0,16303,12583,10582,11072,40562,4
0.0,0.0,0.0,16303,12464,10582,11060,40605,4
0.0,0.0,0.0,16303,12438,10594,11060,40475,4
0.0,0.0,0.0,16303,12372,10594,11060,40519,4
0.0,0.0,0.0,16303,12372,10594,11072,40605,4
0.0,0.0,0.0,16287,12372,10582,11060,40519,4
0.0,0.0,0.0,16287,12530,10582,11036,40519,4
0.0,0.0,0.0,16319,12583,10582,11060,40693,4
0.0,0.0,0.0,16287,12610,10582,11036,40519,4
0.0,0.0,0.0,16303,12636,10582,11024,40519,4
0.0,0.0,0.0,16287,12649,10546,11060,40432,4
0.0,0.0,0.0,16303,12596,10546,11024,40389,4
0.0,0.0,0.0,16303,12583,10546,11060,40432,4
0.0,0.0,0.0,16287,12583,10546,11060,40519,4
0.0,0.0,0.0,16303,12556,10546,11024,40432,4
0.0,0.0,0.0,16287,12543,10546,11060,40475,4
0.0,0.0,0.0,16287,12530,10546,11048,40475,4
0.0,0.0,0.0,16287,12530,10546,11036,40432,4
0.0,0.0,0.0,16287,12530,10546,11060,40389,4
0.0,0.0,0.0,16303,12570,10546,11060,40475,4
0.0,0.0,0.0,16303,12530,10546,11060,40519,4
0.0,0.0,0.0,16287,12543,10535,11036,40259,4
0.0,0.0,0.0,16303,12556,10535,11060,40389,4
0.0,0.0,0.0,16303,12530,10535,11048,40432,4
0.0,0.0,0.0,16287,12424,10546,11048,40346,4
0.0,0.0,0.0,16352,12346,10546,11036,40346,4
0.0,0.0,0.0,16303,12280,10582,11060,40432,4
0.0,0.0,0.0,16303,12215,10605,11060,40302,4
0.0,0.0,0.0,16303,12215,10629,11060,40346,4
0.0,0.0,0.0,16303,12215,10629,11072,40346,4
0.0,0.0,0.0,16303,12267,10629,11084,40346,4
0.0,0.0,0.0,16303,12267,10629,11060,40389,4
0.0,0.0,0.0,16303,12267,10605,11084,40346,4
0.0,0.0,0.0,16287,12267,10594,11060,40302,4
0.0,0.0,0.0,16303,12293,10594,11072,40259,4
0.0,0.0,0.0,16303,12267,10582,11084,40216,4
0.0,0.0,0.0,16287,12267,10582,11060,40173,4
0.0,0.0,0.0,16352,12280,10582,11060,40173,4
0.0,0.0,0.0,16303,12293,10582,11060,40131,4
0.0,0.0,0.0,16303,12293,10582,11072,40216,4
0.0,0.0,0.0,16352,12293,10582,11060,40173,4
0.0,0.0,0.0,16303,12320,10582,11060,40088,4
0.0,0.0,0.0,16303,12293,10582,11060,40302,4
0.0,0.0,0.0,16303,12293,10605,11060,40173,4
0.0,0.0,0.0,16303,12306,10558,11060,40216,4
0.0,0.0,0.0,16303,12293,10582,11084,40216,4
0.0,0.0,0.0,16303,12320,10582,11072,40131,4
0.0,0.0,0.0,16303,12293,10582,11072,40173,4
0.0,0.0,0.0,16336,12306,10594,11084,40131,4
0.0,0.0,0.0,16319,12306,10582,11096,40173,4
0.0,0.0,0.0,16303,12320,10605,11060,40173,4
0.0,0.0,0.0,16319,12346,10605,11072,40173,4
0.0,0.0,0.0,16303,12346,10605,11084,40088,4
0.0,0.0,0.0,16287,12346,10582,11072,40088,4
0.0,0.0,0.0,16303,12346,10582,11084,40088,4
0.0,0.0,0.0,16303,12346,10582,11072,40173,4
0.0,0.0,0.0,16303,12320,10582,11084,40045,4
0.0,0.0,0.0,16303,12346,10582,11072,40216,4
0.0,0.0,0.0,16303,12320,10570,11084,40088,4
0.0,0.0,0.0,16303,12346,10582,11084,40131,4
0.0,0.0,0.0,16287,12293,10582,11072,40173,4
0.0,0.0,0.0,16287,12267,10582,11084,40131,4
0.0,0.0,0.0,16287,12293,10582,11084,40131,4
0.0,0.0,0.0,16287,12267,10558,11060,40045,4
0.0,0.0,0.0,16287,12267,10582,11084,40173,4
0.0,0.0,0.0,16287,12267,10546,11096,40131,4
0.0,0.0,0.0,16303,12280,10594,11084,40088,4
0.0,0.0,0.0,16303,12267,10582,11084,40045,4
0.0,0.0,0.0,16303,12293,10546,11060,40002,4
0.0,0.0,0.0,16303,12267,10546,11036,40002,4
0.0,0.0,0.0,16336,12293,10546,11072,39917,4
0.0,0.0,0.0,16319,12438,10546,11084,40088,4
0.0,0.0,0.0,16303,12690,10570,11109,40002,4
0.0,0.0,0.0,16319,12649,10629,11109,40002,4
0.0,0.0,0.0,16352,12583,10629,11121,40045,4
0.0,0.0,0.0,16352,12543,10605,11133,40045,4
0.0,0.0,0.0,16303,12530,10605,11121,40088,4
0.0,0.0,0.0,16303,12490,10605,11133,40002,4
0.0,0.0,0.0,16352,12477,10605,11133,40002,4
0.0,0.0,0.0,16336,12451,10629,11133,40002,4
0.0,0.0,0.0,16303,12451,10582,11109,39917,4
0.0,0.0,0.0,16287,12451,10582,11084,39832,4
0.0,0.0,0.0,16352,12477,10546,11096,39874,4
0.0,0.0,0.0,16287,12504,10582,11109,39917,4
0.0,0.0,0.0,16303,12543,10594,11109,39874,4
0.0,0.0,0.0,16271,12570,10558,11072,39832,4
0.0,0.0,0.0,16303,12530,10570,11096,39832,4
0.0,0.0,0.0,16303,12530,10582,11096,39874,4
0.0,0.0,0.0,16303,12543,10535,11084,39917,4
0.0,0.0,0.0,16303,12504,10546,11072,40088,4
0.0,0.0,0.0,16287,12490,10558,11109,39832,4
0.0,0.0,0.0,16287,12477,10558,11109,39917,4
0.0,0.0,0.0,16303,12477,10535,11109,40002,4
0.0,0.0,0.0,16303,12477,10558,11072,40002,4
0.0,0.0,0.0,16303,12438,10535,11109,39917,4
0.0,0.0,0.0,16303,12424,10558,11084,39917,4
0.0,0.0,0.0,16287,12438,10546,11084,39832,4
0.0,0.0,0.0,16303,12398,10546,11072,39790,4
0.0,0.0,0.0,16287,12398,10546,11084,39832,4
0.0,0.0,0.0,16303,12372,10546,11084,39747,4
0.0,0.0,0.0,16287,12372,10546,11084,39747,4
0.0,0.0,0.0,16271,12346,10546,11084,39705,4
0.0,0.0,0.0,16287,12267,10546,11072,39747,4
0.0,0.0,0.0,16254,12124,10535,11084,39747,4
0.0,0.0,0.0,16238,12137,10535,11072,39663,4
0.0,0.0,0.0,16238,12124,10535,11060,39621,4
0.0,0.0,0.0,16222,12073,10523,11084,39747,4
0.0,0.0,0.0,16238,12099,10535,11096,39663,4
0.0,0.0,0.0,16238,12060,10535,11133,39578,4
0.0,0.0,0.0,16287,12073,10582,11133,39578,4
0.0,0.0,0.0,16271,12112,10629,11157,39494,4
0.0,0.0,0.0,16271,12163,10795,11206,39578,4
0.0,0.0,0.0,16222,12215,10819,11206,39578,4
0.0,0.0,0.0,16287,12385,10831,11206,39411,4
0.0,0.0,0.0,16238,12530,10819,11206,39494,4
0.0,0.0,0.0,16222,12690,10915,11255,39705,4
0.0,0.0,0.0,16222,12837,11109,11255,39790,4
0.0,0.0,0.0,16189,12972,11109,11231,39621,4
0.0,0.0,0.0,16157,13371,11145,11255,39536,4
0.0,0.0,0.0,16141,13566,11109,11255,39411,4
0.0,0.0,0.0,16125,13792,11012,11219,39494,4
0.0,0.0,0.0,16109,13454,10975,11206,39452,4
0.0,0.0,0.0,16109,13287,10939,11170,39411,4
0.0,0.0,0.0,16125,13232,10915,11194,39411,4
0.0,0.0,0.0,16093,13109,10903,11182,39327,4
0.0,0.0,0.0,16109,12959,10891,11157,39411,4
0.0,0.0,0.0,16060,12824,10843,11133,39411,4
0.0,0.0,0.0,16060,12690,10819,11133,39536,4
0.0,0.0,0.0,16060,12610,10795,11157,39411,4
0.0,0.0,0.0,16076,12556,10795,11206,39621,4
0.0,0.0,0.0,16157,12556,10736,11329,39452,4
0.0,0.0,0.0,16157,12543,10748,11503,39494,4
0.0,0.0,0.0,16093,12543,10724,11515,39411,4
0.0,0.0,0.0,16109,12583,10724,11453,39411,4
0.0,0.0,0.0,16093,12663,10748,11403,39327,4
0.0,0.0,0.0,16060,12690,10748,11379,39327,4
0.0,0.0,0.0,16060,12797,10724,11354,39119,4
0.0,0.0,0.0,16060,12797,10676,11268,39244,4
0.0,0.0,0.0,16060,12851,10641,11255,39244,4
0.0,0.0,0.0,16060,12986,10605,11206,39327,4
0.0,0.0,0.0,16060,12932,10570,11206,39369,4
0.0,0.0,0.0,16060,12918,10546,11206,39327,4
0.0,0.0,0.0,16044,12905,10546,11206,39160,4
0.0,0.0,0.0,16060,12851,10546,11206,39244,4
0.0,0.0,0.0,15996,12851,10546,11206,39160,4
0.0,0.0,0.0,16028,12743,10546,11206,39244,4
0.0,0.0,0.0,16028,12743,10535,11206,39202,4
0.0,0.0,0.0,16028,12676,10535,11182,39160,4
0.0,0.0,0.0,15996,12583,10535,11194,39160,4
0.0,0.0,0.0,16028,12596,10546,11194,39244,4
0.0,0.0,0.0,16028,12583,10535,11194,39244,4
0.0,0.0,0.0,16044,12583,10511,11206,39327,4
0.0,0.0,0.0,16044,12663,10582,11219,39244,4
0.0,0.0,0.0,16093,12797,10688,11206,39244,4
0.0,0.0,0.0,16076,12824,10712,11219,39160,4
0.0,0.0,0.0,16060,12837,10676,11206,39160,4
0.0,0.0,0.0,16060,12851,10641,11170,39244,4
0.0,0.0,0.0,16028,12810,10629,11182,39036,4
0.0,0.0,0.0,15980,12824,10629,11182,39077,4
0.0,0.0,0.0,15980,12932,10629,11182,38995,4
0.0,0.0,0.0,15964,12959,10629,11194,39077,4
0.0,0.0,0.0,15964,12959,10605,11157,38995,4
0.0,0.0,0.0,15964,12851,10629,11170,38995,4
0.0,0.0,0.0,15964,12583,10676,11182,38995,4
0.0,0.0,0.0,15948,12424,10724,11206,38995,4
0.0,0.0,0.0,15964,12810,10867,11255,39202,4
0.0,0.0,0.0,15964,12797,10903,11268,38995,4
0.0,0.0,0.0,15964,12743,10915,11304,39036,4
0.0,0.0,0.0,15948,12730,10891,11280,39036,4
0.0,0.0,0.0,15980,12690,10807,11268,38871,4
0.0,0.0,0.0,15964,12690,10771,11255,38912,4
0.0,0.0,0.0,15980,12676,10748,11219,38912,4
0.0,0.0,0.0,15964,12690,10724,11219,38830,4
0.0,0.0,0.0,15964,12743,10724,11219,38830,4
0.0,0.0,0.0,15964,12690,10724,11231,38871,4
0.0,0.0,0.0,15980,12690,10724,11206,38871,4
0.0,0.0,0.0,15980,12716,10724,11206,38953,4
0.0,0.0,0.0,15996,12716,10724,11219,38830,4
0.0,0.0,0.0,15980,12743,10700,11206,38748,4
0.0,0.0,0.0,15980,12703,10700,11219,38707,4
0.0,0.0,0.0,16012,12690,10724,11219,38666,4
0.0,0.0,0.0,16028,12690,10700,11206,38830,4
0.0,0.0,0.0,16028,12690,10700,11206,38666,4
0.0,0.0,0.0,16060,12690,10688,11206,38666,4
0.0,0.0,0.0,16060,12690,10700,11206,38585,4
0.0,0.0,0.0,16060,12663,10724,11206,38585,4
0.0,0.0,0.0,16028,12649,10712,11219,38544,4
0.0,0.0,0.0,16060,12649,10724,11206,38625,4
0.0,0.0,0.0,16028,12663,10712,11206,38544,4
0.0,0.0,0.0,16060,12663,10724,11206,38585,4
0.0,0.0,0.0,16028,12663,10700,11206,38666,4
0.0,0.0,0.0,16060,12663,10700,11206,38666,4
0.0,0.0,0.0,16028,12690,10724,11206,38503,4
0.0,0.0,0.0,16060,12703,10700,11219,38503,4
0.0,0.0,0.0,16060,12716,10724,11206,38422,4
0.0,0.0,0.0,16060,12690,10724,11206,38544,4
0.0,0.0,0.0,16093,12690,10688,11206,38503,4
0.0,0.0,0.0,16093,12716,10712,11206,38503,4
0.0,0.0,0.0,16060,12703,10700,11219,38503,4
0.0,0.0,0.0,16093,12690,10724,11219,38382,4
0.0,0.0,0.0,16060,12703,10688,11206,38422,4
0.0,0.0,0.0,16093,12716,10700,11219,38422,4
0.0,0.0,0.0,16076,12690,10700,11206,38341,4
0.0,0.0,0.0,16093,12690,10700,11231,38382,4
0.0,0.0,0.0,16093,12690,10724,11206,38382,4
0.0,0.0,0.0,16093,12716,10724,11206,38301,4
0.0,0.0,0.0,16173,12716,10700,11219,38341,4
0.0,0.0,0.0,16060,12716,10700,11206,38260,4
0.0,0.0,0.0,16060,12690,10724,11206,38382,4
0.0,0.0,0.0,16093,12690,10700,11206,38382,4
0.0,0.0,0.0,16060,12716,10700,11219,38422,4
0.0,0.0,0.0,16093,12690,10700,11206,38341,4
0.0,0.0,0.0,16093,12690,10688,11219,38341,4
0.0,0.0,0.0,16060,12703,10724,11219,38260,4
0.0,0.0,0.0,16093,12690,10676,11206,38260,4
0.0,0.0,0.0,16093,12716,10676,11219,38260,4
0.0,0.0,0.0,16060,12690,10676,11206,38341,4
0.0,0.0,0.0,16093,12703,10700,11231,38260,4
0.0,0.0,0.0,16060,12690,10676,11231,38341,4
0.0,0.0,0.0,16093,12690,10688,11206,38422,4
0.0,0.0,0.0,16093,12716,10700,11206,38341,4
0.0,0.0,0.0,16093,12716,10700,11206,38341,4
0.0,0.0,0.0,16109,12716,10676,11255,38341,4
0.0,0.0,0.0,16109,12730,10676,11219,38260,4
0.0,0.0,0.0,16125,12716,10724,11206,38260,4
0.0,0.0,0.0,16125,12716,10700,11231,38260,4
0.0,0.0,0.0,16109,12690,10676,11219,38341,4
0.0,0.0,0.0,16093,12716,10676,11206,38341,4
0.0,0.0,0.0,16109,12797,10676,11219,38382,4
0.0,0.0,0.0,16093,12905,10653,11182,38301,4
0.0,0.0,0.0,16109,12986,10676,11206,38382,4
0.0,0.0,0.0,16093,13122,10712,11182,38422,4
0.0,0.0,0.0,16060,13205,10748,11219,38341,4
0.0,0.0,0.0,16028,13205,10724,11243,38666,4
0.0,0.0,0.0,16028,13136,10724,11231,38585,4
0.0,0.0,0.0,16028,13109,10700,11231,38544,4
0.0,0.0,0.0,16028,13040,10688,11231,38544,4
0.0,0.0,0.0,15996,13040,10688,11231,38341,4
0.0,0.0,0.0,16028,13040,10688,11231,38503,4
0.0,0.0,0.0,16028,13013,10676,11243,38382,4
0.0,0.0,0.0,16012,13054,10676,11243,38382,4
0.0,0.0,0.0,16028,13027,10676,11206,38301,4
0.0,0.0,0.0,16028,13013,10676,11243,38180,4
0.0,0.0,0.0,16028,13013,10676,11231,38382,4
0.0,0.0,0.0,16028,13013,10676,11206,38260,4
0.0,0.0,0.0,16028,12986,10676,11231,38503,4
0.0,0.0,0.0,16028,12986,10676,11255,38180,4
0.0,0.0,0.0,16028,12986,10676,11219,38180,4
0.0,0.0,0.0,16028,12986,10676,11255,38260,4
0.0,0.0,0.0,16044,12986,10676,11231,38503,4
0.0,0.0,0.0,16060,12959,10676,11231,38382,4
0.0,0.0,0.0,16028,12918,10653,11231,38341,4
0.0,0.0,0.0,16028,12918,10664,11243,38100,4
0.0,0.0,0.0,16060,12851,10641,11255,38341,4
0.0,0.0,0.0,16060,12851,10629,11206,38140,4
0.0,0.0,0.0,16060,12851,10629,11243,38180,4
0.0,0.0,0.0,16060,12851,10641,11206,38180,4
0.0,0.0,0.0,16093,12851,10664,11231,38180,4
0.0,0.0,0.0,16028,12864,10771,11292,38301,4
0.0,0.0,0.0,16028,12959,10867,11354,38382,4
0.0,0.0,0.0,15996,12972,10867,11354,38544,4
0.0,0.0,0.0,15980,12932,10819,11280,38341,4
0.0,0.0,0.0,15996,12851,10819,11280,38301,4
0.0,0.0,0.0,15980,12743,10771,11304,38382,4
0.0,0.0,0.0,15964,12649,10748,11268,38422,4
0.0,0.0,0.0,15964,12570,10724,11255,38341,4
0.0,0.0,0.0,15964,12477,10676,11255,38220,4
0.0,0.0,0.0,15916,12385,10653,11255,38341,4
0.0,0.0,0.0,15916,12346,10653,11231,38260,4
0.0,0.0,0.0,15884,12293,10617,11219,38180,4
0.0,0.0,0.0,15868,12306,10629,11206,38180,4
0.0,0.0,0.0,15868,12163,10629,11219,38260,4
0.0,0.0,0.0,15852,11957,10629,11255,38140,4
0.0,0.0,0.0,15852,11868,10605,11304,38019,4
0.0,0.0,0.0,15852,11881,10629,11366,38019,4
0.0,0.0,0.0,15837,11868,10629,11403,38059,4
0.0,0.0,0.0,15837,11919,10676,11403,37940,4
0.0,0.0,0.0,15837,12424,10795,11453,37940,4
0.0,0.0,0.0,15837,12891,10783,11453,38180,4
0.0,0.0,0.0,15821,13232,10807,11416,38220,4
0.0,0.0,0.0,15821,13205,10795,11403,38059,4
0.0,0.0,0.0,15837,13232,10748,11379,38019,4
0.0,0.0,0.0,15773,12959,10700,11341,38019,4
0.0,0.0,0.0,15773,12451,10629,11341,38059,4
0.0,0.0,0.0,15789,12112,10582,11503,38059,4
0.0,0.0,0.0,15821,11983,10629,12086,37860,4
0.0,0.0,0.0,15837,11944,10724,12189,37820,4
0.0,0.0,0.0,15837,12073,10927,12124,37900,4
0.0,0.0,0.0,15821,12372,11416,12047,38019,4
0.0,0.0,0.0,15837,12372,11528,11906,37781,4
0.0,0.0,0.0,15837,12583,11304,11703,37860,4
0.0,0.0,0.0,15837,12810,11109,11615,37940,4
0.0,0.0,0.0,15789,12905,11012,11565,38019,4
0.0,0.0,0.0,15837,12864,10963,11528,38220,4
0.0,0.0,0.0,15837,12864,10927,11515,38180,4
0.0,0.0,0.0,15837,12837,10915,11503,38422,4
0.0,0.0,0.0,15837,12851,10915,11465,38341,4
0.0,0.0,0.0,15837,12770,10891,11478,38220,4
0.0,0.0,0.0,15837,12690,10891,11478,38260,4
0.0,0.0,0.0,15837,12623,10867,11478,38180,4
0.0,0.0,0.0,15837,12530,10867,11465,38341,4
0.0,0.0,0.0,15837,12333,10795,11478,38503,4
0.0,0.0,0.0,15821,12176,10748,11465,38422,4
0.0,0.0,0.0,15837,12112,10748,11453,38341,4
0.0,0.0,0.0,15837,12086,10724,11453,38341,4
0.0,0.0,0.0,15837,12112,10748,11440,38260,4
0.0,0.0,0.0,15805,12112,10736,11428,38180,4
0.0,0.0,0.0,15837,12137,10748,11428,38260,4
0.0,0.0,0.0,15852,12346,10748,11428,38180,4
0.0,0.0,0.0,15837,12610,10748,11428,38059,4
0.0,0.0,0.0,15789,12999,10771,11453,38748,4
0.0,0.0,0.0,15789,12905,10771,11465,38707,4
0.0,0.0,0.0,15837,12636,10724,11453,38707,4
0.0,0.0,0.0,15852,12504,10688,11453,38666,4
0.0,0.0,0.0,15852,12424,10688,11503,38707,4
0.0,0.0,0.0,15916,12424,10688,11528,38260,4
0.0,0.0,0.0,15868,12398,10700,11528,38100,4
0.0,0.0,0.0,15964,12372,10688,11603,38180,4
0.0,0.0,0.0,15980,12346,10653,11603,37940,4
0.0,0.0,0.0,15996,12306,10641,11653,37940,4
0.0,0.0,0.0,15932,12293,10676,11653,37781,4
0.0,0.0,0.0,15964,12477,10653,11653,37662,4
0.0,0.0,0.0,15964,12543,10653,11653,37741,4
0.0,0.0,0.0,15964,12583,10676,11640,37662,4
0.0,0.0,0.0,15948,12824,10641,11628,37701,4
0.0,0.0,0.0,15900,12851,10664,11628,37701,4
0.0,0.0,0.0,15900,12972,10653,11628,37781,4
0.0,0.0,0.0,15852,12756,10653,11628,37701,4
0.0,0.0,0.0,15900,12543,10676,11615,37622,4
0.0,0.0,0.0,15900,12490,10653,11615,37622,4
0.0,0.0,0.0,15852,12438,10676,11653,37662,4
0.0,0.0,0.0,15868,12424,10653,11653,37701,4
0.0,0.0,0.0,15868,12424,10712,11703,37701,4
0.0,0.0,0.0,15868,12372,10759,11678,37583,4
0.0,0.0,0.0,15900,12372,10819,11716,37622,4
0.0,0.0,0.0,15868,12346,10819,11691,37622,4
0.0,0.0,0.0,15837,12398,10819,11703,37543,4
0.0,0.0,0.0,15852,12372,10819,11703,37543,4
0.0,0.0,0.0,15837,12359,10819,11703,37622,4
0.0,0.0,0.0,15868,12359,10819,11691,37622,4
0.0,0.0,0.0,15900,12372,10795,11678,37622,4
0.0,0.0,0.0,15884,12372,10795,11678,37701,4
0.0,0.0,0.0,15868,12372,10783,11678,37701,4
0.0,0.0,0.0,15868,12385,10783,11678,37583,4
0.0,0.0,0.0,15852,12424,10771,11653,37465,4
0.0,0.0,0.0,15868,12424,10771,11653,37465,4
0.0,0.0,0.0,15868,12398,10748,11603,37622,4
0.0,0.0,0.0,15852,12424,10748,11603,37465,4
0.0,0.0,0.0,15884,12451,10724,11578,37622,4
0.0,0.0,0.0,15900,12451,10700,11578,37543,4
0.0,0.0,0.0,15900,12490,10700,11565,37426,4
0.0,0.0,0.0,15900,12451,10712,11553,37543,4
0.0,0.0,0.0,15900,12438,10724,11553,37426,4
0.0,0.0,0.0,15900,12438,10700,11553,37465,4
0.0,0.0,0.0,15900,12438,10676,11540,37465,4
0.0,0.0,0.0,15900,12424,10688,11553,37465,4
0.0,0.0,0.0,15900,12451,10676,11528,37386,4
0.0,0.0,0.0,15900,12438,10676,11528,37386,4
0.0,0.0,0.0,15900,12424,10676,11528,37386,4
0.0,0.0,0.0,15900,12424,10676,11553,37426,4
0.0,0.0,0.0,15868,12438,10688,11528,37386,4
0.0,0.0,0.0,15884,12438,10676,11528,37386,4
0.0,0.0,0.0,15900,12451,10688,11528,37426,4
0.0,0.0,0.0,15900,12490,10676,11553,37504,4
0.0,0.0,0.0,15900,12477,10676,11503,37386,4
0.0,0.0,0.0,15900,12451,10676,11515,37426,4
0.0,0.0,0.0,15900,12451,10676,11515,37386,4
0.0,0.0,0.0,15900,12477,10676,11528,37308,4
0.0,0.0,0.0,15868,12477,10653,11528,37347,4
0.0,0.0,0.0,15916,12477,10641,11528,37386,4
0.0,0.0,0.0,15900,12464,10653,11528,37308,4
0.0,0.0,0.0,15900,12451,10676,11503,37230,4
0.0,0.0,0.0,15900,12477,10641,11528,37308,4
0.0,0.0,0.0,15900,12477,10653,11528,37308,4
0.0,0.0,0.0,15900,12464,10641,11515,37465,4
0.0,0.0,0.0,15900,12477,10664,11503,37386,4
0.0,0.0,0.0,15916,12451,10676,11528,37308,4
0.0,0.0,0.0,15932,12438,10653,11515,37308,4
0.0,0.0,0.0,15916,12424,10653,11515,37386,4
0.0,0.0,0.0,15932,12477,10641,11515,37308,4
0.0,0.0,0.0,15916,12451,10664,11503,37386,4
0.0,0.0,0.0,15932,12477,10641,11503,37426,4
0.0,0.0,0.0,15900,12438,10653,11528,37308,4
0.0,0.0,0.0,15884,12464,10653,11528,37386,4
0.0,0.0,0.0,15900,12438,10676,11515,37426,4
0.0,0.0,0.0,15900,12477,10641,11503,37230,4
0.0,0.0,0.0,15916,12451,10629,11515,37386,4
0.0,0.0,0.0,15900,12424,10653,11528,37386,4
0.0,0.0,0.0,15916,12451,10653,11528,37543,4
0.0,0.0,0.0,15900,12477,10641,11503,37269,4
0.0,0.0,0.0,15900,12797,10641,11503,37465,4
0.0,0.0,0.0,15900,12797,10629,11478,37230,4
0.0,0.0,0.0,15900,12716,10629,11503,37386,4
0.0,0.0,0.0,15964,12530,10629,11528,37347,4
0.0,0.0,0.0,15964,12530,10629,11565,37308,4
0.0,0.0,0.0,15900,12490,10641,11678,37386,4
0.0,0.0,0.0,15868,12438,10629,11678,37622,4
0.0,0.0,0.0,15900,12424,10676,11766,37701,4
0.0,0.0,0.0,15900,12451,10664,11804,37662,4
0.0,0.0,0.0,15900,12490,10676,11792,37465,4
0.0,0.0,0.0,15884,12596,10807,11855,37465,4
0.0,0.0,0.0,15852,12570,10771,11817,37269,4
0.0,0.0,0.0,15900,12596,10748,11804,37426,4
0.0,0.0,0.0,15884,12676,10759,11766,37308,4
0.0,0.0,0.0,15900,12756,10819,11741,37308,4
0.0,0.0,0.0,15900,12756,10819,11716,37269,4
0.0,0.0,0.0,15900,12810,10795,11716,37308,4
0.0,0.0,0.0,15900,12891,10819,11653,37347,4
0.0,0.0,0.0,15900,12905,10819,11653,37308,4
0.0,0.0,0.0,15916,12972,10819,11653,37230,4
0.0,0.0,0.0,15916,12986,10843,11653,37269,4
0.0,0.0,0.0,15900,13013,10819,11628,37426,4
0.0,0.0,0.0,15900,12986,10819,11603,37386,4
0.0,0.0,0.0,15884,12932,10771,11553,37230,4
0.0,0.0,0.0,15837,12905,10748,11528,37230,4
0.0,0.0,0.0,15868,12878,10771,11528,37191,4
0.0,0.0,0.0,15868,12851,10748,11528,37308,4
0.0,0.0,0.0,15789,12797,10748,11503,37230,4
0.0,0.0,0.0,15789,12743,10748,11503,37308,4
0.0,0.0,0.0,15837,12797,10748,11490,37075,4
0.0,0.0,0.0,15789,12743,10724,11453,37075,4
0.0,0.0,0.0,15868,12743,10676,11453,37114,4
0.0,0.0,0.0,15805,12743,10688,11453,37075,4
0.0,0.0,0.0,15837,12743,10700,11465,36998,4
0.0,0.0,0.0,15837,12716,10676,11453,36959,4
0.0,0.0,0.0,15837,12743,10688,11453,36998,4
0.0,0.0,0.0,15837,12716,10676,11453,36920,4
0.0,0.0,0.0,15805,12730,10676,11453,36998,4
0.0,0.0,0.0,15805,12703,10676,11465,36998,4
0.0,0.0,0.0,15805,12703,10688,11453,36998,4
0.0,0.0,0.0,15789,12716,10676,11453,36920,4
0.0,0.0,0.0,15789,12716,10676,11428,36882,4
0.0,0.0,0.0,15837,12690,10700,11453,36920,4
0.0,0.0,0.0,15821,12690,10676,11453,36920,4
0.0,0.0,0.0,15789,12743,10676,11453,36998,4
0.0,0.0,0.0,15837,12703,10676,11453,36920,4
0.0,0.0,0.0,15789,12716,10676,11453,36920,4
0.0,0.0,0.0,15773,12716,10676,11453,36882,4
0.0,0.0,0.0,15789,12690,10688,11453,36920,4
0.0,0.0,0.0,15789,12703,10676,11453,36882,4
0.0,0.0,0.0,15837,12716,10676,11428,36920,4
0.0,0.0,0.0,15805,12690,10700,11453,36805,4
0.0,0.0,0.0,15837,12703,10676,11453,36843,4
0.0,0.0,0.0,15837,12690,10688,11428,36843,4
0.0,0.0,0.0,15789,12716,10676,11453,36882,4
0.0,0.0,0.0,15789,12716,10676,11416,36843,4
0.0,0.0,0.0,15837,12716,10676,11428,36959,4
0.0,0.0,0.0,15837,12716,10676,11428,36882,4
0.0,0.0,0.0,15852,12690,10676,11453,36843,4
0.0,0.0,0.0,15837,12663,10653,11453,36998,4
0.0,0.0,0.0,15837,12690,10641,11416,36998,4
0.0,0.0,0.0,15821,13068,10676,11453,36998,4
0.0,0.0,0.0,15821,13343,10748,11465,37152,4
0.0,0.0,0.0,15821,13150,10771,11528,37152,4
0.0,0.0,0.0,15837,12851,10724,11528,37308,4
0.0,0.0,0.0,15837,12743,10700,11528,37269,4
0.0,0.0,0.0,15837,12690,10700,11528,37308,4
0.0,0.0,0.0,15789,12716,10700,11528,37230,4
0.0,0.0,0.0,15789,12703,10676,11515,37191,4
0.0,0.0,0.0,15789,12636,10700,11528,37269,4
0.0,0.0,0.0,15837,12530,10688,11528,37152,4
0.0,0.0,0.0,15805,12320,10688,11528,37230,4
0.0,0.0,0.0,15837,12228,10688,11553,37308,4
0.0,0.0,0.0,15805,12320,10712,11565,37230,4
0.0,0.0,0.0,15773,12583,10771,11615,37269,4
0.0,0.0,0.0,15789,12959,10759,11615,37230,4
0.0,0.0,0.0,15837,13027,10783,11653,37308,4
0.0,0.0,0.0,15805,12583,10748,11728,37269,4
0.0,0.0,0.0,15789,12398,10676,11754,37308,4
0.0,0.0,0.0,15805,12241,10700,11817,37308,4
0.0,0.0,0.0,15837,12241,10676,11855,37114,4
0.0,0.0,0.0,15821,12649,10724,11881,37152,4
0.0,0.0,0.0,15789,13081,10748,11855,37191,4
0.0,0.0,0.0,15789,13679,10748,11779,37269,4
0.0,0.0,0.0,15773,13510,10748,11754,37191,4
0.0,0.0,0.0,15789,12810,10676,11678,37191,4
0.0,0.0,0.0,15773,12583,10676,11653,37347,4
0.0,0.0,0.0,15837,12424,10653,11665,37152,4
0.0,0.0,0.0,15789,12424,10676,11665,37230,4
0.0,0.0,0.0,15837,12636,10795,11728,36998,4
0.0,0.0,0.0,15900,13013,10855,11754,36998,4
0.0,0.0,0.0,15868,13177,10867,11716,37075,4
0.0,0.0,0.0,15837,13398,10819,11665,37036,4
0.0,0.0,0.0,15789,13398,10771,11628,37152,4
0.0,0.0,0.0,15773,13496,10748,11615,37230,4
0.0,0.0,0.0,15789,13287,10748,11590,37230,4
0.0,0.0,0.0,15741,12743,10688,11565,37191,4
0.0,0.0,0.0,15773,12438,10653,11553,37308,4
0.0,0.0,0.0,15773,12504,10700,11553,37230,4
0.0,0.0,0.0,15741,13191,10771,11603,37386,4
0.0,0.0,0.0,15741,13580,10748,11603,37386,4
0.0,0.0,0.0,15741,13878,10771,11628,37308,4
0.0,0.0,0.0,15741,13821,10748,11603,37269,4
0.0,0.0,0.0,15773,12905,10712,11578,37347,4
0.0,0.0,0.0,15789,12610,10700,11653,37230,4
0.0,0.0,0.0,15773,12477,10700,11728,37230,4
0.0,0.0,0.0,15789,12477,10724,11817,37152,4
0.0,0.0,0.0,15773,12583,10748,11855,37075,4
0.0,0.0,0.0,15757,12636,10748,11830,37075,4
0.0,0.0,0.0,15773,12636,10748,11817,37075,4
0.0,0.0,0.0,15789,12703,10724,11728,37114,4
0.0,0.0,0.0,15741,12864,10688,11703,37075,4
0.0,0.0,0.0,15741,13081,10664,11653,36920,4
0.0,0.0,0.0,15773,13454,10676,11653,36920,4
0.0,0.0,0.0,15773,13735,10724,11653,36959,4
0.0,0.0,0.0,15837,13398,10783,11716,37075,4
0.0,0.0,0.0,15837,12851,10783,11817,37114,4
0.0,0.0,0.0,15868,12770,10819,12385,37230,4
0.0,0.0,0.0,15900,12743,10819,12530,37230,4
0.0,0.0,0.0,15900,12743,11084,12477,37308,4
0.0,0.0,0.0,15900,12770,11255,12320,37230,4
0.0,0.0,0.0,15868,12864,11255,12124,37075,4
0.0,0.0,0.0,15852,12972,11206,12060,37075,4
0.0,0.0,0.0,15868,13081,11255,12009,37036,4
0.0,0.0,0.0,15868,13177,11317,11957,37191,4
0.0,0.0,0.0,15837,13412,11416,11957,37075,4
0.0,0.0,0.0,15852,14079,11317,11881,37075,4
0.0,0.0,0.0,15837,14253,11182,11804,37114,4
0.0,0.0,0.0,15805,14137,11024,11804,37230,4
0.0,0.0,0.0,15868,14079,10975,11817,37152,4
0.0,0.0,0.0,15852,13964,10963,11830,37152,4
0.0,0.0,0.0,15900,13878,10927,11855,37075,4
0.0,0.0,0.0,15900,13878,10927,11881,37465,4
0.0,0.0,0.0,15868,13921,11036,11983,37152,4
0.0,0.0,0.0,15900,13921,11024,12009,37114,4
0.0,0.0,0.0,15900,13849,11012,11996,37075,4
0.0,0.0,0.0,15900,13806,10987,11957,36998,4
0.0,0.0,0.0,15852,13821,11012,11932,37114,4
0.0,0.0,0.0,15852,13792,11012,11881,37191,4
0.0,0.0,0.0,15852,13806,10987,11855,37152,4
0.0,0.0,0.0,15852,13892,10963,11830,37114,4
0.0,0.0,0.0,15837,13964,10927,11804,37075,4
0.0,0.0,0.0,15900,14021,10915,11804,36998,4
0.0,0.0,0.0,15868,14064,10903,11779,36998,4
0.0,0.0,0.0,15852,14253,10867,11792,36998,4
0.0,0.0,0.0,15900,14326,10867,11779,36920,4
0.0,0.0,0.0,15837,14547,10843,11779,37152,4
0.0,0.0,0.0,15852,14429,10831,11779,37308,4
0.0,0.0,0.0,15868,14311,10795,11779,37191,4
0.0,0.0,0.0,15868,14209,10783,11754,37230,4
0.0,0.0,0.0,15852,14195,10771,11754,37230,4
0.0,0.0,0.0,15852,13906,10771,11754,37230,4
0.0,0.0,0.0,15805,13622,10748,11754,37230,4
0.0,0.0,0.0,15868,13371,10748,11728,37386,4
0.0,0.0,0.0,15900,13343,10771,11754,37583,4
0.0,0.0,0.0,15964,13412,10831,11754,37622,4
0.0,0.0,0.0,15964,13398,10867,11754,37622,4
0.0,0.0,0.0,15964,13013,10867,11754,37465,4
0.0,0.0,0.0,15980,12797,10831,11728,37504,4
0.0,0.0,0.0,15964,12743,10819,11716,37504,4
0.0,0.0,0.0,15980,12649,10759,11728,37741,4
0.0,0.0,0.0,15964,12636,10748,11716,37701,4
0.0,0.0,0.0,15980,12583,10748,11754,37622,4
0.0,0.0,0.0,15964,12504,10700,11754,37701,4
0.0,0.0,0.0,15964,12477,10700,11804,38019,4
0.0,0.0,0.0,16012,12477,10700,11881,37820,4
0.0,0.0,0.0,16044,12477,10748,12021,37741,4
0.0,0.0,0.0,16060,12477,10795,12060,37504,4
0.0,0.0,0.0,16028,12703,10927,12086,37386,4
0.0,0.0,0.0,16028,12797,10987,12034,37426,4
0.0,0.0,0.0,15980,12891,10975,11957,37465,4
0.0,0.0,0.0,16012,13205,10975,11957,37386,4
0.0,0.0,0.0,15964,13749,10987,11957,37543,4
0.0,0.0,0.0,15980,13566,10915,11881,37465,4
0.0,0.0,0.0,15932,12959,10771,11932,37543,4
0.0,0.0,0.0,15948,12851,10748,11932,37465,4
0.0,0.0,0.0,15964,12810,10771,12060,37543,4
0.0,0.0,0.0,15964,12730,10748,12215,37308,4
0.0,0.0,0.0,15932,12690,10748,12215,37230,4
0.0,0.0,0.0,15964,12716,10748,12163,37152,4
0.0,0.0,0.0,15932,12716,10748,12112,37152,4
0.0,0.0,0.0,15964,12730,10724,12034,37114,4
0.0,0.0,0.0,15964,12716,10748,12086,37075,4
0.0,0.0,0.0,15964,12703,10748,12112,37152,4
0.0,0.0,0.0,16012,12636,10688,12124,37075,4
0.0,0.0,0.0,16060,12663,10724,12320,37075,4
0.0,0.0,0.0,16093,12636,10712,12385,37075,4
0.0,0.0,0.0,16093,12649,10724,12477,36998,4
0.0,0.0,0.0,16060,12690,10748,12424,36959,4
0.0,0.0,0.0,16012,12636,10724,12215,36920,4
0.0,0.0,0.0,16028,12636,10700,12009,36998,4
0.0,0.0,0.0,15996,12610,10676,11932,37075,4
0.0,0.0,0.0,16028,12596,10676,11906,37075,4
0.0,0.0,0.0,15964,12556,10653,11906,36920,4
0.0,0.0,0.0,16012,12530,10641,11957,36920,4
0.0,0.0,0.0,15980,12477,10641,11983,36920,4
0.0,0.0,0.0,16028,12477,10724,12073,36920,4
0.0,0.0,0.0,16028,12610,10819,12124,36920,4
0.0,0.0,0.0,16028,12797,10915,12073,36998,4
0.0,0.0,0.0,16012,12797,10903,12047,36882,4
0.0,0.0,0.0,15964,12824,10891,12009,36843,4
0.0,0.0,0.0,15964,12824,10795,11906,36843,4
0.0,0.0,0.0,15916,12690,10748,11855,36959,4
0.0,0.0,0.0,15916,12504,10724,11855,36843,4
0.0,0.0,0.0,15916,12451,10736,11881,36843,4
0.0,0.0,0.0,15900,12451,10771,11906,36843,4
0.0,0.0,0.0,15916,12649,10855,11983,36959,4
0.0,0.0,0.0,15932,12932,10915,11957,36843,4
0.0,0.0,0.0,15932,13371,10975,11932,36882,4
0.0,0.0,0.0,15916,13735,10927,11893,36728,4
0.0,0.0,0.0,15900,13068,10819,11817,36843,4
0.0,0.0,0.0,15852,12851,10819,11881,36767,4
0.0,0.0,0.0,15868,12743,10795,12034,36843,4
0.0,0.0,0.0,15900,12690,10819,12215,36843,4
0.0,0.0,0.0,15900,12690,10927,12385,36690,4
0.0,0.0,0.0,15900,12649,10903,12385,36690,4
0.0,0.0,0.0,15916,12636,10915,12346,36690,4
0.0,0.0,0.0,15900,12636,10915,12385,36690,4
0.0,0.0,0.0,15900,12636,10915,12385,36690,4
0.0,0.0,0.0,15900,12596,10927,12372,36767,4
0.0,0.0,0.0,15964,12596,11012,12530,36882,4
0.0,0.0,0.0,16060,12596,11121,12797,37269,4
0.0,0.0,0.0,16125,12596,11157,12932,36998,4
0.0,0.0,0.0,16093,12596,11024,12730,36998,4
0.0,0.0,0.0,16060,12623,10963,12583,36920,4
0.0,0.0,0.0,16028,12743,10987,12424,36805,4
0.0,0.0,0.0,16028,12797,10987,12372,36805,4
0.0,0.0,0.0,16012,13013,11024,12346,36767,4
0.0,0.0,0.0,15996,13068,11060,12320,36728,4
0.0,0.0,0.0,16028,13232,11060,12320,36805,4
0.0,0.0,0.0,15996,13150,11012,12267,36767,4
0.0,0.0,0.0,16028,13150,10987,12228,36767,4
0.0,0.0,0.0,16028,13398,11012,12215,36767,4
0.0,0.0,0.0,15964,14064,10963,12163,36767,4
0.0,0.0,0.0,15932,13580,10915,12112,36690,4
0.0,0.0,0.0,15916,13454,10867,12124,36728,4
0.0,0.0,0.0,15932,13426,10843,12137,36690,4
0.0,0.0,0.0,15916,13315,10843,12176,36690,4
0.0,0.0,0.0,15916,13287,10843,12163,36690,4
0.0,0.0,0.0,15900,13232,10843,12163,36614,4
0.0,0.0,0.0,15900,13122,10819,12112,36690,4
0.0,0.0,0.0,15868,13068,10748,11983,36767,4
0.0,0.0,0.0,15884,13013,10712,11868,36882,4
0.0,0.0,0.0,15900,12932,10676,11804,36920,4
0.0,0.0,0.0,15900,12905,10676,11804,36959,4
0.0,0.0,0.0,15852,12851,10653,11804,36998,4
0.0,0.0,0.0,15900,12797,10664,11804,37036,4
0.0,0.0,0.0,15900,12770,10653,11804,37036,4
0.0,0.0,0.0,15868,12690,10629,11779,36998,4
0.0,0.0,0.0,15852,12690,10629,11754,36959,4
0.0,0.0,0.0,15837,12570,10641,11754,36920,4
0.0,0.0,0.0,15852,12398,10653,11766,36920,4
0.0,0.0,0.0,15852,12320,10653,11817,36843,4
0.0,0.0,0.0,15900,12346,10676,11855,36882,4
0.0,0.0,0.0,15868,12346,10676,11906,36767,4
0.0,0.0,0.0,15868,12411,10676,11932,36728,4
0.0,0.0,0.0,15884,12490,10700,11932,36843,4
0.0,0.0,0.0,15900,12530,10724,11932,36690,4
0.0,0.0,0.0,15852,12636,10700,11919,36614,4
0.0,0.0,0.0,15900,12636,10700,11932,36728,4
0.0,0.0,0.0,15837,12703,10724,11932,36652,4
0.0,0.0,0.0,15837,12810,10724,11944,36576,4
0.0,0.0,0.0,15868,13205,10748,11906,36690,4
0.0,0.0,0.0,15852,13177,10771,11906,36690,4
0.0,0.0,0.0,15884,12905,10748,11944,36690,4
0.0,0.0,0.0,15884,12756,10748,12346,36920,4
0.0,0.0,0.0,15868,12610,10771,12583,36805,4
0.0,0.0,0.0,15852,12636,10795,12610,36499,4
0.0,0.0,0.0,15900,12703,10915,12477,36767,4
0.0,0.0,0.0,15884,12730,10963,12372,36538,4
0.0,0.0,0.0,15852,12864,11084,12280,36538,4
0.0,0.0,0.0,15868,12918,11036,12189,36690,4
0.0,0.0,0.0,15789,13068,10963,12112,36499,4
0.0,0.0,0.0,15837,13232,10915,12073,36462,4
0.0,0.0,0.0,15837,13232,10867,12060,36576,4
0.0,0.0,0.0,15837,13013,10843,12047,36538,4
0.0,0.0,0.0,15868,12851,10795,12034,36690,4
0.0,0.0,0.0,15837,12743,10771,12060,36652,4
0.0,0.0,0.0,15837,12663,10795,12021,36462,4
0.0,0.0,0.0,15837,12623,10748,12021,36462,4
0.0,0.0,0.0,15852,12610,10771,12060,36499,4
0.0,0.0,0.0,15852,12596,10795,12047,36462,4
0.0,0.0,0.0,15868,12610,10771,12009,36462,4
0.0,0.0,0.0,15837,12636,10748,12009,36614,4
0.0,0.0,0.0,15837,12663,10748,11932,36767,4
0.0,0.0,0.0,15837,12649,10712,11906,36767,4
0.0,0.0,0.0,15789,12636,10724,11868,36690,4
0.0,0.0,0.0,15789,12636,10724,11868,36386,4
0.0,0.0,0.0,15789,12690,10724,11893,36538,4
0.0,0.0,0.0,15789,12810,10724,11868,36538,4
0.0,0.0,0.0,15789,12851,10712,11868,36462,4
0.0,0.0,0.0,15789,12864,10712,11855,36462,4
0.0,0.0,0.0,15789,12824,10724,11855,36499,4
0.0,0.0,0.0,15789,12824,10712,11817,36462,4
0.0,0.0,0.0,15789,12743,10676,11817,36386,4
0.0,0.0,0.0,15852,12690,10676,11804,36310,4
0.0,0.0,0.0,15789,12663,10653,11779,36386,4
0.0,0.0,0.0,15805,12636,10676,11779,36310,4
0.0,0.0,0.0,15837,12610,10676,11754,36235,4
0.0,0.0,0.0,15837,12610,10676,11766,36235,4
0.0,0.0,0.0,15837,12596,10676,11779,36348,4
0.0,0.0,0.0,15852,12583,10653,11804,36197,4
0.0,0.0,0.0,15837,12596,10664,11754,36235,4
0.0,0.0,0.0,15805,12623,10676,11754,36272,4
0.0,0.0,0.0,15837,12610,10676,11754,36310,4
0.0,0.0,0.0,15837,12596,10688,11754,36197,4
0.0,0.0,0.0,15837,12610,10676,11716,36310,4
0.0,0.0,0.0,15837,12610,10676,11754,36310,4
0.0,0.0,0.0,15852,12636,10676,11766,36235,4
0.0,0.0,0.0,15852,12636,10676,11766,36197,4
0.0,0.0,0.0,15837,12610,10664,11766,36197,4
0.0,0.0,0.0,15837,12676,10688,11754,36235,4
0.0,0.0,0.0,15837,12716,10676,11779,36272,4
0.0,0.0,0.0,15837,12743,10676,11754,36310,4
0.0,0.0,0.0,15837,12743,10676,11779,36160,4
0.0,0.0,0.0,15837,12716,10700,11779,36160,4
0.0,0.0,0.0,15852,12703,10676,11754,36197,4
0.0,0.0,0.0,15852,12743,10676,11754,36160,4
0.0,0.0,0.0,15868,12703,10676,11779,36160,4
0.0,0.0,0.0,15837,12716,10676,11754,36160,4
0.0,0.0,0.0,15837,12716,10676,11766,36235,4
0.0,0.0,0.0,15852,12690,10676,11754,36310,4
0.0,0.0,0.0,15868,12743,10688,11754,36160,4
0.0,0.0,0.0,15837,12730,10676,11766,36085,4
0.0,0.0,0.0,15852,12716,10676,11779,36235,4
0.0,0.0,0.0,15868,12743,10676,11754,36122,4
0.0,0.0,0.0,15852,12743,10676,11754,36122,4
0.0,0.0,0.0,15837,12730,10688,11754,36047,4
0.0,0.0,0.0,15837,12743,10676,11754,36047,4
0.0,0.0,0.0,15837,12743,10676,11754,36085,4
0.0,0.0,0.0,15837,12703,10676,11766,36424,4
0.0,0.0,0.0,15837,12716,10676,11766,36085,4
0.0,0.0,0.0,15884,12743,10688,11754,36197,4
0.0,0.0,0.0,15884,12743,10712,11766,36348,4
0.0,0.0,0.0,15868,12824,10676,11754,36310,4
0.0,0.0,0.0,15868,12959,10676,11754,36348,4
0.0,0.0,0.0,15900,13013,10676,11754,36160,4
0.0,0.0,0.0,15852,12959,10676,11766,36160,4
0.0,0.0,0.0,15900,12905,10676,11766,36085,4
0.0,0.0,0.0,15916,12810,10641,11779,36160,4
0.0,0.0,0.0,15900,12797,10629,11804,36085,4
0.0,0.0,0.0,15900,12743,10629,11817,36047,4
0.0,0.0,0.0,15884,12756,10641,11804,36010,4
0.0,0.0,0.0,15900,12743,10629,11804,36235,4
0.0,0.0,0.0,15900,12743,10629,11804,36386,4
0.0,0.0,0.0,15932,12743,10629,11804,36310,4
0.0,0.0,0.0,15900,12770,10629,11804,36085,4
0.0,0.0,0.0,15900,12743,10629,11779,36047,4
0.0,0.0,0.0,15900,12743,10629,11779,36085,4
0.0,0.0,0.0,15900,12703,10629,11779,36047,4
0.0,0.0,0.0,15900,12730,10629,11779,36160,4
0.0,0.0,0.0,15868,12716,10629,11779,36122,4
0.0,0.0,0.0,15916,12730,10629,11779,36197,4
0.0,0.0,0.0,15900,12743,10629,11779,36310,4
0.0,0.0,0.0,15900,12716,10605,11766,36272,4
0.0,0.0,0.0,15916,12716,10629,11779,36160,4
0.0,0.0,0.0,15916,12703,10629,11766,36085,4
0.0,0.0,0.0,15932,12703,10605,11766,36047,4
0.0,0.0,0.0,15900,12743,10629,11779,36010,4
0.0,0.0,0.0,15964,12716,10605,11754,36085,4
0.0,0.0,0.0,15932,12716,10629,11766,36085,4
0.0,0.0,0.0,15916,12690,10629,11754,36085,4
0.0,0.0,0.0,15964,12716,10605,11779,36047,4
0.0,0.0,0.0,15964,12743,10629,11779,36010,4
0.0,0.0,0.0,15964,12703,10629,11779,36010,4
0.0,0.0,0.0,15964,12743,10605,11804,36085,4
0.0,0.0,0.0,15964,12756,10605,11792,36010,4
0.0,0.0,0.0,15932,12797,10629,11804,36010,4
0.0,0.0,0.0,15932,12743,10653,11804,35972,4
0.0,0.0,0.0,15916,12783,10676,11817,36047,4
0.0,0.0,0.0,15932,12756,10653,11830,36047,4
0.0,0.0,0.0,15932,12756,10676,11804,36047,4
0.0,0.0,0.0,15932,12770,10641,11804,36160,4
0.0,0.0,0.0,15916,12756,10641,11804,36160,4
0.0,0.0,0.0,15900,12743,10653,11766,36047,4
0.0,0.0,0.0,15852,12743,10629,11779,36197,4
0.0,0.0,0.0,15852,12716,10629,11766,36047,4
0.0,0.0,0.0,15852,12716,10629,11754,36047,4
0.0,0.0,0.0,15852,12703,10629,11754,35972,4
0.0,0.0,0.0,15868,12690,10629,11754,36085,4
0.0,0.0,0.0,15852,12703,10629,11754,36047,4
0.0,0.0,0.0,15868,12690,10629,11754,36122,4
0.0,0.0,0.0,15868,12690,10629,11754,36272,4
0.0,0.0,0.0,15852,12663,10629,11754,36348,4
0.0,0.0,0.0,15868,12663,10617,11754,36310,4
0.0,0.0,0.0,15868,12636,10629,11754,36235,4
0.0,0.0,0.0,15852,12636,10629,11754,36197,4
0.0,0.0,0.0,15852,12636,10605,11741,36197,4
0.0,0.0,0.0,15852,12649,10629,11754,36160,4
0.0,0.0,0.0,15852,12636,10594,11754,36197,4
0.0,0.0,0.0,15837,12649,10594,11754,36197,4
0.0,0.0,0.0,15852,12636,10617,11754,36122,4
0.0,0.0,0.0,15837,12636,10641,11754,36197,4
0.0,0.0,0.0,15837,12636,10629,11754,36010,4
0.0,0.0,0.0,15837,12649,10629,11754,36160,4
0.0,0.0,0.0,15837,12649,10629,11728,36122,4
0.0,0.0,0.0,15868,12649,10605,11754,36047,4
0.0,0.0,0.0,15852,12636,10617,11766,36160,4
0.0,0.0,0.0,15821,12636,10629,11754,36047,4
0.0,0.0,0.0,15852,12636,10629,11754,36047,4
0.0,0.0,0.0,15884,12636,10629,11728,36010,4
0.0,0.0,0.0,15852,12649,10629,11754,36010,4
0.0,0.0,0.0,15852,12649,10605,11754,36085,4
0.0,0.0,0.0,15868,12636,10629,11741,36235,4
0.0,0.0,0.0,15837,12610,10629,11754,36160,4
0.0,0.0,0.0,15837,12730,10629,11754,36047,4
0.0,0.0,0.0,15980,12690,10594,11855,36047,4
0.0,0.0,0.0,15980,12649,10546,12009,36085,4
0.0,0.0,0.0,15964,12649,10546,12060,36047,4
0.0,0.0,0.0,15916,12623,10605,12060,36047,4
0.0,0.0,0.0,15868,12583,10653,12021,35898,4
0.0,0.0,0.0,15852,12583,10724,11919,35861,4
0.0,0.0,0.0,15837,12610,10867,11893,35787,4
0.0,0.0,0.0,15837,12610,11012,11881,35861,4
0.0,0.0,0.0,15773,12636,11157,11855,35824,4
0.0,0.0,0.0,15789,12649,11255,11817,35861,4
0.0,0.0,0.0,15837,12690,11255,11830,35861,4
0.0,0.0,0.0,15837,12797,11255,11842,35749,4
0.0,0.0,0.0,15805,12959,11280,11817,35712,4
0.0,0.0,0.0,15837,13068,11280,11830,35824,4
0.0,0.0,0.0,15789,13246,11268,11830,35861,4
0.0,0.0,0.0,15821,13343,11206,11817,35787,4
0.0,0.0,0.0,15805,13454,11109,11779,35787,4
0.0,0.0,0.0,15789,13454,11036,11766,35861,4
0.0,0.0,0.0,15789,13510,10963,11754,35749,4
0.0,0.0,0.0,15789,13835,10891,11766,35861,4
0.0,0.0,0.0,15773,13707,10891,11728,35824,4
0.0,0.0,0.0,15789,13260,10819,11716,35861,4
0.0,0.0,0.0,15773,13122,10819,11728,35861,4
0.0,0.0,0.0,15773,13068,10819,11703,35749,4
0.0,0.0,0.0,15773,12824,10795,11716,35787,4
0.0,0.0,0.0,15789,12703,10819,11716,35787,4
0.0,0.0,0.0,15773,12824,10819,11716,35787,4
0.0,0.0,0.0,15773,12905,10843,11728,35861,4
0.0,0.0,0.0,15773,13040,10867,11728,35749,4
0.0,0.0,0.0,15773,13040,10879,11754,35787,4
0.0,0.0,0.0,15757,13013,10843,11754,35787,4
0.0,0.0,0.0,15773,13013,10819,11728,35861,4
0.0,0.0,0.0,15757,12905,10819,11728,35861,4
0.0,0.0,0.0,15805,12851,10771,11754,35861,4
0.0,0.0,0.0,15773,12797,10759,11766,35824,4
0.0,0.0,0.0,15789,12824,10771,11754,35787,4
0.0,0.0,0.0,15789,12810,10771,11766,35787,4
0.0,0.0,0.0,15789,12797,10759,11766,35824,4
0.0,0.0,0.0,15789,12783,10771,11754,35898,4
0.0,0.0,0.0,15805,12810,10771,11766,35861,4
0.0,0.0,0.0,15789,13013,10771,11754,35861,4
0.0,0.0,0.0,15773,13136,10771,11716,35787,4
0.0,0.0,0.0,15773,13095,10771,11754,35787,4
0.0,0.0,0.0,15789,12999,10771,11728,35676,4
0.0,0.0,0.0,15773,13013,10771,11703,35787,4
0.0,0.0,0.0,15741,12959,10748,11716,35639,4
0.0,0.0,0.0,15773,12959,10748,11703,35676,4
0.0,0.0,0.0,15773,12932,10748,11703,35712,4
0.0,0.0,0.0,15773,13013,10748,11703,35639,4
0.0,0.0,0.0,15741,13013,10748,11728,35639,4
0.0,0.0,0.0,15710,12986,10771,11728,35712,4
0.0,0.0,0.0,15741,12918,10748,11728,35749,4
0.0,0.0,0.0,15741,12891,10748,11728,35787,4
0.0,0.0,0.0,15757,12864,10748,11754,35712,4
0.0,0.0,0.0,15773,12797,10748,11754,35712,4
0.0,0.0,0.0,15710,12824,10748,11754,35749,4
0.0,0.0,0.0,15710,12851,10771,11754,35712,4
0.0,0.0,0.0,15741,12905,10748,11754,35787,4
0.0,0.0,0.0,15710,12878,10748,11754,35712,4
0.0,0.0,0.0,15741,12878,10748,11754,35787,4
0.0,0.0,0.0,15741,12932,10748,11754,35787,4
0.0,0.0,0.0,15726,13013,10748,11754,35712,4
0.0,0.0,0.0,15726,13040,10724,11754,35712,4
0.0,0.0,0.0,15710,13068,10724,11754,35676,4
0.0,0.0,0.0,15726,12905,10724,11779,35565,4
0.0,0.0,0.0,15741,12810,10724,11766,35602,4
0.0,0.0,0.0,15710,12703,10748,11804,35565,4
0.0,0.0,0.0,15741,12690,10795,11804,35565,4
0.0,0.0,0.0,15710,12690,10819,11817,35602,4
0.0,0.0,0.0,15710,12676,10831,11817,35639,4
0.0,0.0,0.0,15741,12663,10855,11855,35602,4
0.0,0.0,0.0,15710,12690,10867,11855,35455,4
0.0,0.0,0.0,15741,12770,10891,11881,35639,4
0.0,0.0,0.0,15710,12959,10915,11881,35602,4
0.0,0.0,0.0,15726,13068,10927,11881,35565,4
0.0,0.0,0.0,15710,13150,10927,11893,35639,4
0.0,0.0,0.0,15710,13177,10915,11906,35565,4
0.0,0.0,0.0,15710,13205,10915,11881,35492,4
0.0,0.0,0.0,15726,13260,10915,11893,35565,4
0.0,0.0,0.0,15710,13357,10915,11919,35565,4
0.0,0.0,0.0,15710,13287,10915,11881,35602,4
0.0,0.0,0.0,15710,13329,10915,11906,35455,4
0.0,0.0,0.0,15694,13343,10927,11906,35565,4
0.0,0.0,0.0,15710,13315,10927,11932,35639,4
0.0,0.0,0.0,15741,13246,10915,11906,35712,4
0.0,0.0,0.0,15741,13177,10867,11932,35639,4
0.0,0.0,0.0,15726,13136,10879,11919,35602,4
0.0,0.0,0.0,15726,13081,10867,11906,35639,4
0.0,0.0,0.0,15726,13068,10843,11906,35602,4
0.0,0.0,0.0,15741,13013,10819,11932,35712,4
0.0,0.0,0.0,15789,12945,10771,11881,35787,4
0.0,0.0,0.0,15773,12905,10783,11881,35712,4
0.0,0.0,0.0,15773,12905,10748,11868,35749,4
0.0,0.0,0.0,15773,12837,10771,11868,35824,4
0.0,0.0,0.0,15741,12824,10759,11855,35861,4
0.0,0.0,0.0,15773,12797,10748,11855,35749,4
0.0,0.0,0.0,15741,12797,10748,11855,35749,4
0.0,0.0,0.0,15773,12797,10748,11855,35712,4
0.0,0.0,0.0,15741,12797,10724,11855,35787,4
0.0,0.0,0.0,15757,12743,10724,11855,35712,4
0.0,0.0,0.0,15773,12770,10724,11830,35749,4
0.0,0.0,0.0,15741,12756,10724,11817,35712,4
0.0,0.0,0.0,15710,12756,10736,11842,35565,4
0.0,0.0,0.0,15741,12770,10724,11830,35749,4
0.0,0.0,0.0,15741,12810,10771,11842,35712,4
0.0,0.0,0.0,15710,12743,10748,11970,35861,4
0.0,0.0,0.0,15726,12690,10748,12060,35972,4
0.0,0.0,0.0,15757,12663,10748,12073,35861,4
0.0,0.0,0.0,15741,12636,10724,12060,35787,4
0.0,0.0,0.0,15773,12649,10700,12124,35712,4
0.0,0.0,0.0,15741,12663,10771,12163,35712,4
0.0,0.0,0.0,15773,12743,10975,12189,35712,4
0.0,0.0,0.0,15773,12716,11060,12163,35602,4
0.0,0.0,0.0,15773,12770,11133,12163,35712,4
0.0,0.0,0.0,15757,12797,11157,12112,35602,4
0.0,0.0,0.0,15773,12797,11206,12073,35565,4
0.0,0.0,0.0,15773,12756,11157,12060,35676,4
0.0,0.0,0.0,15726,12743,11109,12047,35602,4
0.0,0.0,0.0,15726,12743,11084,12009,35602,4
0.0,0.0,0.0,15710,12743,11072,11983,35528,4
0.0,0.0,0.0,15726,12743,11060,12009,35492,4
0.0,0.0,0.0,15741,12743,11024,11957,35565,4
0.0,0.0,0.0,15789,12716,11012,11957,35528,4
0.0,0.0,0.0,15726,12824,11012,11919,35565,4
0.0,0.0,0.0,15710,12891,10987,11906,35455,4
0.0,0.0,0.0,15710,13136,10927,11881,35565,4
0.0,0.0,0.0,15710,13246,10927,11906,35565,4
0.0,0.0,0.0,15710,13232,10867,11906,35565,4
0.0,0.0,0.0,15741,13163,10867,11906,35565,4
0.0,0.0,0.0,15710,13068,10867,11906,35565,4
