GyroX,GyroY,GyroZ,Thumb,Index,Middle,Ring,Pinky,Gesture
0,0,0,20737,24824,27041,37152,14621,5
0,0,0,21125,24946,27068,37308,14636,5
0,0,0,21208,24848,26961,37308,14726,5
0,0,0,21250,24799,27041,37347,14786,5
0,0,0,20899,24702,26935,37386,14786,5
0,0,0,20798,24702,26935,37230,14801,5
0,0,0,20737,24702,26882,37269,14726,5
0,0,0,20615,24751,26935,37075,14621,5
0,0,0,20335,24799,26935,36805,14370,5
0,0,0,19941,24727,26961,36462,14166,5
0,0,0,19843,24678,27041,36310,14079,5
0,0,0,19669,24654,27095,36160,13978,5
0,0,0,19477,24558,27095,36085,14137,5
0,0,0,19306,24606,27122,36085,14341,5
0,0,0,19231,24486,27041,36085,14429,5
0,0,0,19193,24510,26961,36010,14385,5
0,0,0,19193,24462,26908,36047,14429,5
0,0,0,19193,24462,26961,36085,14518,5
0,0,0,19193,24438,26961,36235,14607,5
0,0,0,19212,24462,26855,36235,14726,5
0,0,0,19231,24462,26829,36235,14846,5
0,0,0,19231,24462,26776,36235,14922,5
0,0,0,19268,24486,26776,36310,15089,5
0,0,0,19231,24510,26723,36160,15258,5
0,0,0,19174,24462,26644,36010,15335,5
0,0,0,19155,24438,26670,36047,15459,5
0,0,0,19155,24414,26644,36160,15615,5
0,0,0,19155,24414,26513,36010,15584,5
0,0,0,19099,24414,26566,35935,15647,5
0,0,0,19080,24318,26513,35898,15663,5
0,0,0,19080,24342,26566,35861,15710,5
0,0,0,19099,24318,26461,35898,15837,5
0,0,0,19099,24318,26357,36010,15900,5
0,0,0,19155,24223,26305,35972,15789,5
0,0,0,19099,24247,26305,36010,15710,5
0,0,0,19005,24223,26331,36085,15710,5
0,0,0,18968,24223,26305,36085,15600,5
0,0,0,18894,24223,26305,36047,15475,5
0,0,0,18801,24223,26228,36085,15335,5
0,0,0,18727,24223,26228,36010,15150,5
0,0,0,18635,24152,26202,36122,14937,5
0,0,0,18489,24176,26202,36010,14786,5
0,0,0,17845,24152,26202,36386,14547,5
0,0,0,17426,24129,26150,36538,14488,5
0,0,0,17289,24129,26124,36462,14458,5
0,0,0,17254,24058,26202,36424,14458,5
0,0,0,17237,24081,26124,36386,14253,5
0,0,0,17152,24129,26099,36424,14036,5
0,0,0,17152,24081,26124,36160,14021,5
0,0,0,17135,24081,26099,36160,13992,5
0,0,0,17101,24058,26099,36122,13935,5
0,0,0,16983,24081,26047,36235,13921,5
0,0,0,16848,24081,26099,36499,13863,5
0,0,0,16781,24058,26022,36386,13949,5
0,0,0,16748,24129,25996,36424,13935,5
0,0,0,16748,24081,25996,36348,13949,5
0,0,0,16748,24129,25894,36310,13906,5
0,0,0,16748,24034,25996,36310,13863,5
0,0,0,16698,24081,25996,36235,13906,5
0,0,0,16681,24034,25894,36122,13949,5
0,0,0,16698,24034,25843,36010,14050,5
0,0,0,16815,24034,25894,35935,14137,5
0,0,0,16798,23964,25843,35824,14253,5
0,0,0,16765,23987,25793,36235,14195,5
0,0,0,16748,23987,25894,36310,14195,5
0,0,0,16748,23987,25894,36122,14195,5
0,0,0,16698,24034,25843,36010,14166,5
0,0,0,16648,24034,25843,36010,14311,5
0,0,0,16665,24034,25818,35972,14429,5
0,0,0,16648,24034,25793,35935,14341,5
0,0,0,16615,23987,25793,35935,14326,5
0,0,0,16615,23987,25793,35861,14385,5
0,0,0,16565,23987,25793,35824,14488,5
0,0,0,16565,23964,25818,35787,14488,5
0,0,0,16549,23940,25767,35787,14518,5
0,0,0,16549,23964,25793,35787,14547,5
0,0,0,16549,24034,25793,35712,14636,5
0,0,0,16549,24034,25793,35749,14666,5
0,0,0,16499,23940,25742,35639,14771,5
0,0,0,16499,23964,25742,35639,14786,5
0,0,0,16499,23987,25742,35602,14756,5
0,0,0,16483,23940,25742,35639,14801,5
0,0,0,16434,23894,25742,35639,14756,5
0,0,0,16434,23940,25691,35565,14666,5
0,0,0,16401,23987,25742,35639,14636,5
0,0,0,16417,23987,25641,35565,14607,5
0,0,0,16385,23940,25742,35565,14607,5
0,0,0,16368,23940,25742,35639,14666,5
0,0,0,16417,23964,25742,35639,14547,5
0,0,0,16417,23940,25767,35455,14577,5
0,0,0,16385,23964,25691,35492,14607,5
0,0,0,16417,23987,25691,35492,14636,5
0,0,0,16385,23940,25717,35565,14816,5
0,0,0,16417,23940,25742,35565,15119,5
0,0,0,16385,23964,25691,35455,15089,5
0,0,0,16368,23917,25742,35565,15028,5
0,0,0,16352,23940,25742,35565,15043,5
0,0,0,16352,23940,25691,35455,15058,5
0,0,0,16401,23894,25641,35418,15074,5
0,0,0,16385,23940,25666,35492,15074,5
0,0,0,16368,23894,25742,35455,15013,5
0,0,0,16368,23894,25691,35382,15043,5
0,0,0,16385,23870,25691,35345,15028,5
0,0,0,16352,23894,25691,35309,15181,5
0,0,0,16385,23894,25691,35309,15242,5
0,0,0,16352,23940,25591,35272,15165,5
0,0,0,16352,23894,25691,35199,15211,5
0,0,0,16319,23894,25641,35272,15211,5
0,0,0,16352,23870,25666,35309,15258,5
0,0,0,16352,23894,25641,35272,15258,5
0,0,0,16368,23800,25591,35127,15242,5
0,0,0,16352,23847,25641,35345,15058,5
0,0,0,16352,23870,25641,35272,14967,5
0,0,0,16352,23894,25591,35236,14997,5
0,0,0,16352,23847,25666,35199,15028,5
0,0,0,16368,23847,25691,35272,15089,5
0,0,0,16352,23847,25591,35127,15165,5
0,0,0,16336,23870,25591,35127,15181,5
0,0,0,16352,23847,25540,35127,15227,5
0,0,0,16352,23824,25515,34982,15366,5
0,0,0,16336,23777,25565,34803,15475,5
0,0,0,16336,23800,25591,34767,15366,5
0,0,0,16352,23800,25540,34696,15350,5
0,0,0,16336,23777,25515,34731,15335,5
0,0,0,16352,23754,25515,34731,15227,5
0,0,0,16352,23777,25540,34696,15227,5
0,0,0,16303,23707,25515,34660,15242,5
0,0,0,16303,23707,25540,34660,15258,5
0,0,0,16336,23777,25490,34624,15211,5
0,0,0,16352,23777,25440,34660,15181,5
0,0,0,16303,23800,25515,34553,15227,5
0,0,0,16303,23777,25440,34696,15335,5
0,0,0,16352,23754,25465,34624,15350,5
0,0,0,16303,23707,25515,34696,15397,5
0,0,0,16303,23754,25490,34624,15521,5
0,0,0,16303,23707,25440,34624,15475,5
0,0,0,16352,23707,25490,34624,15459,5
0,0,0,16287,23754,25415,34553,15428,5
0,0,0,16303,23754,25440,34589,15397,5
0,0,0,16287,23707,25440,34624,15397,5
0,0,0,16287,23730,25440,34660,15397,5
0,0,0,16287,23661,25440,34624,15397,5
0,0,0,16287,23754,25440,34553,15366,5
0,0,0,16287,23661,25390,34660,15397,5
0,0,0,16287,23661,25440,34589,15397,5
0,0,0,16238,23684,25440,34553,15397,5
0,0,0,16254,23707,25415,34553,15459,5
0,0,0,16222,23638,25440,34624,15412,5
0,0,0,16254,23684,25440,34624,15459,5
0,0,0,16287,23661,25415,34553,15475,5
0,0,0,16254,23661,25415,34553,15521,5
0,0,0,16287,23661,25440,34624,15490,5
0,0,0,16254,23707,25415,34518,15521,5
0,0,0,16254,23661,25390,34482,15521,5
0,0,0,16287,23661,25365,34589,15490,5
0,0,0,16254,23569,25390,34518,15490,5
0,0,0,16254,23661,25390,34553,15537,5
0,0,0,16254,23638,25390,34553,15490,5
0,0,0,16254,23569,25341,34482,15553,5
0,0,0,16287,23661,25390,34518,15553,5
0,0,0,16238,23661,25390,34553,15568,5
0,0,0,16238,23638,25341,34482,15584,5
0,0,0,16254,23615,25316,34482,15600,5
0,0,0,16254,23661,25316,34482,15584,5
0,0,0,16254,23615,25341,34482,15584,5
0,0,0,16287,23569,25390,34447,15615,5
0,0,0,16287,23615,25341,34482,15615,5
0,0,0,16222,23592,25341,34412,15584,5
0,0,0,16254,23615,25291,34412,15615,5
0,0,0,16222,23569,25341,34447,15584,5
0,0,0,16222,23569,25390,34482,15615,5
0,0,0,16238,23592,25341,34518,15663,5
0,0,0,16254,23569,25291,34482,15726,5
0,0,0,16222,23615,25316,34412,15710,5
0,0,0,16222,23522,25341,34412,15741,5
0,0,0,16238,23522,25390,34447,15741,5
0,0,0,16206,23522,25316,34482,15710,5
0,0,0,16222,23592,25291,34412,15741,5
0,0,0,16254,23569,25316,34341,15710,5
0,0,0,16222,23522,25291,34412,15710,5
0,0,0,16222,23569,25266,34447,15647,5
0,0,0,16254,23569,25241,34412,15647,5
0,0,0,16254,23569,25241,34412,15288,5
0,0,0,16254,23569,25291,34447,14982,5
0,0,0,16254,23569,25241,34553,14741,5
0,0,0,16401,23661,25316,34482,14681,5
0,0,0,17118,23638,25341,34624,14621,5
0,0,0,18672,23707,25316,34624,14636,5
0,0,0,19960,23684,25390,34696,14577,5
0,0,0,20676,23800,25390,34553,14636,5
0,0,0,21022,23847,25341,34589,14607,5
0,0,0,21416,23870,25390,34447,14592,5
0,0,0,21584,23894,25440,34482,14518,5
0,0,0,21648,23940,25390,34271,14488,5
0,0,0,21627,24034,25390,34306,14488,5
0,0,0,21563,24058,25365,34271,14341,5
0,0,0,21584,24034,25390,34376,14253,5
0,0,0,21542,24058,25365,34306,14195,5
0,0,0,21563,24152,25365,34341,14195,5
0,0,0,21500,24081,25440,34341,14108,5
0,0,0,21711,24152,25390,34412,14079,5
0,0,0,22010,24081,25415,34341,14021,5
0,0,0,22096,24199,25316,34271,14021,5
0,0,0,22183,24223,25341,34341,14021,5
0,0,0,22401,24223,25390,34341,13992,5
0,0,0,22401,24294,25390,34412,13921,5
0,0,0,22444,24390,25390,34412,13935,5
0,0,0,22488,24510,25390,34341,13878,5
0,0,0,22401,24510,25490,34271,13878,5
0,0,0,22444,24534,25465,34341,13878,5
0,0,0,22357,24630,25515,34306,13792,5
0,0,0,22423,24654,25490,34235,13778,5
0,0,0,22401,24751,25490,34165,13792,5
0,0,0,22423,24995,25742,34271,13792,5
0,0,0,22401,25192,25894,34306,13806,5
0,0,0,22444,25490,25996,34341,13906,5
0,0,0,22488,25691,26253,34553,13978,5
0,0,0,22576,25894,26513,34803,14253,5
0,0,0,22510,26022,26566,34874,14311,5
0,0,0,22313,25793,26409,34767,14341,5
0,0,0,22183,25742,26383,34839,14282,5
0,0,0,22140,25894,26331,34839,14341,5
0,0,0,22053,26202,26461,34839,14355,5
0,0,0,21924,26253,26566,34767,14311,5
0,0,0,21860,26331,26566,34767,14370,5
0,0,0,21882,26228,26566,34624,14429,5
0,0,0,21903,26047,26513,34412,14444,5
0,0,0,21967,25996,26566,34130,14488,5
0,0,0,22010,25894,26461,33921,14547,5
0,0,0,21924,25818,26409,33852,14503,5
0,0,0,21903,25717,26305,33852,14488,5
0,0,0,21903,25616,26305,33852,14458,5
0,0,0,21882,25515,26150,33783,14444,5
0,0,0,21924,25390,26124,33748,14577,5
0,0,0,21903,25291,26124,33887,14547,5
0,0,0,21860,25192,26047,34026,14326,5
0,0,0,21818,25118,26022,34060,14108,5
0,0,0,21839,25093,26047,34341,13964,5
0,0,0,21818,25093,26047,34060,13921,5
0,0,0,21754,25093,25945,34060,13892,5
0,0,0,21775,24995,25945,34026,13849,5
0,0,0,21775,24970,25945,33956,13849,5
0,0,0,21775,24995,25920,33991,13764,5
0,0,0,21711,24921,25843,33921,13735,5
0,0,0,21711,24921,25843,33921,13735,5
0,0,0,21711,24848,25843,33921,13778,5
0,0,0,21711,24824,25843,33991,13735,5
0,0,0,21627,24897,25818,33921,13849,5
0,0,0,21627,24799,25818,33921,13921,5
0,0,0,21627,24824,25843,33852,13978,5
0,0,0,21627,24848,25843,33817,14021,5
0,0,0,21627,24897,25843,33645,14282,5
0,0,0,21584,24848,25818,33337,14696,5
0,0,0,21627,24751,25843,33236,14801,5
0,0,0,21627,24775,25843,33168,14907,5
0,0,0,21627,24751,25894,32966,15242,5
0,0,0,21648,24751,25996,32899,15521,5
0,0,0,21606,24510,25945,32966,15757,5
0,0,0,21542,24366,25793,33168,16093,5
0,0,0,21542,24176,25641,33033,16060,5
0,0,0,21627,24034,25540,32866,15916,5
0,0,0,21584,24129,25490,32799,15757,5
0,0,0,21627,24081,25440,32899,15647,5
0,0,0,21584,24081,25341,32765,15521,5
0,0,0,21648,24058,25390,32633,15553,5
0,0,0,21648,24058,25341,32666,15553,5
0,0,0,21606,24034,25341,32765,15584,5
0,0,0,21627,24034,25341,32633,15615,5
0,0,0,21648,23987,25341,32633,15584,5
0,0,0,21627,23987,25316,32633,15615,5
0,0,0,21584,23987,25291,32666,15521,5
0,0,0,21627,23940,25291,32699,15553,5
0,0,0,21584,23964,25291,32666,15553,5
0,0,0,21542,23964,25241,32732,15647,5
0,0,0,21584,23964,25192,32699,15615,5
0,0,0,21542,23940,25192,32699,15553,5
0,0,0,21542,23940,25216,32699,15553,5
0,0,0,21542,23870,25192,32666,15537,5
0,0,0,21563,23940,25192,32633,15521,5
0,0,0,21521,23917,25192,32699,15553,5
0,0,0,21521,23870,25192,32633,15584,5
0,0,0,21479,23870,25142,32765,15615,5
0,0,0,21479,23847,25142,32732,15584,5
0,0,0,21479,23894,25142,32899,15615,5
0,0,0,21500,23847,25093,32866,15584,5
0,0,0,21416,23847,25093,32832,15600,5
0,0,0,21437,23847,25093,32765,15615,5
0,0,0,21416,23847,25093,32699,15615,5
0,0,0,21354,23894,25093,32765,15553,5
0,0,0,21395,23800,25093,32832,15584,5
0,0,0,21375,23847,25093,32799,15584,5
0,0,0,21416,23800,25068,32732,15521,5
0,0,0,21333,23800,25093,32765,15584,5
0,0,0,21312,23754,25044,32765,15678,5
0,0,0,21375,23800,25068,32765,15773,5
0,0,0,21291,23847,25044,32799,15773,5
0,0,0,21291,23777,25019,32799,15837,5
0,0,0,21312,23777,25019,32765,15837,5
0,0,0,21312,23847,25044,32765,15773,5
0,0,0,21375,23777,25019,32699,15710,5
0,0,0,21291,23754,24995,32765,15678,5
0,0,0,21333,23800,25044,32699,15615,5
0,0,0,21291,23800,24946,32732,15397,5
0,0,0,21250,23754,25019,32899,15150,5
0,0,0,21208,23707,24995,32966,15150,5
0,0,0,21229,23754,24995,32866,15150,5
0,0,0,21167,23754,24995,32832,15211,5
0,0,0,21167,23684,24946,32899,15211,5
0,0,0,21125,23661,24995,32899,15242,5
0,0,0,21084,23707,24946,32832,15319,5
0,0,0,21064,23684,24946,32899,15397,5
0,0,0,21064,23638,24946,32832,15506,5
0,0,0,21002,23684,24946,32799,15537,5
0,0,0,20981,23615,24946,32899,15647,5
0,0,0,20961,23499,24995,32832,15741,5
0,0,0,20961,23615,24921,32732,15773,5
0,0,0,20879,23615,24751,32765,15789,5
0,0,0,20879,23615,24897,32765,15805,5
0,0,0,20879,23477,24995,32765,15805,5
0,0,0,20798,23569,24848,32765,15852,5
0,0,0,20798,23569,24897,32765,15868,5
0,0,0,20798,23569,24921,32765,15916,5
0,0,0,20757,23569,24775,32832,15964,5
0,0,0,20737,23569,24848,32832,16028,5
0,0,0,20757,23569,24897,32799,16044,5
0,0,0,20716,23522,24848,32765,16028,5
0,0,0,20737,23569,24799,32866,16044,5
0,0,0,20716,23522,24848,32832,15868,5
0,0,0,20716,23522,24824,32799,15773,5
0,0,0,20716,23592,24873,32765,15741,5
0,0,0,20716,23499,24824,32765,15584,5
0,0,0,20676,23569,24799,32866,15242,5
0,0,0,20636,23569,24848,33033,15104,5
0,0,0,20636,23569,24799,33236,15058,5
0,0,0,20636,23592,24897,33542,15119,5
0,0,0,20455,23569,24848,33748,15211,5
0,0,0,19921,23522,24848,33887,15242,5
0,0,0,19458,23569,24799,33921,15089,5
0,0,0,19043,23546,24799,34130,15028,5
0,0,0,18746,23569,24824,34060,14876,5
0,0,0,18654,23569,24824,34130,14696,5
0,0,0,18599,23522,24727,34200,14666,5
0,0,0,18635,23522,24799,34376,14562,5
0,0,0,18857,23569,24897,34482,14577,5
0,0,0,18931,23754,24995,34982,14801,5
0,0,0,19099,23847,25093,35127,14891,5
0,0,0,19174,23940,25192,35528,14922,5
0,0,0,19193,23964,25216,35565,14967,5
0,0,0,19193,24034,25316,35639,14967,5
0,0,0,19306,24034,25241,35455,14846,5
0,0,0,19344,23940,25142,34874,14846,5
0,0,0,19458,23847,24995,34200,15150,5
0,0,0,19458,23638,24946,33714,15397,5
0,0,0,19382,23522,24824,33576,15615,5
0,0,0,19458,23477,24799,33474,15773,5
0,0,0,19458,23431,24751,33611,16238,5
0,0,0,19420,23294,24678,33542,16336,5
0,0,0,19420,23248,24558,33337,16385,5
0,0,0,19420,23225,24534,33168,16157,5
0,0,0,19458,23225,24510,33100,15964,5
0,0,0,19439,23203,24510,32966,15789,5
0,0,0,19458,23203,24534,32866,16060,5
0,0,0,19497,23203,24462,32765,16352,5
0,0,0,19573,23203,24366,32765,16125,5
0,0,0,19573,23316,24510,32765,15537,5
0,0,0,19612,23385,24534,33439,15288,5
0,0,0,19516,23454,24727,34696,15227,5
0,0,0,19439,23385,24897,35127,15397,5
0,0,0,19554,23339,24946,35565,15397,5
0,0,0,19535,23294,24897,35565,15273,5
0,0,0,19497,23225,24897,35492,15490,5
0,0,0,19554,23112,24897,35418,15584,5
0,0,0,19612,23157,24751,35492,15663,5
0,0,0,19766,23135,24702,35787,15258,5
0,0,0,19708,23112,24606,36160,14414,5
0,0,0,19612,23157,24510,36348,14137,5
0,0,0,19516,23180,24438,36085,14166,5
0,0,0,19458,23203,24414,36047,14253,5
0,0,0,19420,23203,24462,35972,14253,5
0,0,0,19477,23294,24438,36010,14311,5
0,0,0,19573,23477,24342,36047,14326,5
0,0,0,19554,23454,24271,36010,14370,5
0,0,0,19535,23431,24318,36010,14341,5
0,0,0,19843,23477,24318,35712,14399,5
0,0,0,20315,23615,24318,35272,14547,5
0,0,0,20415,23777,24414,34946,14503,5
0,0,0,20315,23894,24414,34731,14547,5
0,0,0,20078,24105,24414,34412,14607,5
0,0,0,19805,24199,24318,34200,14518,5
0,0,0,19805,24105,24318,34130,14518,5
0,0,0,19497,23940,24318,34026,14488,5
0,0,0,19344,23847,24318,33991,14488,5
0,0,0,19231,23800,24271,33921,14488,5
0,0,0,19231,23777,24247,33817,14547,5
0,0,0,19174,23754,24223,33852,14547,5
0,0,0,19136,23661,24223,33852,14488,5
0,0,0,19080,23661,24271,33852,14444,5
0,0,0,19099,23592,24223,33748,14399,5
0,0,0,19099,23569,24247,33817,14429,5
0,0,0,19080,23569,24199,33714,14488,5
0,0,0,19043,23477,24199,33852,14488,5
0,0,0,19155,23546,24176,33852,14503,5
0,0,0,19193,23592,24199,33852,14532,5
0,0,0,19344,23569,24129,33783,14518,5
0,0,0,19268,23569,24129,33748,14518,5
0,0,0,19306,23569,24129,33817,14518,5
0,0,0,19325,23569,24129,33714,14503,5
0,0,0,19401,23569,24129,33645,14503,5
0,0,0,19497,23592,24129,33748,14473,5
0,0,0,19573,23615,24176,33783,14473,5
0,0,0,19535,23661,24176,33714,14429,5
0,0,0,19535,23661,24129,33783,14399,5
0,0,0,19554,23707,24129,33645,14399,5
0,0,0,19477,23684,24152,33714,14370,5
0,0,0,19535,23661,24129,33679,14370,5
0,0,0,19497,23684,24081,33714,14370,5
0,0,0,19420,23569,24081,33645,14370,5
0,0,0,19382,23615,24081,33576,14370,5
0,0,0,19249,23615,24105,33645,14385,5
0,0,0,19080,23569,24034,33576,14399,5
0,0,0,18857,23431,24034,33576,14370,5
0,0,0,18727,23339,23964,33508,14370,5
0,0,0,19061,23157,23964,33576,14547,5
0,0,0,19497,23022,24011,33714,14756,5
0,0,0,19766,22887,23940,33748,14846,5
0,0,0,19843,22932,23917,33748,14846,5
0,0,0,20019,22820,23940,33714,14861,5
0,0,0,20275,22754,23894,33748,14922,5
0,0,0,20636,22665,23847,33783,14967,5
0,0,0,20676,22665,23847,33748,14967,5
0,0,0,20798,22621,23754,33714,15028,5
0,0,0,20981,22621,23777,33714,15089,5
0,0,0,20859,22576,23754,33748,15165,5
0,0,0,20676,22576,23754,33783,15196,5
0,0,0,20595,22576,23754,33852,15211,5
0,0,0,20315,22554,23754,33921,15089,5
0,0,0,20019,22532,23754,34271,14801,5
0,0,0,19708,22576,23800,34589,14726,5
0,0,0,19592,22488,23777,34696,14726,5
0,0,0,19497,22444,23754,34839,14786,5
0,0,0,19363,22444,23754,34910,14786,5
0,0,0,19249,22488,23777,35199,14696,5
0,0,0,19193,22488,23800,35345,14607,5
0,0,0,19155,22510,23754,35272,14666,5
0,0,0,19043,22488,23824,35492,14488,5
0,0,0,19080,22466,23847,35602,14282,5
0,0,0,18875,22444,23800,35602,14224,5
0,0,0,18764,22488,23777,35639,14021,5
0,0,0,18727,22488,23800,35712,13906,5
0,0,0,18562,22532,23800,35639,13821,5
0,0,0,18489,22576,23800,35455,13821,5
0,0,0,18236,22665,23754,35272,13764,5
0,0,0,18057,22643,23754,35163,13735,5
0,0,0,17986,22665,23707,35127,13735,5
0,0,0,17792,22621,23661,35127,13735,5
0,0,0,17634,22643,23707,35018,13693,5
0,0,0,17565,22665,23684,34982,13735,5
0,0,0,17357,22754,23754,34839,13792,5
0,0,0,17254,22709,23707,34839,13735,5
0,0,0,17254,22731,23661,34839,13707,5
0,0,0,17374,22709,23684,34839,13679,5
0,0,0,17220,22754,23684,34803,13636,5
0,0,0,17220,22754,23707,34767,13679,5
0,0,0,17220,22754,23754,34839,13594,5
0,0,0,17426,22754,23707,34803,13594,5
0,0,0,17443,22754,23777,34767,13622,5
0,0,0,17392,22776,23777,34839,13622,5
0,0,0,17357,22754,23684,34696,13566,5
0,0,0,17306,22798,23684,34624,13566,5
0,0,0,17272,22820,23707,34553,13580,5
0,0,0,17220,22843,23707,34553,13580,5
0,0,0,17220,22798,23754,34589,13538,5
0,0,0,17203,22731,23754,34624,13566,5
0,0,0,17220,22843,23707,34482,13566,5
0,0,0,17220,22776,23730,34553,13566,5
0,0,0,17254,22776,23661,34518,13566,5
0,0,0,17254,22754,23661,34482,13510,5
0,0,0,17272,22731,23754,34518,13524,5
0,0,0,17254,22754,23707,34482,13538,5
0,0,0,17254,22754,23661,34412,13524,5
0,0,0,17220,22754,23615,34518,13524,5
0,0,0,17186,22665,23661,34482,13566,5
0,0,0,17203,22709,23638,34376,13594,5
0,0,0,17169,22709,23615,34447,13580,5
0,0,0,17118,22709,23615,34376,13580,5
0,0,0,17084,22709,23615,34412,13580,5
0,0,0,17118,22665,23546,34341,13580,5
0,0,0,17016,22643,23569,34341,13650,5
0,0,0,16999,22599,23569,34447,13622,5
0,0,0,17016,22621,23569,34341,13679,5
0,0,0,17016,22643,23477,34412,13707,5
0,0,0,16966,22621,23522,34341,13749,5
0,0,0,16983,22576,23499,34341,13792,5
0,0,0,16966,22621,23522,34341,13806,5
0,0,0,16983,22532,23569,34412,13849,5
0,0,0,16949,22576,23522,34341,13878,5
0,0,0,16932,22576,23522,34482,13935,5
0,0,0,16915,22554,23477,34341,13964,5
0,0,0,16898,22554,23477,34376,13935,5
0,0,0,16831,22576,23454,34341,14079,5
0,0,0,16882,22532,23477,34341,14021,5
0,0,0,16815,22532,23431,34341,14079,5
0,0,0,16831,22510,23477,34376,14050,5
0,0,0,16831,22576,23477,34341,14050,5
0,0,0,16831,22532,23431,34271,14079,5
0,0,0,16815,22576,23431,34341,14064,5
0,0,0,16815,22510,23454,34412,14021,5
0,0,0,16781,22488,23431,34341,13964,5
0,0,0,16781,22554,23385,34235,13906,5
0,0,0,16831,22576,23477,34200,13821,5
0,0,0,16949,22576,23431,34235,13821,5
0,0,0,17495,22665,23431,34165,13821,5
0,0,0,18931,22731,23477,34165,13849,5
0,0,0,20039,22709,23499,34130,13892,5
0,0,0,19999,22643,23522,34130,14050,5
0,0,0,19401,22532,23477,34026,14137,5
0,0,0,18272,22532,23431,34130,14666,5
0,0,0,17461,22488,23477,34130,14907,5
0,0,0,17374,22488,23569,34271,16254,5
0,0,0,17495,22444,23522,34200,16582,5
0,0,0,17220,22444,23661,34026,16352,5
0,0,0,16632,22466,23592,33783,16303,5
0,0,0,15521,22401,23638,33852,16336,5
0,0,0,14607,22401,23615,33783,16368,5
0,0,0,14195,22357,23592,33714,16319,5
0,0,0,13978,22401,23546,33783,16336,5
0,0,0,13849,22444,23546,33679,16222,5
0,0,0,13863,22576,23569,33645,16157,5
0,0,0,13650,22754,23569,33611,16125,5
0,0,0,13343,22843,23499,33645,16157,5
0,0,0,13177,22932,23499,33542,16157,5
0,0,0,13068,22977,23431,33542,16157,5
0,0,0,13068,22932,23431,33542,16254,5
0,0,0,13081,22887,23431,33542,16303,5
0,0,0,13081,22910,23431,33508,16352,5
0,0,0,12972,23067,23431,33542,16352,5
0,0,0,12636,23294,23385,33371,16287,5
0,0,0,12451,23294,23316,33303,16434,5
0,0,0,12451,23294,23248,33303,16450,5
0,0,0,12398,23225,23225,33236,16368,5
0,0,0,12398,23180,23203,33236,16303,5
0,0,0,12398,23112,23135,33168,16254,5
0,0,0,12359,23067,23203,33168,16254,5
0,0,0,12372,23044,23225,33168,16254,5
0,0,0,12372,23067,23157,33033,16271,5
0,0,0,12346,22955,23157,33067,16254,5
0,0,0,12372,22977,23157,33067,16303,5
0,0,0,12372,22977,23157,33168,16319,5
0,0,0,12372,22932,23157,33168,16319,5
0,0,0,12359,22977,23112,33168,16303,5
0,0,0,12372,22932,23157,33100,16336,5
0,0,0,12398,22932,23112,33100,16352,5
0,0,0,12424,22955,23112,33100,16352,5
0,0,0,12451,22887,23112,32966,16336,5
0,0,0,12477,22887,23135,32966,16352,5
0,0,0,12490,22910,23157,33033,16368,5
0,0,0,12530,22865,23112,32932,16368,5
0,0,0,12543,22843,23135,32899,16417,5
0,0,0,12583,22843,23203,32966,16467,5
0,0,0,12543,22887,23157,32866,16516,5
0,0,0,12610,22798,23112,32932,16549,5
0,0,0,12583,22798,23135,32966,16549,5
0,0,0,12583,22820,23157,32999,16615,5
0,0,0,12636,22754,23112,32999,16615,5
0,0,0,12610,22754,23135,32899,16748,5
0,0,0,12649,22798,23112,32899,16698,5
0,0,0,12636,22754,23112,32899,16698,5
0,0,0,12690,22754,23157,32966,16698,5
0,0,0,12837,22798,23112,32899,16698,5
0,0,0,12972,22709,23157,32966,16681,5
0,0,0,13260,22665,23112,32932,16632,5
0,0,0,13679,22576,23225,32899,16715,5
0,0,0,13849,22510,23180,33033,16698,5
0,0,0,14064,22532,23203,32932,16681,5
0,0,0,14108,22401,23203,32932,16632,5
0,0,0,14326,22357,23203,33033,16648,5
0,0,0,14473,22357,23271,32999,16582,5
0,0,0,14666,22423,23225,33033,16141,5
0,0,0,14577,22379,23294,33168,15600,5
0,0,0,14577,22423,23339,33303,15165,5
0,0,0,14696,22444,23316,33236,14907,5
0,0,0,14636,22444,23294,33337,14726,5
0,0,0,14741,22444,23294,33439,14518,5
0,0,0,14937,22488,23294,33508,14370,5
0,0,0,14876,22466,23248,33714,14282,5
0,0,0,15043,22444,23271,33679,14195,5
0,0,0,15135,22488,23203,33508,14137,5
0,0,0,15196,22532,23225,33439,14079,5
0,0,0,15242,22488,23225,33371,14064,5
0,0,0,15211,22488,23203,33202,14021,5
0,0,0,15150,22466,23112,33168,14021,5
0,0,0,15150,22488,23157,33067,14079,5
0,0,0,15211,22444,23203,32932,14108,5
0,0,0,15242,22401,23225,32832,14209,5
0,0,0,15443,22313,23271,32566,14488,5
0,0,0,15412,22270,23339,32303,14666,5
0,0,0,15459,22313,23294,32043,14726,5
0,0,0,15475,22270,23316,32108,14741,5
0,0,0,15553,22183,23431,32108,14846,5
0,0,0,15584,22226,23454,32010,15119,5
0,0,0,15490,22140,23431,31752,15150,5
0,0,0,15397,22096,23431,31785,15211,5
0,0,0,15412,22096,23408,31785,15366,5
0,0,0,15397,22118,23339,31785,15397,5
0,0,0,15397,22075,23339,31817,15428,5
0,0,0,15366,22096,23316,31752,15428,5
0,0,0,15397,22118,23339,31720,15428,5
0,0,0,15366,22096,23316,31849,15428,5
0,0,0,15335,22096,23225,31785,15459,5
0,0,0,15397,22140,23248,31785,15428,5
0,0,0,15366,22075,23294,31785,15459,5
0,0,0,15335,22075,23294,31946,15412,5
0,0,0,15242,22053,23294,32108,15412,5
0,0,0,15242,22053,23248,32043,15475,5
0,0,0,15135,22010,23225,32043,15584,5
0,0,0,15150,22010,23248,32108,15615,5
0,0,0,15119,22010,23225,32043,15615,5
0,0,0,15089,22032,23203,32108,15521,5
0,0,0,15043,22032,23225,32108,15490,5
0,0,0,14997,22010,23180,32108,15475,5
0,0,0,14952,22010,23203,32043,15521,5
0,0,0,15058,22010,23180,31978,15490,5
0,0,0,15181,22053,23157,31913,15647,5
0,0,0,15104,22010,23157,31913,15694,5
0,0,0,14967,22075,23112,31849,15647,5
0,0,0,14696,22053,23135,31849,15694,5
0,0,0,14577,22053,23157,31785,15741,5
0,0,0,14311,22032,23090,31785,15837,5
0,0,0,14253,22161,23112,31785,15852,5
0,0,0,14268,22096,23112,31656,15837,5
0,0,0,14562,22096,23067,31720,15868,5
0,0,0,14621,22096,23112,31720,15837,5
0,0,0,14982,22010,23112,31720,15837,5
0,0,0,15089,22053,23022,31720,15837,5
0,0,0,15366,22032,23090,31720,15821,5
0,0,0,15397,21924,23339,31785,15837,5
0,0,0,15506,22010,23112,31720,15837,5
0,0,0,15459,22010,23090,31688,15852,5
0,0,0,15412,21924,23316,31720,15837,5
0,0,0,15521,22010,23067,31656,15900,5
0,0,0,15710,22010,23112,31561,16060,5
0,0,0,15726,22010,23294,31656,16287,5
0,0,0,15710,22053,23294,31593,17084,5
0,0,0,15663,21967,23569,31624,18308,5
0,0,0,15647,22010,23294,31593,18894,5
0,0,0,15615,22010,23294,31529,18764,5
0,0,0,15710,22010,23339,31561,18236,5
0,0,0,15741,22010,23339,31529,17495,5
0,0,0,15726,21903,23569,31529,16434,5
0,0,0,15916,21924,23522,31465,15584,5
0,0,0,15852,21924,23499,31402,14756,5
0,0,0,16060,22010,23248,31529,14577,5
0,0,0,15980,21924,23499,31593,14503,5
0,0,0,15837,21882,23499,31849,14488,5
0,0,0,15773,21882,23431,31849,14488,5
0,0,0,15694,21882,23431,31881,14488,5
0,0,0,15678,21882,23385,31881,14488,5
0,0,0,15647,21903,23385,31785,14488,5
0,0,0,15615,21860,23385,31849,14488,5
0,0,0,15459,21882,23294,31946,14488,5
0,0,0,15150,21796,23294,31913,14547,5
0,0,0,14370,21775,23294,31978,14488,5
0,0,0,13371,21818,23294,32043,14607,5
0,0,0,13122,21882,23316,32043,14636,5
0,0,0,13013,21903,23248,32010,14726,5
0,0,0,12905,22096,22977,32010,14922,5
0,0,0,12905,22226,22999,32043,14967,5
0,0,0,12905,22313,23022,32043,14952,5
0,0,0,12905,22226,23022,32173,14907,5
0,0,0,12864,22313,23022,32173,14907,5
0,0,0,12824,22270,22977,32140,14922,5
0,0,0,12810,22183,23044,32173,14907,5
0,0,0,12797,22183,23022,32238,14876,5
0,0,0,12797,22161,23044,32238,14967,5
0,0,0,12797,22140,22977,32238,15028,5
0,0,0,12770,22140,23044,32173,15242,5
0,0,0,12743,22161,23044,32205,15288,5
0,0,0,12690,22140,23044,32173,15366,5
0,0,0,12770,22096,23022,32238,15397,5
0,0,0,12837,22118,23022,32173,15304,5
0,0,0,12905,22053,22977,32205,15304,5
0,0,0,13068,22010,23044,32108,15258,5
0,0,0,13580,22010,23022,32140,15242,5
0,0,0,14846,21924,23271,32108,15273,5
0,0,0,16060,21860,23225,32108,15273,5
0,0,0,17357,21882,23248,32108,15242,5
0,0,0,18308,21924,23294,32173,15227,5
0,0,0,18764,21882,23248,32043,15258,5
0,0,0,19193,21903,23339,32108,15211,5
0,0,0,19727,21903,23294,32173,15242,5
0,0,0,20256,21967,23316,32238,15211,5
0,0,0,20335,21967,23294,32271,15211,5
0,0,0,20275,22010,23067,32303,14997,5
0,0,0,20275,21924,23339,32336,14771,5
0,0,0,20275,22010,23112,32500,14577,5
0,0,0,20157,22010,23135,32435,14518,5
0,0,0,20078,22053,23112,32435,14473,5
0,0,0,19999,22053,23067,32500,14399,5
0,0,0,19999,22010,23112,32500,14326,5
0,0,0,20039,22096,23112,32500,14311,5
0,0,0,20335,22096,23203,32799,14238,5
0,0,0,20636,22140,23225,32899,14253,5
0,0,0,21002,22075,23225,32932,14253,5
0,0,0,21711,22140,23225,32932,14224,5
0,0,0,22183,22096,23294,32932,14297,5
0,0,0,22161,22140,23294,32799,14326,5
0,0,0,22183,22075,23271,32899,14297,5
0,0,0,22248,22140,23294,32832,14253,5
0,0,0,22357,22118,23248,32799,14311,5
0,0,0,23022,22140,23316,32899,14282,5
0,0,0,23499,22096,23316,32966,14209,5
0,0,0,23431,22140,23316,33100,14195,5
0,0,0,23339,22226,23339,33202,14195,5
0,0,0,23522,22270,23477,33405,14326,5
0,0,0,23522,22226,23431,33439,14282,5
0,0,0,23569,22270,23431,33371,14311,5
0,0,0,23615,22226,23385,33236,14311,5
0,0,0,23638,22226,23431,33337,14311,5
0,0,0,23684,22226,23339,33303,14268,5
0,0,0,23707,22248,23339,33303,14311,5
0,0,0,23707,22226,23431,33337,14282,5
0,0,0,23707,22226,23454,33303,14282,5
0,0,0,23777,22270,23477,33303,14282,5
0,0,0,23615,22270,23431,33269,14341,5
0,0,0,23592,22270,23431,33236,14311,5
0,0,0,23385,22183,23339,33168,14370,5
0,0,0,23157,22183,23339,33202,14385,5
0,0,0,22754,22075,23225,33202,14429,5
0,0,0,22466,22140,23203,33100,14488,5
0,0,0,21627,22053,23203,33100,14592,5
0,0,0,20777,22010,23135,33134,14607,5
0,0,0,19420,22010,23180,33236,14577,5
0,0,0,18562,22053,23112,33100,14607,5
0,0,0,17739,22010,23135,33100,14666,5
0,0,0,16966,21924,23362,33067,14696,5
0,0,0,16093,21839,23385,33100,14771,5
0,0,0,15089,21818,23431,33033,14801,5
0,0,0,14607,21882,23339,32966,14801,5
0,0,0,14311,21946,23316,32899,14786,5
0,0,0,14137,22032,23022,32932,14786,5
0,0,0,13978,22010,23022,33033,14846,5
0,0,0,13921,22075,23022,32932,14846,5
0,0,0,13806,22053,23022,32966,14861,5
0,0,0,13792,22096,22999,32899,14907,5
0,0,0,13764,22053,23022,32899,14907,5
0,0,0,13749,22053,22999,32899,14937,5
0,0,0,13735,22053,22999,32899,14967,5
0,0,0,13749,22075,23022,32932,14967,5
0,0,0,13693,22096,23022,32899,14967,5
0,0,0,13650,22096,23044,32899,14997,5
0,0,0,13650,22140,22932,32866,15028,5
0,0,0,13622,22140,22955,32899,15150,5
0,0,0,13594,22096,22977,32932,15165,5
0,0,0,13735,22053,22977,32932,15119,5
0,0,0,15319,22075,22977,32932,15028,5
0,0,0,17547,22053,23067,32966,14861,5
0,0,0,18057,22096,23022,32932,14786,5
0,0,0,18200,22205,23044,32832,14786,5
0,0,0,19080,22183,23112,32966,14771,5
0,0,0,19650,22248,23112,32899,14786,5
0,0,0,20315,22313,23180,32832,14756,5
0,0,0,20636,22335,23203,32899,14726,5
0,0,0,21291,22401,23203,32832,14771,5
0,0,0,22010,22488,23248,32832,14756,5
0,0,0,22183,22510,23339,32899,14666,5
0,0,0,22270,22488,23316,32832,14666,5
0,0,0,22932,22576,23294,32832,14621,5
0,0,0,23431,22621,23294,32899,14607,5
0,0,0,24223,22687,23294,32932,14547,5
0,0,0,25093,22643,23316,32966,14562,5
0,0,0,25742,22665,23339,33033,14607,5
0,0,0,25793,22665,23431,33033,14607,5
0,0,0,25490,22665,23339,33033,14607,5
0,0,0,25216,22665,23339,33033,14651,5
0,0,0,24654,22532,23294,33033,14562,5
0,0,0,23707,22423,23225,33269,14726,5
0,0,0,22955,22226,23203,33371,14861,5
0,0,0,21903,22096,23248,33371,15089,5
0,0,0,20981,22053,23090,33236,15211,5
0,0,0,20555,21967,23362,33168,15273,5
0,0,0,19766,21903,23294,33168,15381,5
0,0,0,19005,21882,23294,33067,15412,5
0,0,0,18344,21882,23294,32999,15397,5
0,0,0,17845,21882,23203,33033,15181,5
0,0,0,16748,21796,23203,33033,15058,5
0,0,0,15996,21818,23225,33134,15013,5
0,0,0,15490,21818,23180,33168,14997,5
0,0,0,15150,21882,23203,33168,14997,5
0,0,0,14997,22010,22887,33168,14801,5
0,0,0,14982,22010,22910,33168,14681,5
0,0,0,15227,21924,23203,33303,14636,5
0,0,0,15475,22010,22843,33303,14503,5
0,0,0,15490,21967,23203,33371,14488,5
0,0,0,15710,22010,22932,33508,14473,5
0,0,0,15837,22053,23022,33852,14488,5
0,0,0,15868,22140,23090,34060,14399,5
0,0,0,15900,22140,23067,34271,14224,5
0,0,0,15916,22226,23203,34165,13978,5
0,0,0,16060,22226,23225,33887,13764,5
0,0,0,16060,22183,23203,33714,13636,5
0,0,0,15980,22161,23203,33714,13566,5
0,0,0,15916,22183,23203,33611,13566,5
0,0,0,16028,22096,23248,33645,13454,5
0,0,0,16060,22075,23225,33474,13412,5
0,0,0,15964,22053,23225,33474,13384,5
0,0,0,15980,22053,23225,33439,13398,5
0,0,0,15980,22096,23225,33405,13315,5
0,0,0,15932,22053,23225,33337,13287,5
0,0,0,15900,22010,23248,33371,13287,5
0,0,0,15884,22075,23157,33371,13357,5
0,0,0,15884,22032,23112,33236,13792,5
0,0,0,15852,22010,23090,33303,13906,5
0,0,0,15852,21903,23225,33236,13935,5
0,0,0,15900,21967,23225,33202,13863,5
0,0,0,15837,21924,23271,33168,13906,5
0,0,0,15837,21882,23271,33269,13964,5
0,0,0,15710,21903,23225,33168,13821,5
0,0,0,15710,21924,23294,33168,13892,5
0,0,0,15741,21882,23248,33202,13906,5
0,0,0,15058,21924,23294,33236,13863,5
0,0,0,15553,21882,23248,33303,13863,5
0,0,0,14547,21924,23248,33303,13906,5
0,0,0,14311,21882,23248,33371,13892,5
0,0,0,14268,21882,23203,33371,13921,5
0,0,0,13849,21946,23225,33337,13921,5
0,0,0,12851,22010,22977,33371,13978,5
0,0,0,11855,22010,22977,33337,13992,5
0,0,0,12073,22010,22977,33371,13921,5
0,0,0,12112,22010,22955,33371,13935,5
0,0,0,12009,22053,23022,33474,13964,5
0,0,0,12163,22183,23044,33576,14108,5
0,0,0,12215,22226,23112,33542,14253,5
0,0,0,12477,22270,23112,33576,14429,5
0,0,0,13081,22401,23135,33508,14444,5
0,0,0,13749,22488,23112,33439,14518,5
0,0,0,13863,22576,23135,33474,14636,5
0,0,0,13580,22599,23067,33371,14636,5
0,0,0,13177,22665,23112,33303,14726,5
0,0,0,12530,22843,23044,33067,14786,5
0,0,0,12424,22820,23022,33033,14816,5
0,0,0,12267,22798,23044,32999,14846,5
0,0,0,12112,22843,23022,32932,14846,5
0,0,0,11919,22820,23022,32899,14891,5
0,0,0,11855,22798,23022,32633,15043,5
0,0,0,11804,22754,22977,32799,15058,5
0,0,0,11830,22665,22932,32765,15104,5
0,0,0,11817,22576,22955,32765,15397,5
0,0,0,11804,22532,22887,32799,15443,5
0,0,0,11804,22488,22932,32832,15475,5
0,0,0,11830,22444,22932,32765,15443,5
0,0,0,11754,22444,22932,32765,15428,5
0,0,0,11754,22488,22977,32699,15412,5
0,0,0,11754,22444,22887,32765,15553,5
0,0,0,11716,22444,22887,32765,15694,5
0,0,0,11703,22444,22932,32699,15647,5
0,0,0,11703,22444,22887,32765,15678,5
0,0,0,11665,22444,22865,32666,15694,5
0,0,0,11653,22401,22887,32765,15741,5
0,0,0,11665,22401,22865,32666,15789,5
0,0,0,11628,22357,22887,32799,15773,5
0,0,0,11528,22335,22887,32666,15741,5
0,0,0,11478,22292,22865,32699,15710,5
0,0,0,11453,22248,22865,32699,15726,5
0,0,0,11416,22226,22932,32799,15773,5
0,0,0,11416,22226,22932,32765,15741,5
0,0,0,11403,22096,22910,32699,15789,5
0,0,0,11366,22096,22865,32699,15773,5
0,0,0,11317,22010,22887,32732,15773,5
0,0,0,11304,22010,22843,32699,15773,5
0,0,0,11255,22010,22887,32765,15773,5
0,0,0,11255,21924,23112,32666,15710,5
0,0,0,11206,21882,23112,32633,15805,5
0,0,0,11590,21818,23112,32765,15837,5
0,0,0,13371,21946,23044,32765,15868,5
0,0,0,14021,22075,22865,32765,15980,5
0,0,0,14079,22140,22887,32832,16109,5
0,0,0,13978,22140,22887,32966,16206,5
0,0,0,13764,22140,22932,32932,16303,5
0,0,0,13566,22140,22843,32932,16434,5
0,0,0,13510,22183,22843,32899,16499,5
0,0,0,13510,22140,22910,32966,16565,5
0,0,0,13398,22140,22843,32932,16615,5
0,0,0,13343,22140,22887,32899,16615,5
0,0,0,13371,22075,22887,32899,16648,5
0,0,0,13301,22096,22887,32932,17050,5
0,0,0,13205,22075,22843,32899,17050,5
0,0,0,13232,22075,22843,32899,16882,5
0,0,0,13177,22053,22843,32899,16715,5
0,0,0,13122,22053,22843,32832,16715,5
0,0,0,13191,22010,22843,32899,16648,5
0,0,0,13136,22010,22843,32866,16681,5
0,0,0,13027,22010,22843,32832,16648,5
0,0,0,11603,21924,23044,32899,16715,5
0,0,0,11206,21860,23112,32765,16715,5
0,0,0,11341,21775,23112,32732,16681,5
0,0,0,11528,21754,23157,32899,16532,5
0,0,0,11728,21754,23157,32932,16483,5
0,0,0,11678,21796,23180,32899,16352,5
0,0,0,11553,21775,23203,32899,16238,5
0,0,0,11528,21711,23203,32799,16222,5
0,0,0,11515,21669,23180,32899,16303,5
0,0,0,11465,21669,23203,32866,16254,5
0,0,0,11503,21627,23180,32899,16222,5
0,0,0,11403,21584,23135,32899,16238,5
0,0,0,11403,21584,23135,32866,16287,5
0,0,0,11391,21563,23157,32866,16287,5
0,0,0,11379,21584,23135,32932,16222,5
0,0,0,11478,21584,23135,32932,16222,5
0,0,0,11628,21627,23135,32899,16173,5
0,0,0,11653,21627,23180,32932,16028,5
0,0,0,11603,21627,23203,32932,15964,5
0,0,0,11653,21584,23157,33100,16012,5
0,0,0,11653,21563,23112,32966,16044,5
0,0,0,11653,21542,23112,32966,15996,5
0,0,0,11628,21479,23112,33033,15980,5
0,0,0,11653,21479,23112,32966,15964,5
0,0,0,11678,21500,23135,32966,15932,5
0,0,0,11703,21479,23112,32899,15948,5
0,0,0,11716,21458,23157,32999,15916,5
0,0,0,11830,21458,23112,32932,15900,5
0,0,0,11804,21542,23112,32899,15868,5
0,0,0,11804,21416,23112,33033,15900,5
0,0,0,11855,21542,23067,32966,15852,5
0,0,0,11804,21500,23112,33033,15710,5
0,0,0,11804,21500,23112,33033,15366,5
0,0,0,11792,21500,23157,33168,14982,5
0,0,0,11830,21584,23112,33033,14846,5
0,0,0,11830,21584,23112,33033,14786,5
0,0,0,11830,21479,23135,33033,14846,5
0,0,0,11817,21458,23112,33033,14831,5
0,0,0,11804,21458,23157,33033,14846,5
0,0,0,11804,21542,23112,32966,14846,5
0,0,0,11817,21458,23112,32966,14907,5
0,0,0,11804,21479,23090,32932,14907,5
0,0,0,11842,21458,23112,32966,14937,5
0,0,0,11881,21479,23135,32932,14907,5
0,0,0,11868,21500,23112,32932,14907,5
0,0,0,11906,21458,23112,33067,14907,5
0,0,0,11970,21458,23112,32999,14907,5
0,0,0,12021,21500,23044,32899,14891,5
0,0,0,12009,21563,23112,32932,14907,5
0,0,0,12009,21500,23112,32932,14907,5
0,0,0,12060,21542,23090,32932,14937,5
0,0,0,12060,21542,23044,32899,14937,5
0,0,0,12112,21563,23112,32899,14907,5
0,0,0,12189,21584,23112,32899,14922,5
0,0,0,12189,21542,23112,32932,14876,5
0,0,0,12215,21542,23067,32866,14922,5
0,0,0,12267,21542,23044,32866,14876,5
0,0,0,12293,21542,23112,32932,14907,5
0,0,0,12280,21542,23044,32832,14922,5
0,0,0,12267,21542,23044,32832,14922,5
0,0,0,12267,21542,23067,32899,14952,5
0,0,0,12267,21479,23044,32832,14967,5
0,0,0,12215,21542,23067,32899,14967,5
0,0,0,12163,21500,23044,32866,14967,5
0,0,0,12163,21500,23067,32832,14967,5
0,0,0,12163,21458,23067,32832,14967,5
0,0,0,12163,21479,23067,32832,14982,5
0,0,0,12163,21479,23090,32832,14967,5
0,0,0,12176,21479,23067,32832,14967,5
0,0,0,12267,21563,23112,32899,14907,5
0,0,0,12346,21542,23112,32932,14846,5
0,0,0,12372,21563,23112,32832,14831,5
0,0,0,12411,21627,23112,32966,14786,5
0,0,0,12490,21584,23112,32966,14846,5
0,0,0,12583,21627,23112,32999,14786,5
0,0,0,12716,21669,23157,33033,14786,5
0,0,0,12810,21669,23135,32966,14846,5
0,0,0,12959,21690,23157,32966,14846,5
0,0,0,13054,21711,23157,32932,14846,5
0,0,0,13054,21711,23157,32899,14876,5
0,0,0,13040,21711,23157,32866,14922,5
0,0,0,13027,21669,23157,32899,14907,5
0,0,0,12972,21648,23180,32832,14922,5
0,0,0,12959,21627,23067,32899,14967,5
0,0,0,12905,21627,23112,32832,14967,5
0,0,0,12905,21584,23090,32765,14967,5
0,0,0,12878,21627,23112,32832,14982,5
0,0,0,12851,21627,23044,32765,14937,5
0,0,0,12864,21648,23112,32765,14967,5
0,0,0,12851,21648,23067,32699,14982,5
0,0,0,12810,21648,23044,32699,14982,5
0,0,0,12824,21627,23044,32699,14982,5
0,0,0,12797,21648,23090,32699,14967,5
0,0,0,12797,21648,22999,32633,14982,5
0,0,0,12797,21627,23044,32666,15028,5
0,0,0,12743,21584,23044,32633,14982,5
0,0,0,12730,21584,23022,32666,14982,5
0,0,0,12690,21542,23022,32633,15058,5
0,0,0,12610,21584,23022,32633,15058,5
0,0,0,12610,21542,23022,32633,15058,5
0,0,0,12596,21542,22955,32566,15058,5
0,0,0,12530,21500,22955,32699,15227,5
0,0,0,12451,21521,22999,32633,15459,5
0,0,0,12306,21479,22977,32633,15521,5
0,0,0,12086,21500,22932,32633,15647,5
0,0,0,11919,21542,22977,32566,15868,5
0,0,0,11830,21479,22932,32533,15916,5
0,0,0,11716,21395,22955,32566,15996,5
0,0,0,11653,21500,22887,32533,16028,5
0,0,0,11553,21416,22932,32500,16093,5
0,0,0,11754,21458,22910,32533,16157,5
0,0,0,11678,21458,22932,32533,16206,5
0,0,0,11653,21395,22887,32467,16238,5
0,0,0,11578,21479,22843,32402,16287,5
0,0,0,11528,21375,22887,32435,16319,5
0,0,0,11528,21375,22887,32500,16287,5
0,0,0,11453,21395,22887,32369,16319,5
0,0,0,11465,21333,22887,32500,16385,5
0,0,0,11528,21375,22843,32500,16401,5
0,0,0,11855,21375,22843,32402,16385,5
0,0,0,12137,21312,22865,32435,16287,5
0,0,0,12241,21312,22843,32369,16222,5
0,0,0,12372,21375,22843,32435,16238,5
0,0,0,12398,21416,22843,32369,16222,5
0,0,0,12504,21395,22887,32500,16141,5
0,0,0,12636,21375,22887,32500,16060,5
0,0,0,12743,21437,22865,32500,16044,5
0,0,0,12851,21375,22887,32566,16012,5
0,0,0,13122,21458,22932,32566,15980,5
0,0,0,13301,21500,22932,32566,15789,5
0,0,0,13412,21584,22932,32666,15258,5
0,0,0,13482,21627,22955,32732,14997,5
0,0,0,13735,21669,23044,32799,14997,5
0,0,0,13849,21669,23044,32899,15119,5
0,0,0,14036,21627,23044,32966,15089,5
0,0,0,14297,21733,23044,32899,15058,5
0,0,0,14518,21711,23090,33033,14997,5
0,0,0,14726,21818,23157,33168,14952,5
0,0,0,14937,21924,23248,33236,14861,5
0,0,0,15074,21967,23203,33168,14846,5
0,0,0,15119,21967,23157,33168,14846,5
0,0,0,15028,21924,23203,33236,14846,5
0,0,0,14937,21924,23203,33236,14861,5
0,0,0,14876,21818,23112,33100,14876,5
0,0,0,14801,21711,23112,33100,14907,5
0,0,0,14726,21711,23022,33100,14876,5
0,0,0,14666,21711,23044,32899,14907,5
0,0,0,14577,21648,22999,32832,14967,5
0,0,0,14532,21669,22999,32799,14982,5
0,0,0,14488,21627,22977,32899,14967,5
0,0,0,14488,21669,22999,32765,14967,5
0,0,0,14429,21648,22955,32799,14937,5
0,0,0,14414,21669,22977,32765,14997,5
0,0,0,14370,21627,22977,32765,14967,5
0,0,0,14326,21627,22932,32732,14967,5
0,0,0,14326,21584,22977,32699,14922,5
0,0,0,14282,21563,22932,32633,14967,5
0,0,0,14282,21627,22887,32666,14982,5
0,0,0,14268,21542,22955,32633,14967,5
0,0,0,14253,21542,22887,32699,14967,5
0,0,0,14195,21542,22887,32633,14967,5
0,0,0,14166,21542,22887,32699,14997,5
0,0,0,14166,21521,22887,32666,14997,5
0,0,0,14166,21500,22865,32599,14967,5
0,0,0,14108,21563,22865,32666,14982,5
0,0,0,14122,21542,22887,32599,15013,5
0,0,0,14093,21500,22887,32699,14997,5
0,0,0,14050,21584,22887,32599,14997,5
0,0,0,14064,21521,22843,32599,15028,5
0,0,0,14050,21500,22843,32566,15028,5
0,0,0,14079,21563,22798,32566,15013,5
0,0,0,14036,21479,22887,32633,15043,5
0,0,0,14021,21479,22776,32500,15043,5
0,0,0,14036,21521,22843,32633,14997,5
0,0,0,14021,21479,22887,32599,14997,5
0,0,0,14021,21521,22843,32566,14997,5
0,0,0,14021,21500,22843,32599,15028,5
0,0,0,13992,21563,22843,32533,15028,5
0,0,0,13978,21542,22865,32599,15028,5
0,0,0,14021,21521,22843,32500,15028,5
0,0,0,13978,21521,22843,32633,15058,5
0,0,0,14007,21500,22843,32500,15028,5
0,0,0,14108,21479,22843,32566,15058,5
0,0,0,14224,21563,22843,32533,15013,5
0,0,0,14137,21500,22843,32566,15028,5
0,0,0,14050,21584,22843,32500,14997,5
0,0,0,13964,21542,22820,32500,15043,5
0,0,0,13792,21542,22843,32500,14997,5
0,0,0,13849,21542,22798,32500,15028,5
0,0,0,13778,21479,22843,32500,15089,5
0,0,0,13749,21542,22843,32435,15089,5
0,0,0,13679,21584,22843,32402,15058,5
0,0,0,13792,21521,22798,32402,15089,5
0,0,0,13821,21542,22798,32435,15028,5
0,0,0,13764,21479,22776,32402,15058,5
0,0,0,13749,21500,22843,32435,15028,5
0,0,0,13749,21542,22798,32435,15043,5
0,0,0,13707,21542,22843,32402,15043,5
0,0,0,13693,21479,22843,32402,15028,5
0,0,0,13679,21500,22798,32369,15028,5
0,0,0,13650,21500,22754,32369,14997,5
0,0,0,13622,21458,22798,32369,15058,5
0,0,0,13468,21458,22754,32402,15043,5
0,0,0,13412,21458,22798,32369,15013,5
0,0,0,13287,21375,22754,32369,15089,5
0,0,0,13205,21458,22754,32369,15028,5
0,0,0,12918,21437,22776,32402,15028,5
0,0,0,13150,21458,22843,32402,15089,5
0,0,0,13510,21542,22798,32402,15058,5
0,0,0,13806,21627,22776,32369,15043,5
0,0,0,13935,21563,22798,32369,15028,5
0,0,0,14079,21542,22798,32402,15028,5
0,0,0,13906,21542,22776,32369,15028,5
0,0,0,14007,21584,22776,32369,14997,5
0,0,0,14195,21754,22798,32303,14967,5
0,0,0,14079,22053,22621,32303,14997,5
0,0,0,13863,22096,22621,32303,14997,5
0,0,0,13622,22010,22599,32238,14967,5
0,0,0,13412,21882,22798,32369,14967,5
0,0,0,13343,21669,22798,32369,15058,5
0,0,0,13650,21733,22776,32402,15119,5
0,0,0,14547,21839,22843,32500,15119,5
0,0,0,15663,22226,22576,32402,15150,5
0,0,0,16303,22313,22576,32435,15104,5
0,0,0,16222,22335,22665,32369,15165,5
0,0,0,15789,22226,22599,32303,15211,5
0,0,0,14021,22096,22599,32303,15181,5
0,0,0,12878,21882,22798,32336,15196,5
0,0,0,12583,21754,22798,32303,15119,5
0,0,0,12543,21711,22776,32369,15211,5
0,0,0,12543,21733,22776,32238,15227,5
0,0,0,12743,21796,22798,32238,15211,5
0,0,0,12837,21903,22798,32303,15150,5
0,0,0,13122,22010,22621,32336,15058,5
0,0,0,13315,22183,22665,32238,14982,5
0,0,0,13426,22313,22754,32303,14876,5
0,0,0,13454,22401,22820,32303,14816,5
0,0,0,13440,22401,22798,32271,14846,5
0,0,0,13398,22335,22798,32173,14846,5
0,0,0,13357,22313,22754,32205,14801,5
0,0,0,13357,22248,22709,32238,14846,5
0,0,0,13343,22248,22709,32238,14861,5
0,0,0,13301,22226,22709,32205,14876,5
0,0,0,13301,22205,22731,32173,14876,5
0,0,0,13177,22118,22687,32205,14876,5
0,0,0,13040,22096,22709,32238,14891,5
0,0,0,13040,22140,22665,32173,14937,5
0,0,0,12945,22075,22665,32140,14907,5
0,0,0,12905,22075,22665,32108,14937,5
0,0,0,12797,22010,22665,32238,14952,5
0,0,0,12703,22010,22665,32140,14907,5
0,0,0,12636,22010,22665,32173,14907,5
0,0,0,12517,22053,22665,32173,14937,5
0,0,0,12530,22096,22599,32108,14907,5
0,0,0,12543,22010,22621,32108,14907,5
0,0,0,12451,22010,22665,32108,14876,5
0,0,0,12267,22032,22621,32140,14922,5
0,0,0,12086,22053,22621,32075,14907,5
0,0,0,11881,22010,22599,32140,14907,5
0,0,0,11754,22010,22643,32173,14876,5
0,0,0,11855,22053,22576,32043,14922,5
0,0,0,11932,22075,22621,32205,14922,5
0,0,0,12009,22032,22599,32075,14922,5
0,0,0,12112,22010,22643,32075,14922,5
0,0,0,12267,22010,22665,32075,14952,5
0,0,0,12730,21924,22887,32108,14891,5
0,0,0,12824,22010,22576,32043,14907,5
0,0,0,13068,22010,22621,32043,14907,5
0,0,0,13068,21924,22843,32140,14907,5
0,0,0,13027,22010,22576,32075,14907,5
0,0,0,12743,22010,22576,32108,14907,5
0,0,0,12543,21967,22843,32043,14922,5
0,0,0,12267,21946,22843,32010,14907,5
0,0,0,12189,22010,22576,32108,14982,5
0,0,0,12189,21924,22843,32075,14982,5
0,0,0,12228,22010,22576,32108,14967,5
0,0,0,12372,21924,22910,32108,14907,5
0,0,0,12060,22010,22576,32108,14907,5
0,0,0,12451,21946,22798,32043,14907,5
0,0,0,12851,22010,22576,32010,14922,5
0,0,0,12824,22010,22621,32075,14952,5
0,0,0,12810,21967,22843,32010,14967,5
0,0,0,12797,21924,22865,32108,14967,5
0,0,0,12797,22010,22576,31978,14937,5
0,0,0,12959,21924,22843,32108,14967,5
0,0,0,12959,21924,22865,32108,14967,5
0,0,0,13622,21924,22820,32075,14952,5
0,0,0,14756,21903,22843,32075,14922,5
0,0,0,14050,21903,22843,32108,14967,5
0,0,0,13792,21924,22798,32043,14967,5
0,0,0,14726,21882,22843,32108,14967,5
0,0,0,14137,21903,22798,32010,14922,5
0,0,0,13566,21882,22798,32075,14967,5
0,0,0,14282,21967,22820,32140,14967,5
0,0,0,14786,21860,22798,32173,14967,5
0,0,0,13650,21882,22754,32108,14982,5
0,0,0,13412,21860,22798,32043,14967,5
0,0,0,13735,21882,22754,32108,15028,5
0,0,0,13566,21924,22776,32108,14967,5
0,0,0,13538,21796,22776,32108,15013,5
0,0,0,13412,21882,22776,32043,15028,5
0,0,0,13191,21882,22754,32108,14982,5
0,0,0,13287,21882,22776,32043,15028,5
0,0,0,13343,21818,22754,32108,15043,5
0,0,0,13398,21839,22754,32108,15028,5
0,0,0,13524,21882,22754,32108,14982,5
0,0,0,13608,21796,22754,32173,15058,5
0,0,0,13650,21796,22754,32108,15043,5
0,0,0,13468,21796,22754,32108,15074,5
0,0,0,13260,21796,22731,32075,15043,5
0,0,0,13177,21775,22709,32108,15089,5
0,0,0,13109,21818,22731,32140,15058,5
0,0,0,13040,21818,22754,32108,15028,5
0,0,0,13040,21796,22731,32043,15043,5
0,0,0,13136,21733,22709,32010,15058,5
0,0,0,12851,21775,22709,32108,15058,5
0,0,0,13081,21796,22776,32108,15028,5
0,0,0,13260,21796,22754,32108,15058,5
0,0,0,13426,21796,22687,32108,15119,5
0,0,0,13821,21711,22687,32010,15150,5
0,0,0,13622,21754,22709,31946,15150,5
0,0,0,13454,21754,22754,32010,15104,5
0,0,0,13040,21711,22754,31978,15150,5
0,0,0,13013,21648,22731,31978,15242,5
0,0,0,12959,21648,22709,32010,15211,5
0,0,0,12864,21648,22665,31978,15150,5
0,0,0,12851,21627,22709,31946,15104,5
0,0,0,12490,21584,22731,31978,15211,5
0,0,0,13081,21584,22687,31913,15273,5
0,0,0,13068,21669,22709,31881,15335,5
0,0,0,12770,21627,22754,31817,15350,5
0,0,0,12649,21584,22709,31849,15381,5
0,0,0,12610,21479,22754,31849,15789,5
0,0,0,12596,21542,22754,31913,15805,5
0,0,0,12583,21563,22709,31817,15837,5
0,0,0,12517,21542,22754,31849,15821,5
0,0,0,12504,21521,22709,31881,15837,5
0,0,0,12477,21542,22754,31881,15964,5
0,0,0,12438,21479,22709,31913,15980,5
0,0,0,12398,21500,22709,31913,15996,5
0,0,0,12424,21521,22709,31849,16125,5
0,0,0,12398,21479,22687,31913,16093,5
0,0,0,12398,21479,22709,31946,16157,5
0,0,0,12424,21563,22709,31913,16060,5
0,0,0,12424,21563,22754,31881,16093,5
0,0,0,12398,21500,22754,31881,16125,5
0,0,0,12438,21563,22709,31978,16093,5
0,0,0,12424,21584,22709,31946,15964,5
0,0,0,12477,21627,22709,32043,15647,5
0,0,0,12424,21733,22820,32173,14922,5
0,0,0,12424,21818,22865,32173,14636,5
0,0,0,12398,21924,22865,32238,14547,5
0,0,0,12385,22010,22709,32271,14607,5
0,0,0,12385,22053,22798,32566,14726,5
0,0,0,12451,22075,22798,32666,14607,5
0,0,0,12583,22140,22776,32699,14607,5
0,0,0,12756,22053,22843,32765,14547,5
0,0,0,12972,22096,22798,32765,14547,5
0,0,0,13301,22140,22843,32633,14518,5
0,0,0,13650,22226,22887,32633,14458,5
0,0,0,13863,22270,22865,32633,14458,5
0,0,0,13964,22313,22932,32732,14458,5
0,0,0,14282,22401,22955,32699,14577,5
0,0,0,14429,22357,22932,32765,14607,5
0,0,0,14982,22401,22910,32765,14666,5
0,0,0,15584,22510,22932,32832,14711,5
0,0,0,16352,22709,23067,32899,14786,5
0,0,0,17306,23090,23225,32832,14861,5
0,0,0,17582,23271,23477,32832,14861,5
0,0,0,18200,23248,23569,32832,14861,5
0,0,0,18508,23248,23522,32732,14786,5
0,0,0,18635,23112,23499,32633,14786,5
0,0,0,18508,23067,23431,32500,14726,5
0,0,0,18489,22955,23385,32369,14741,5
0,0,0,18362,22843,23339,32402,14771,5
0,0,0,18344,22798,23248,32303,14786,5
0,0,0,18290,22798,23294,32369,14861,5
0,0,0,18362,22754,23294,32402,14967,5
0,0,0,18272,22776,23225,32336,15028,5
0,0,0,18200,22709,23203,32271,15089,5
0,0,0,18200,22754,23203,32271,15089,5
0,0,0,18147,22709,23203,32271,15089,5
0,0,0,18200,22709,23225,32303,15058,5
0,0,0,18236,22754,23203,32271,15028,5
0,0,0,18272,22709,23203,32238,14967,5
0,0,0,18236,22665,23225,32271,14907,5
0,0,0,18236,22665,23203,32173,14876,5
0,0,0,18200,22665,23180,32173,14876,5
0,0,0,18164,22576,23112,32173,14937,5
0,0,0,18164,22576,23112,32108,14876,5
0,0,0,18164,22510,23067,32238,14922,5
0,0,0,18164,22532,23112,32173,14967,5
0,0,0,18093,22510,23044,32043,15028,5
0,0,0,18022,22488,23044,32108,15089,5
0,0,0,17933,22488,23044,32043,15397,5
0,0,0,17915,22466,23067,32108,15428,5
0,0,0,17862,22488,23044,31978,15428,5
0,0,0,17845,22444,23022,31978,15459,5
0,0,0,17792,22444,23022,32075,15475,5
0,0,0,17792,22401,23022,32043,15459,5
0,0,0,17774,22466,23022,32043,15428,5
0,0,0,17774,22401,22977,32010,15584,5
0,0,0,17845,22423,23022,31978,15663,5
0,0,0,17774,22357,23022,32108,15553,5
0,0,0,17704,22313,23022,32075,15475,5
0,0,0,17687,22357,22977,32010,15553,5
0,0,0,17669,22313,23022,31913,15553,5
0,0,0,17600,22270,22977,31978,15521,5
0,0,0,17617,22313,22932,31946,15647,5
0,0,0,17565,22357,22932,31913,15647,5
0,0,0,17565,22270,22977,31978,15710,5
0,0,0,17565,22313,22955,31913,15710,5
0,0,0,17495,22270,22955,31978,15852,5
0,0,0,17426,22313,22955,31849,15900,5
0,0,0,17289,22270,22955,31978,15916,5
0,0,0,17203,22313,22910,31978,16125,5
0,0,0,17152,22270,22932,31913,16417,5
0,0,0,17169,22270,22955,31881,16417,5
0,0,0,17084,22248,22932,31913,16352,5
0,0,0,17050,22313,22887,31881,16385,5
0,0,0,17050,22226,22932,31881,16336,5
0,0,0,17016,22270,22977,31913,16238,5
0,0,0,17016,22226,22932,31913,16319,5
0,0,0,16966,22226,22932,31881,16319,5
0,0,0,16915,22292,22865,31913,16385,5
0,0,0,16815,22270,22932,31881,16352,5
