GyroX,GyroY,GyroZ,Thumb,Index,Middle,Ring,Pinky,Gesture
0,0,0,16915,10700,10026,11268,26099,4
0,0,0,16882,10688,10060,11255,25996,4
0,0,0,16882,10676,10037,11255,25920,4
0,0,0,16831,10688,10037,11255,25996,4
0,0,0,16831,10724,10049,11280,26022,4
0,0,0,16983,10771,9958,11304,26022,4
0,0,0,17084,10748,9924,11354,26124,4
0,0,0,17016,10688,9890,11304,26099,4
0,0,0,16949,10676,9901,11317,26022,4
0,0,0,16915,10653,9890,11317,26099,4
0,0,0,16949,10641,9890,11317,25996,4
0,0,0,16966,10641,9890,11304,26022,4
0,0,0,16966,10641,9890,11304,25945,4
0,0,0,16882,10629,9890,11280,25920,4
0,0,0,16748,10582,9867,11268,25894,4
0,0,0,16915,10582,9867,11280,25793,4
0,0,0,16966,10558,9856,11268,25818,4
0,0,0,16848,10582,9845,11255,25742,4
0,0,0,16681,10582,9845,11255,25793,4
0,0,0,16681,10558,9856,11255,25843,4
0,0,0,16748,10582,9890,11219,25793,4
0,0,0,16949,10582,9845,11206,25793,4
0,0,0,16831,10605,9890,11219,25742,4
0,0,0,16681,10724,9935,11231,25717,4
0,0,0,16632,10867,10049,11219,25691,4
0,0,0,16632,10879,10094,11219,25742,4
0,0,0,16681,11024,10278,11255,25641,4
0,0,0,16798,11665,10629,11280,25691,4
0,0,0,16715,12398,11109,11354,25742,4
0,0,0,16632,12756,11403,11453,25691,4
0,0,0,16681,12932,11478,11503,25691,4
0,0,0,16681,12918,11490,11528,25691,4
0,0,0,16698,12878,11403,11515,25641,4
0,0,0,16681,12864,11379,11553,25666,4
0,0,0,16648,12743,11354,11553,25591,4
0,0,0,16615,12663,11366,11565,25591,4
0,0,0,16615,12610,11354,11565,25515,4
0,0,0,16681,12490,11304,11515,25490,4
0,0,0,16731,12189,11194,11528,25390,4
0,0,0,16648,12215,11036,11503,25316,4
0,0,0,16499,12215,10987,11515,25540,4
0,0,0,16467,12228,10975,11515,25415,4
0,0,0,16532,12163,10975,11503,25241,4
0,0,0,16532,12073,10963,11478,25044,4
0,0,0,16549,11932,10915,11465,25019,4
0,0,0,16450,11932,10891,11478,24995,4
0,0,0,16434,11957,10819,11478,24946,4
0,0,0,16417,11919,10819,11465,24946,4
0,0,0,16450,11957,10748,11453,24873,4
0,0,0,16516,12009,10748,11478,24775,4
0,0,0,16450,11983,10748,11503,24775,4
0,0,0,16385,12060,10688,11503,24702,4
0,0,0,16368,12112,10700,11503,24678,4
0,0,0,16401,12176,10724,11503,24654,4
0,0,0,16417,12189,10759,11503,24654,4
0,0,0,16417,12398,10771,11528,24702,4
0,0,0,16303,12690,10771,11528,24799,4
0,0,0,16287,12636,10771,11553,24946,4
0,0,0,16368,12663,10771,11553,24702,4
0,0,0,16417,12636,10771,11528,24606,4
0,0,0,16385,12570,10748,11528,24558,4
0,0,0,16352,12610,10748,11553,24558,4
0,0,0,16303,12636,10748,11553,24510,4
0,0,0,16303,12583,10748,11553,24606,4
0,0,0,16336,12716,10748,11553,24510,4
0,0,0,16352,12690,10748,11553,24534,4
0,0,0,16303,12649,10724,11578,24510,4
0,0,0,16336,12583,10712,11603,24510,4
0,0,0,16336,12583,10688,11603,24558,4
0,0,0,16352,12583,10641,11590,24510,4
0,0,0,16352,12610,10641,11603,24414,4
0,0,0,16352,12610,10641,11590,24462,4
0,0,0,16352,12636,10676,11603,24462,4
0,0,0,16352,12690,10676,11603,24414,4
0,0,0,16385,12663,10653,11603,24414,4
0,0,0,16434,12583,10629,11603,24510,4
0,0,0,16483,12530,10582,11615,24606,4
0,0,0,16450,12636,10594,11628,24534,4
0,0,0,16483,12623,10582,11603,24414,4
0,0,0,16467,12649,10570,11603,24414,4
0,0,0,16483,12676,10594,11628,24462,4
0,0,0,16434,12636,10570,11628,24534,4
0,0,0,16499,12636,10582,11653,24606,4
0,0,0,16483,12663,10558,11653,24654,4
0,0,0,16499,12636,10546,11653,24606,4
0,0,0,16499,12610,10535,11640,24630,4
0,0,0,16483,12636,10535,11653,24630,4
0,0,0,16450,12636,10535,11653,24534,4
0,0,0,16434,12610,10535,11665,24606,4
0,0,0,16417,12636,10511,11653,24606,4
0,0,0,16450,12623,10535,11653,24654,4
0,0,0,16467,12636,10511,11653,24534,4
0,0,0,16417,12596,10511,11628,24486,4
0,0,0,16385,12543,10511,11640,24510,4
0,0,0,16385,12477,10499,11628,24486,4
0,0,0,16385,12504,10499,11615,24438,4
0,0,0,16385,12530,10488,11603,24462,4
0,0,0,16352,12556,10499,11603,24438,4
0,0,0,16417,12556,10488,11603,24462,4
0,0,0,16368,12556,10499,11603,24462,4
0,0,0,16385,12583,10499,11590,24414,4
0,0,0,16385,12543,10488,11603,24438,4
0,0,0,16336,12530,10488,11603,24510,4
0,0,0,16352,12530,10488,11578,24558,4
0,0,0,16336,12530,10488,11603,24510,4
0,0,0,16368,12504,10499,11578,24486,4
0,0,0,16385,12504,10488,11603,24438,4
0,0,0,16352,12504,10488,11578,24606,4
0,0,0,16401,12530,10499,11578,24510,4
0,0,0,16385,12583,10499,11578,24558,4
0,0,0,16368,12583,10511,11565,24558,4
0,0,0,16385,12636,10488,11578,24606,4
0,0,0,16434,12583,10464,11565,24558,4
0,0,0,16417,12556,10488,11553,24510,4
0,0,0,16385,12583,10488,11603,24582,4
0,0,0,16368,12543,10488,11603,24751,4
0,0,0,16385,12570,10488,11615,24799,4
0,0,0,16417,12543,10488,11603,24824,4
0,0,0,16417,12556,10464,11603,24775,4
0,0,0,16417,12596,10464,11603,24654,4
0,0,0,16401,12596,10453,11603,24582,4
0,0,0,16385,12636,10453,11603,24558,4
0,0,0,16352,12636,10441,11578,24558,4
0,0,0,16352,12636,10464,11553,24630,4
0,0,0,16368,12636,10441,11553,24654,4
0,0,0,16336,12583,10453,11553,24534,4
0,0,0,16385,12556,10441,11578,24462,4
0,0,0,16352,12556,10453,11553,24534,4
0,0,0,16336,12583,10441,11553,24534,4
0,0,0,16336,12610,10441,11553,24558,4
0,0,0,16303,12636,10441,11553,24630,4
0,0,0,16352,12623,10441,11578,24606,4
0,0,0,16303,12636,10441,11553,24510,4
0,0,0,16352,12663,10453,11578,24486,4
0,0,0,16303,12690,10441,11578,24366,4
0,0,0,16287,12649,10441,11565,24462,4
0,0,0,16287,12649,10441,11578,24414,4
0,0,0,16287,12649,10441,11590,24414,4
0,0,0,16287,12663,10441,11603,24438,4
0,0,0,16287,12649,10429,11553,24414,4
0,0,0,16287,12649,10441,11553,24366,4
0,0,0,16385,12649,10441,11565,24438,4
0,0,0,16368,12690,10453,11565,24510,4
0,0,0,16352,12690,10441,11565,24414,4
0,0,0,16319,12690,10464,11553,24510,4
0,0,0,16417,12636,10488,11553,24366,4
0,0,0,16385,12636,10488,11553,24318,4
0,0,0,16385,12636,10488,11553,24318,4
0,0,0,16352,12636,10464,11553,24271,4
0,0,0,16303,12610,10464,11553,24176,4
0,0,0,16287,12583,10464,11565,24223,4
0,0,0,16368,12596,10441,11553,24176,4
0,0,0,16319,12610,10441,11578,24318,4
0,0,0,16303,12623,10453,11565,24223,4
0,0,0,16303,12636,10464,11578,24105,4
0,0,0,16287,12636,10476,11578,24152,4
0,0,0,16368,12636,10453,11565,24129,4
0,0,0,16352,12583,10453,11553,24129,4
0,0,0,16368,12610,10453,11565,24223,4
0,0,0,16352,12583,10441,11578,24223,4
0,0,0,16287,12530,10464,11565,24152,4
0,0,0,16319,12530,10488,11578,24034,4
0,0,0,16352,12570,10441,11578,23940,4
0,0,0,16303,12649,10464,11578,24034,4
0,0,0,16303,12636,10464,11578,24081,4
0,0,0,16303,12636,10476,11578,24034,4
0,0,0,16287,12636,10488,11578,23964,4
0,0,0,16303,12636,10476,11553,23940,4
0,0,0,16287,12649,10464,11578,23940,4
0,0,0,16352,12636,10441,11578,23964,4
0,0,0,16352,12649,10453,11565,23894,4
0,0,0,16352,12649,10464,11590,23940,4
0,0,0,16336,12663,10464,11578,23940,4
0,0,0,16303,12636,10453,11603,23894,4
0,0,0,16303,12703,10464,11578,23847,4
0,0,0,16352,12690,10453,11603,23847,4
0,0,0,16303,12703,10464,11603,23800,4
0,0,0,16287,12703,10464,11640,23940,4
0,0,0,16352,12690,10453,11615,23730,4
0,0,0,16303,12649,10441,11653,23754,4
0,0,0,16434,12610,10441,11653,23730,4
0,0,0,16499,12583,10453,11678,23754,4
0,0,0,16615,12623,10453,11665,23707,4
0,0,0,16549,12663,10441,11665,23707,4
0,0,0,16549,12756,10464,11703,23754,4
0,0,0,16549,12743,10441,11728,23800,4
0,0,0,16549,12783,10453,11728,23707,4
0,0,0,16615,12770,10441,11716,23707,4
0,0,0,16565,12770,10441,11754,23707,4
0,0,0,16582,12770,10441,11779,23754,4
0,0,0,16582,12797,10441,11830,23847,4
0,0,0,16582,12810,10464,11855,23707,4
0,0,0,16632,12824,10464,11830,23661,4
0,0,0,16665,12797,10464,11817,23569,4
0,0,0,16648,12770,10441,11855,23592,4
0,0,0,16615,12810,10441,11855,23615,4
0,0,0,16549,12837,10464,11830,23592,4
0,0,0,16549,12878,10453,11868,23522,4
0,0,0,16549,12851,10441,11855,23522,4
0,0,0,16565,12878,10453,11855,23477,4
0,0,0,16549,12851,10441,11817,23569,4
0,0,0,16582,12851,10453,11766,23499,4
0,0,0,16582,12864,10453,11754,23499,4
0,0,0,16565,12864,10441,11804,23522,4
0,0,0,16516,12851,10453,11804,23522,4
0,0,0,16565,12878,10453,11779,23592,4
0,0,0,16565,12905,10441,11804,23661,4
0,0,0,16549,12959,10441,11779,23707,4
0,0,0,16549,12972,10441,11804,23569,4
0,0,0,16516,12918,10453,11804,23661,4
0,0,0,16499,12905,10441,11804,23754,4
0,0,0,16549,12918,10464,11817,23661,4
0,0,0,16549,12959,10453,11855,23522,4
0,0,0,16549,12945,10441,11855,23615,4
0,0,0,16549,12972,10453,11855,23592,4
0,0,0,16516,12959,10453,11881,23615,4
0,0,0,16549,12959,10464,11957,23615,4
0,0,0,16598,12959,10441,11983,23477,4
0,0,0,16516,12972,10441,12047,23940,4
0,0,0,16499,13013,10453,12009,24199,4
0,0,0,16516,13040,10453,12073,24034,4
0,0,0,16598,13027,10453,12060,23707,4
0,0,0,16532,13013,10441,12060,23870,4
0,0,0,16499,12986,10441,12060,23870,4
0,0,0,16499,13027,10441,12060,23707,4
0,0,0,16499,13054,10441,12086,23847,4
0,0,0,16483,13068,10441,12215,23754,4
0,0,0,16499,13068,10453,12241,23707,4
0,0,0,16516,13068,10441,12202,23777,4
0,0,0,16582,13177,10453,12215,23777,4
0,0,0,16681,13177,10441,12189,23684,4
0,0,0,16615,13232,10453,12189,23661,4
0,0,0,16615,13163,10441,12215,23777,4
0,0,0,16681,13205,10441,12267,23707,4
0,0,0,16615,13232,10441,12267,23684,4
0,0,0,16615,13287,10453,12320,23730,4
0,0,0,16565,13205,10441,12438,23847,4
0,0,0,16615,13232,10441,12451,23917,4
0,0,0,16698,13191,10441,12438,23754,4
0,0,0,16748,13177,10441,12477,23800,4
0,0,0,16665,13205,10441,12504,23707,4
0,0,0,16615,13246,10453,12477,23847,4
0,0,0,16632,13398,10441,12504,23754,4
0,0,0,16598,13371,10441,12636,23661,4
0,0,0,16615,13398,10464,12663,23684,4
0,0,0,16681,13357,10453,12636,23661,4
0,0,0,16632,13301,10441,12610,23661,4
0,0,0,16632,13301,10464,12583,23638,4
0,0,0,16632,13287,10453,12504,23522,4
0,0,0,16615,13177,10441,12490,23569,4
0,0,0,16549,13177,10441,12490,23870,4
0,0,0,16615,13205,10441,12530,23661,4
0,0,0,16615,13205,10453,12543,23615,4
0,0,0,16549,13287,10453,12851,23661,4
0,0,0,16632,13398,10464,12770,23569,4
0,0,0,16632,13343,10464,12636,23522,4
0,0,0,16615,13287,10441,12636,23477,4
0,0,0,16815,13287,10453,12649,23754,4
0,0,0,16898,13301,10453,12783,23431,4
0,0,0,16915,13329,10453,12878,23385,4
0,0,0,16882,13343,10488,13218,23294,4
0,0,0,16915,13398,10488,13964,23271,4
0,0,0,16898,13371,10488,14681,23225,4
0,0,0,16815,13357,10488,15211,23203,4
0,0,0,16848,13287,10453,15663,22910,4
0,0,0,16815,13301,10441,15584,22754,4
0,0,0,16831,13205,10441,15521,22401,4
0,0,0,16781,13191,10441,15397,22270,4
0,0,0,16831,13205,10441,15335,22205,4
0,0,0,16765,13205,10418,15119,22335,4
0,0,0,16748,13205,10406,14922,22248,4
0,0,0,16781,13205,10406,14726,22270,4
0,0,0,16815,13122,10394,14577,22183,4
0,0,0,16815,13068,10394,14488,22032,4
0,0,0,16698,13068,10394,14532,22248,4
0,0,0,16698,13068,10394,14547,22053,4
0,0,0,16648,13081,10394,14607,22010,4
0,0,0,16632,13054,10383,14982,22053,4
0,0,0,16815,13068,10383,14997,21967,4
0,0,0,16781,13068,10394,14876,21967,4
0,0,0,16781,13081,10394,14846,21882,4
0,0,0,16781,13068,10394,15058,21882,4
0,0,0,16815,13122,10394,15104,21882,4
0,0,0,16815,13122,10418,15150,21839,4
0,0,0,16815,13109,10394,15350,21839,4
0,0,0,16565,13068,10406,15647,22053,4
0,0,0,16549,13068,10394,15459,22010,4
0,0,0,16698,13068,10394,15412,21903,4
0,0,0,16731,13081,10418,15412,21967,4
0,0,0,16748,13081,10394,15412,21903,4
0,0,0,16681,13068,10406,15459,21818,4
0,0,0,16698,13068,10394,15553,21882,4
0,0,0,16681,13122,10394,15647,21818,4
0,0,0,16665,13081,10394,15710,21860,4
0,0,0,16681,13068,10394,15584,21818,4
0,0,0,16715,13081,10406,15412,21839,4
0,0,0,16681,13068,10418,15258,21754,4
0,0,0,16715,13068,10394,15089,21775,4
0,0,0,16715,12851,10394,14636,21796,4
0,0,0,16815,12176,10394,13764,21775,4
0,0,0,16831,11453,10394,13027,21839,4
0,0,0,16698,11036,10325,12241,22010,4
0,0,0,16865,10819,10301,11906,21924,4
0,0,0,16831,10629,10301,11804,21924,4
0,0,0,16882,10535,10267,11665,21882,4
0,0,0,16815,10406,10301,11653,21882,4
0,0,0,16848,10394,10267,11653,21882,4
0,0,0,16815,10359,10301,11665,21796,4
0,0,0,16781,10371,10278,11716,21882,4
0,0,0,16698,10383,10301,11754,21733,4
0,0,0,16681,10371,10301,11830,21669,4
0,0,0,16748,10394,10301,11754,21627,4
0,0,0,16748,10383,10255,11716,21542,4
0,0,0,16748,10359,10267,11716,21500,4
0,0,0,16698,10348,10267,11691,21500,4
0,0,0,16698,10313,10278,11678,21500,4
0,0,0,16681,10301,10267,11678,21458,4
0,0,0,16665,10301,10313,11665,21458,4
0,0,0,16681,10278,10348,11703,21395,4
0,0,0,16632,10301,10348,11703,21375,4
0,0,0,16681,10313,10348,11754,21208,4
0,0,0,16648,10301,10394,11804,21146,4
0,0,0,16615,10313,10394,11855,21146,4
0,0,0,16615,10325,10418,11957,21105,4
0,0,0,16615,10348,10441,12021,21002,4
0,0,0,16615,10325,10441,12137,21022,4
0,0,0,16681,10336,10418,12241,21002,4
0,0,0,16648,10325,10394,12215,20920,4
0,0,0,16632,10348,10371,12189,20961,4
0,0,0,16615,10348,10348,12163,20879,4
0,0,0,16615,10348,10359,12189,20920,4
0,0,0,16615,10348,10348,12254,20798,4
0,0,0,16648,10348,10359,12398,20737,4
0,0,0,16598,10394,10359,12543,20676,4
0,0,0,16615,10406,10348,12959,20636,4
0,0,0,16582,10394,10348,12959,20636,4
0,0,0,16582,10406,10348,12918,20716,4
0,0,0,16632,10348,10325,12770,20716,4
0,0,0,16565,10371,10325,12743,20676,4
0,0,0,16615,10371,10313,12636,20676,4
0,0,0,16598,10371,10313,12583,20636,4
0,0,0,16565,10359,10313,12583,20636,4
0,0,0,16499,10371,10325,12610,20656,4
0,0,0,16499,10394,10301,12610,20636,4
0,0,0,16516,10359,10313,12663,20636,4
0,0,0,16483,10371,10313,12743,20555,4
0,0,0,16549,10394,10313,12703,20615,4
0,0,0,16582,10371,10278,12743,20555,4
0,0,0,16549,10371,10313,12690,20595,4
0,0,0,16615,10394,10278,12770,20757,4
0,0,0,16615,10394,10301,13013,20676,4
0,0,0,16565,10348,10278,13150,20798,4
0,0,0,16549,10336,10267,13122,20798,4
0,0,0,16582,10325,10255,13081,20716,4
0,0,0,16565,10313,10255,13027,20757,4
0,0,0,16582,10278,10255,12905,20798,4
0,0,0,16582,10267,10255,12905,20798,4
0,0,0,16549,10255,10255,12878,20757,4
0,0,0,16549,10232,10244,12945,20798,4
0,0,0,16499,10209,10255,13081,20737,4
0,0,0,16499,10209,10244,13177,20798,4
0,0,0,16450,10209,10232,13510,20716,4
0,0,0,16434,10221,10255,13398,20716,4
0,0,0,16352,10221,10255,13232,20798,4
0,0,0,16352,10209,10232,12918,20716,4
0,0,0,16368,10221,10244,12743,20676,4
0,0,0,16368,10221,10232,12543,20636,4
0,0,0,16352,10232,10244,12543,20615,4
0,0,0,16352,10209,10221,12530,20595,4
0,0,0,16254,10209,10221,12530,20636,4
0,0,0,16254,10209,10221,12610,20495,4
0,0,0,16254,10209,10209,12636,20495,4
0,0,0,16287,10221,10232,12905,20395,4
0,0,0,16238,10232,10221,12972,20415,4
0,0,0,16238,10221,10255,13040,20415,4
0,0,0,16222,10209,10209,13013,20395,4
0,0,0,16222,10221,10209,13274,20355,4
0,0,0,16271,10221,10221,13287,20395,4
0,0,0,16287,10255,10232,13260,20395,4
0,0,0,16287,10267,10209,13205,20355,4
0,0,0,16222,10255,10221,13205,20335,4
0,0,0,16238,10267,10221,13232,20315,4
0,0,0,16271,10267,10209,13068,20355,4
0,0,0,16254,10278,10209,13013,20315,4
0,0,0,16254,10255,10221,12972,20256,4
0,0,0,16254,10267,10221,12986,20315,4
0,0,0,16254,10255,10209,12959,20256,4
0,0,0,16254,10255,10221,12851,20295,4
0,0,0,16303,10255,10221,12649,20216,4
0,0,0,16352,10221,10209,12583,20236,4
0,0,0,16385,10267,10209,12424,20275,4
0,0,0,16368,10255,10140,12372,20275,4
0,0,0,16368,10290,10094,12438,20176,4
0,0,0,16368,10313,10083,12477,20117,4
0,0,0,16352,10301,10094,12504,20078,4
0,0,0,16287,10255,10255,12530,20137,4
0,0,0,16434,10255,10748,12810,19999,4
0,0,0,16483,10267,11416,13510,19805,4
0,0,0,16450,10301,11528,14036,19689,4
0,0,0,16516,10371,11416,14801,19708,4
0,0,0,16499,10406,11292,15304,19573,4
0,0,0,16516,10441,11255,15181,19535,4
0,0,0,16434,10441,11109,15258,19650,4
0,0,0,16434,10441,11012,15868,19689,4
0,0,0,16417,10453,10843,16549,19689,4
0,0,0,16467,10488,10795,16882,19824,4
0,0,0,16417,10488,10771,17016,19785,4
0,0,0,16434,10511,10771,17478,19766,4
0,0,0,16401,10488,10724,17774,20039,4
0,0,0,16352,10453,10724,18004,20078,4
0,0,0,16254,10464,10700,18272,21924,4
0,0,0,15964,10464,10629,18236,24247,4
0,0,0,15789,10441,10605,17792,27364,4
0,0,0,15757,10406,10535,16815,28133,4
0,0,0,15773,10394,10453,16173,28669,4
0,0,0,15678,10371,10418,16352,28754,4
0,0,0,15663,10348,10348,16483,28555,4
0,0,0,15663,10301,10325,16648,28385,4
0,0,0,15490,10301,10301,17289,28301,4
0,0,0,15553,10255,10255,17374,28049,4
0,0,0,15805,10209,10163,17084,29071,4
0,0,0,16060,10209,10083,15726,30165,4
0,0,0,16352,10209,10071,13849,31025,4
0,0,0,16483,10232,10071,12959,31213,4
0,0,0,16632,10267,10071,12517,31402,4
0,0,0,16681,10278,10071,12306,31276,4
0,0,0,16765,10301,10049,12228,31529,4
0,0,0,17016,10301,10026,12228,32303,4
0,0,0,17634,10301,10026,12372,34200,4
0,0,0,18164,10301,10026,12424,34982,4
0,0,0,18709,10325,10026,12530,35639,4
0,0,0,19005,10301,9935,12530,36160,4
0,0,0,19497,10348,9845,12385,37583,4
0,0,0,19960,10359,9800,12215,38871,4
0,0,0,19766,10394,9733,12163,37860,4
0,0,0,19516,10429,9710,12086,36998,4
0,0,0,19535,10441,9699,12086,36882,4
0,0,0,19382,10441,9688,12176,36690,4
0,0,0,19249,10441,9666,12320,36348,4
0,0,0,19155,10394,9632,12293,36310,4
0,0,0,19174,10406,9632,12293,36160,4
0,0,0,19231,10371,9555,12320,36160,4
0,0,0,19249,10371,9533,12320,36197,4
0,0,0,19306,10394,9511,12280,36310,4
0,0,0,19325,10394,9511,12215,36386,4
0,0,0,19439,10418,9533,12189,36310,4
0,0,0,19477,10453,9533,12150,36272,4
0,0,0,19612,10535,9788,12073,36197,4
0,0,0,19921,10700,9958,12009,36085,4
0,0,0,20019,10783,10026,11996,35898,4
0,0,0,20039,10867,10071,12009,36010,4
0,0,0,20236,10939,10140,12009,36010,4
0,0,0,20335,10987,10255,12060,35972,4
0,0,0,20395,11036,10290,12060,35935,4
0,0,0,20395,11157,10255,12009,36160,4
0,0,0,20415,11453,10129,11983,36160,4
0,0,0,20555,11855,9935,11830,36160,4
0,0,0,20555,11932,9800,11741,35861,4
0,0,0,20435,11919,9710,11703,35676,4
0,0,0,20335,11855,9688,11703,35309,4
0,0,0,20335,11779,9688,11653,35345,4
0,0,0,20275,11653,9677,11653,35345,4
0,0,0,20196,11553,9710,11653,35199,4
0,0,0,20196,11453,9666,11615,35199,4
0,0,0,20098,11403,9666,11578,35055,4
0,0,0,20078,11403,9643,11578,34910,4
0,0,0,20039,11354,9643,11603,35055,4
0,0,0,20019,11379,9643,11603,34874,4
0,0,0,20019,11304,9643,11565,35055,4
0,0,0,19921,11280,9621,11565,34839,4
0,0,0,19921,11304,9599,11578,34839,4
0,0,0,19921,11304,9577,11678,34767,4
0,0,0,19921,11255,9566,11804,35127,4
0,0,0,19921,11268,9577,11817,35018,4
0,0,0,19902,11280,9577,11804,34982,4
0,0,0,19863,11354,9577,11830,34982,4
0,0,0,19882,11603,9544,11817,34731,4
0,0,0,19843,11741,9577,11855,34874,4
0,0,0,19921,11615,9577,11804,34767,4
0,0,0,19863,11603,9643,11817,34660,4
0,0,0,19863,11603,9710,11779,34767,4
0,0,0,19824,11553,9666,11804,34696,4
0,0,0,19805,11553,9666,11817,34874,4
0,0,0,19766,11503,9632,11804,34731,4
0,0,0,19766,11503,9643,11804,34589,4
0,0,0,19766,11478,9654,11804,34589,4
0,0,0,19689,11478,9654,11817,34553,4
0,0,0,19689,11453,9688,11817,34660,4
0,0,0,19727,11403,9677,11855,34624,4
0,0,0,19805,11329,9710,11881,34767,4
0,0,0,19843,11231,9867,11792,34731,4
0,0,0,19805,11219,10037,11703,34553,4
0,0,0,19746,11231,10071,11653,34553,4
0,0,0,19689,11182,10071,11603,34482,4
0,0,0,19689,11157,10026,11578,34696,4
0,0,0,19708,11121,9958,11528,34412,4
0,0,0,19708,11060,9901,11528,34306,4
0,0,0,19727,11012,9845,11503,34200,4
0,0,0,19689,10963,9811,11515,34165,4
0,0,0,19708,10927,9755,11503,34271,4
0,0,0,19766,10915,9632,11503,34696,4
0,0,0,19766,10771,9544,11503,34874,4
0,0,0,19785,10676,9511,11403,34696,4
0,0,0,19766,10629,9511,11317,34696,4
0,0,0,19766,10653,9533,11317,34767,4
0,0,0,19766,10771,9511,11304,34839,4
0,0,0,19708,10987,9511,11280,34696,4
0,0,0,19650,11354,9511,11304,34696,4
0,0,0,19612,11779,9533,11379,34589,4
0,0,0,19689,11653,9533,11403,34696,4
0,0,0,19689,11403,9511,11379,34696,4
0,0,0,19766,11206,9522,11379,34767,4
0,0,0,19689,11084,9488,11354,34553,4
0,0,0,19689,10927,9533,11354,34341,4
0,0,0,19689,10771,9710,11403,34341,4
0,0,0,19631,10724,9766,11403,34412,4
0,0,0,19631,10629,9777,11503,34271,4
0,0,0,19612,10605,9800,11578,34271,4
0,0,0,19554,10582,9800,11603,34130,4
0,0,0,19535,10546,9811,11603,34200,4
0,0,0,19554,10488,9890,11565,34165,4
0,0,0,19535,10453,9958,11578,33991,4
0,0,0,19516,10418,10163,11565,33887,4
0,0,0,19497,10394,10313,11528,33852,4
0,0,0,19535,10359,10371,11515,33852,4
0,0,0,19535,10348,10394,11515,33645,4
0,0,0,19535,10325,10464,11515,33645,4
0,0,0,19631,10348,10488,11403,33645,4
0,0,0,19766,10348,10406,11354,33748,4
0,0,0,19689,10359,10313,11304,33576,4
0,0,0,19612,10394,10301,11304,33645,4
0,0,0,19612,10464,10232,11280,33576,4
0,0,0,19554,10453,10221,11304,33542,4
0,0,0,19573,10488,10140,11292,33439,4
0,0,0,19554,10499,10094,11304,33337,4
0,0,0,19612,10488,10026,11304,33714,4
0,0,0,19805,10523,9901,11304,34026,4
0,0,0,20137,10499,9856,11304,33714,4
0,0,0,19960,10558,9867,11280,33168,4
0,0,0,19960,10558,9845,11255,33100,4
0,0,0,19980,10535,9800,11280,33067,4
0,0,0,20098,10558,9755,11255,33168,4
0,0,0,20395,10582,9688,11255,33576,4
0,0,0,20555,10570,9621,11255,33991,4
0,0,0,20555,10535,9533,11268,33956,4
0,0,0,20555,10511,9533,11304,34165,4
0,0,0,20475,10464,9533,11268,34271,4
0,0,0,20435,10488,9533,11255,34306,4
0,0,0,20475,10441,9522,11268,34341,4
0,0,0,20435,10453,9511,11268,34200,4
0,0,0,20475,10453,9533,11304,34271,4
0,0,0,20475,10453,9522,11354,34447,4
0,0,0,20435,10441,9511,11354,34624,4
0,0,0,20415,10441,9511,11354,34696,4
0,0,0,20475,10418,9533,11354,34553,4
0,0,0,20475,10418,9511,11304,34447,4
0,0,0,20495,10441,9522,11329,34412,4
0,0,0,20555,10441,9511,11354,34589,4
0,0,0,20555,10441,9533,11354,34731,4
0,0,0,20555,10464,9500,11317,34696,4
0,0,0,20555,10441,9511,11304,34624,4
0,0,0,20515,10441,9511,11317,34624,4
0,0,0,20475,10464,9511,11304,34589,4
0,0,0,20395,10441,9533,11304,34696,4
0,0,0,20315,10453,9511,11268,34447,4
0,0,0,20335,10418,9533,11280,34412,4
0,0,0,20375,10418,9533,11304,34553,4
0,0,0,20315,10406,9511,11292,34482,4
0,0,0,20315,10441,9511,11280,34482,4
0,0,0,20295,10441,9500,11280,34553,4
0,0,0,20275,10429,9511,11280,34731,4
0,0,0,20315,10429,9511,11304,34553,4
0,0,0,20335,10406,9511,11304,34696,4
0,0,0,20395,10394,9500,11304,34803,4
0,0,0,20335,10394,9511,11304,34624,4
0,0,0,20315,10383,9511,11304,34731,4
0,0,0,20315,10394,9511,11304,34696,4
0,0,0,20395,10394,9500,11329,34696,4
0,0,0,20495,10371,9500,11354,34696,4
0,0,0,20475,10348,9500,11354,34624,4
0,0,0,20435,10348,9500,11366,34553,4
0,0,0,20395,10348,9533,11379,34660,4
0,0,0,20395,10348,9500,11366,34553,4
0,0,0,20475,10359,9511,11379,34553,4
0,0,0,20455,10359,9500,11403,34589,4
0,0,0,20395,10371,9488,11403,34482,4
0,0,0,20395,10371,9511,11403,34553,4
0,0,0,20435,10359,9500,11440,34696,4
0,0,0,20475,10371,9511,11416,34589,4
0,0,0,20495,10348,9488,11428,34660,4
0,0,0,20475,10348,9500,11440,34589,4
0,0,0,20435,10394,9500,11453,34767,4
0,0,0,20395,10488,9511,11453,35127,4
0,0,0,20435,10535,9511,11453,35091,4
0,0,0,20555,10558,9500,11453,34946,4
0,0,0,20575,10629,9488,11478,34910,4
0,0,0,20595,10700,9500,11478,34839,4
0,0,0,20575,10724,9511,11528,35127,4
0,0,0,20555,10748,9533,11515,35163,4
0,0,0,20575,10771,9511,11528,35055,4
0,0,0,20495,10771,9511,11553,34874,4
0,0,0,20495,10795,9500,11553,34874,4
0,0,0,20495,10795,9500,11553,34839,4
0,0,0,20475,10783,9500,11553,34839,4
0,0,0,20475,10795,9500,11528,34982,4
0,0,0,20495,10819,9511,11540,35163,4
0,0,0,20555,10819,9500,11503,34982,4
0,0,0,20515,10819,9533,11515,34767,4
0,0,0,20475,10819,9500,11465,34696,4
0,0,0,20435,10783,9533,11465,34518,4
0,0,0,20395,10748,9811,11403,34624,4
0,0,0,20315,10700,10174,11366,34767,4
0,0,0,20275,10641,10394,11366,34696,4
0,0,0,20236,10594,10488,11379,34553,4
0,0,0,20216,10546,10535,11354,34447,4
0,0,0,20157,10582,10582,11379,34553,4
0,0,0,20157,10582,10558,11379,34589,4
0,0,0,20117,10629,10523,11379,34553,4
0,0,0,20117,10676,10499,11366,34341,4
0,0,0,20098,10724,10488,11366,34200,4
0,0,0,20117,10748,10488,11403,34200,4
0,0,0,20078,10688,10535,11428,34696,4
0,0,0,20078,10676,10594,11453,34696,4
0,0,0,20019,10641,10582,11503,34624,4
0,0,0,20019,10641,10511,11478,34624,4
0,0,0,19999,10724,10453,11503,34553,4
0,0,0,19999,10783,10359,11528,34553,4
0,0,0,19921,10843,10348,11540,34589,4
0,0,0,19921,10831,10394,11553,34553,4
0,0,0,19921,10867,10418,11540,34624,4
0,0,0,19921,10987,10441,11553,34553,4
0,0,0,19882,11024,10453,11565,34482,4
0,0,0,19843,11182,10476,11578,34518,4
0,0,0,19805,11304,10418,11578,34200,4
0,0,0,19650,11379,10394,11565,33508,4
0,0,0,19554,11528,10371,11603,33371,4
0,0,0,19497,11603,10348,11603,33337,4
0,0,0,19477,11578,10313,11603,33576,4
0,0,0,19573,11603,10301,11615,33679,4
0,0,0,19573,11603,10301,11615,33921,4
0,0,0,19573,11615,10301,11653,34306,4
0,0,0,19497,11703,10301,11653,34553,4
0,0,0,19516,11728,10301,11678,34696,4
0,0,0,19458,11691,10301,11716,34482,4
0,0,0,19458,11665,10301,11830,34341,4
0,0,0,19535,11665,10267,11881,34412,4
0,0,0,19535,11766,10232,11906,34553,4
0,0,0,19458,11957,10325,12189,34447,4
0,0,0,19458,12346,10676,12730,34341,4
0,0,0,19458,12743,11255,13068,34660,4
0,0,0,19497,13122,11766,13177,34482,4
0,0,0,19535,13191,11703,13122,34412,4
0,0,0,19573,13122,11465,12959,34624,4
0,0,0,19554,13068,11403,12878,34412,4
0,0,0,19535,12986,11354,12837,34412,4
0,0,0,19516,12905,11304,12810,34341,4
0,0,0,19535,12824,11206,12797,34341,4
0,0,0,19535,12649,10975,12676,34130,4
0,0,0,19477,12636,11012,12636,34271,4
0,0,0,19458,12649,11012,12610,34341,4
0,0,0,19382,12690,11012,12596,34165,4
0,0,0,19420,12663,11012,12583,34060,4
0,0,0,19458,12703,11012,12583,33921,4
0,0,0,19420,12703,11012,12556,33921,4
0,0,0,19344,12703,10987,12583,33956,4
0,0,0,19420,12743,10963,12556,33852,4
0,0,0,19401,12703,10915,12543,33852,4
0,0,0,19363,12663,10915,12583,33748,4
0,0,0,19325,12703,10891,12583,33714,4
0,0,0,19344,12770,10879,12556,33645,4
0,0,0,19306,12690,10819,12530,33714,4
0,0,0,19268,12663,10819,12556,33679,4
0,0,0,19287,12649,10795,12583,33714,4
0,0,0,19306,12596,10724,12543,33645,4
0,0,0,19306,12596,10724,12530,33576,4
0,0,0,19306,12610,10724,12583,33508,4
0,0,0,19268,12583,10676,12543,33611,4
0,0,0,19231,12596,10641,12530,33474,4
0,0,0,19231,12530,10594,12556,33474,4
0,0,0,19268,12504,10594,12570,33508,4
0,0,0,19249,12530,10594,12583,33439,4
0,0,0,19231,12504,10582,12570,33405,4
0,0,0,19174,12530,10582,12556,33303,4
0,0,0,19231,12530,10582,12543,33371,4
0,0,0,19306,12504,10570,12556,33439,4
0,0,0,19344,12504,10582,12543,33269,4
0,0,0,19249,12530,10546,12583,33303,4
0,0,0,19231,12530,10570,12583,33337,4
0,0,0,19268,12504,10582,12583,33371,4
0,0,0,19325,12530,10582,12596,33576,4
0,0,0,19306,12504,10582,12596,33576,4
0,0,0,19344,12543,10546,12623,33576,4
0,0,0,19249,12530,10535,12583,33576,4
0,0,0,19325,12530,10488,12530,33783,4
0,0,0,19497,12320,10383,12346,34271,4
0,0,0,19612,12137,10232,12009,34660,4
0,0,0,19689,11906,10083,11804,34696,4
0,0,0,19805,11830,9980,11754,34910,4
0,0,0,19999,11754,9912,11665,34982,4
0,0,0,20475,11728,9800,11653,34589,4
0,0,0,20716,11678,9666,11615,34271,4
0,0,0,20838,11665,9533,11603,33371,4
0,0,0,20920,11603,9511,11578,33168,4
0,0,0,20879,11578,9533,11553,33067,4
0,0,0,20961,11565,9511,11553,33033,4
0,0,0,21208,11553,9522,11528,33474,4
0,0,0,21333,11515,9511,11553,34271,4
0,0,0,21542,11416,9511,11553,34910,4
0,0,0,21754,11304,9511,11590,35565,4
0,0,0,22053,11304,9511,11653,35861,4
0,0,0,22226,11354,9488,11653,35749,4
0,0,0,22292,11304,9511,11678,35418,4
0,0,0,22313,11366,9500,11703,35018,4
0,0,0,22248,11453,9522,11932,34839,4
0,0,0,22075,11317,9511,12034,34518,4
0,0,0,22053,11255,9533,12163,34271,4
0,0,0,22053,11157,9511,12189,34482,4
0,0,0,22075,11121,9511,12124,34767,4
0,0,0,22248,11084,9500,11932,34910,4
0,0,0,22357,11072,9511,11804,35091,4
0,0,0,22335,11084,9533,11716,34874,4
0,0,0,22335,11084,9522,11653,35018,4
0,0,0,22313,11060,9522,11628,34982,4
0,0,0,22401,11012,9511,11603,35018,4
0,0,0,22401,10939,9511,11553,35492,4
0,0,0,22379,10819,9511,11528,35712,4
0,0,0,22226,10795,9500,11528,35861,4
0,0,0,22140,10748,9511,11515,35749,4
0,0,0,22140,10712,9511,11503,35455,4
0,0,0,22096,10724,9511,11478,35272,4
0,0,0,22053,10748,9511,11453,35418,4
0,0,0,22032,10748,9500,11453,35272,4
0,0,0,22010,10795,9500,11503,34910,4
0,0,0,21967,10819,9511,11478,34731,4
0,0,0,21903,10843,9522,11478,34624,4
0,0,0,21882,10831,9500,11453,34589,4
0,0,0,21796,10807,9522,11453,34589,4
0,0,0,21606,10748,9511,11416,34447,4
0,0,0,21606,10748,9511,11379,34341,4
0,0,0,21542,10724,9511,11379,34271,4
0,0,0,21627,10700,9500,11329,34341,4
0,0,0,21648,10676,9511,11329,34341,4
0,0,0,21584,10676,9511,11317,34130,4
0,0,0,21563,10653,9511,11341,34060,4
0,0,0,21521,10594,9500,11354,33991,4
0,0,0,21500,10582,9511,11317,34026,4
0,0,0,21479,10605,9522,11354,33991,4
0,0,0,21458,10688,9522,11354,34026,4
0,0,0,21395,10700,9500,11354,34624,4
0,0,0,21375,10688,9511,11354,34482,4
0,0,0,21375,10664,9511,11354,34767,4
0,0,0,21479,10629,9511,11329,34696,4
0,0,0,21437,10594,9500,11329,34412,4
0,0,0,21208,10582,9511,11317,34271,4
0,0,0,21022,10558,9511,11379,34412,4
0,0,0,20636,10535,9511,11379,34553,4
0,0,0,20196,10535,9522,11403,34271,4
0,0,0,19592,10535,9511,11403,33645,4
0,0,0,19043,10511,9511,11428,33067,4
0,0,0,18764,10511,9511,11603,32765,4
0,0,0,18654,10535,9500,11754,32500,4
0,0,0,18508,10523,9500,11957,32500,4
0,0,0,18417,10535,9511,12163,31849,4
0,0,0,18182,10488,9488,12372,31150,4
0,0,0,17757,10499,9511,12583,30622,4
0,0,0,17478,10488,9500,12690,31025,4
0,0,0,17357,10488,9500,12690,31624,4
0,0,0,17306,10488,9511,12690,31946,4
0,0,0,17289,10453,9533,12716,32566,4
0,0,0,17289,10464,9500,12932,33100,4
0,0,0,17357,10488,9511,13150,33576,4
0,0,0,17306,10453,9511,13792,33576,4
0,0,0,17254,10488,9500,13792,33202,4
0,0,0,17016,10476,9500,13707,32633,4
0,0,0,16765,10488,9488,13524,32043,4
0,0,0,16483,10488,9500,13232,31402,4
0,0,0,16434,10499,9511,12878,30994,4
0,0,0,16417,10488,9500,12504,31150,4
0,0,0,16450,10499,9511,12267,31276,4
0,0,0,16565,10499,9511,12163,31465,4
0,0,0,16698,10499,9500,11983,31752,4
0,0,0,17016,10453,9511,11906,32238,4
0,0,0,17426,10453,9500,11855,32932,4
0,0,0,17565,10418,9511,11868,33033,4
0,0,0,17513,10406,9511,11906,32732,4
0,0,0,17617,10383,9488,11906,32699,4
0,0,0,17634,10371,9511,11855,32467,4
0,0,0,17669,10301,9511,11779,32599,4
0,0,0,17704,10267,9522,11665,32666,4
0,0,0,17722,10255,9500,11528,32832,4
0,0,0,17809,10232,9500,11453,33202,4
0,0,0,18022,10186,9522,11403,33474,4
0,0,0,18147,10117,9511,11304,33371,4
0,0,0,18129,10117,9488,11329,33576,4
0,0,0,18129,10117,9500,11354,33576,4
0,0,0,18129,10117,9500,11478,33439,4
0,0,0,18093,10117,9500,11465,33168,4
0,0,0,18057,10071,9500,11478,33134,4
0,0,0,18075,10071,9488,11453,32899,4
0,0,0,18093,10071,9511,11453,32866,4
0,0,0,18111,10071,9511,11453,32799,4
0,0,0,18075,10071,9500,11403,32732,4
0,0,0,18093,10083,9511,11366,32832,4
0,0,0,18147,10083,9511,11304,32899,4
0,0,0,18057,10071,9511,11304,32899,4
0,0,0,18075,10071,9500,11317,32832,4
0,0,0,18093,10071,9511,11317,32832,4
0,0,0,18164,10071,9511,11354,32699,4
0,0,0,18308,10071,9511,11379,32467,4
0,0,0,18380,10094,9500,11354,32533,4
0,0,0,18399,10094,9511,11354,32633,4
0,0,0,18380,10083,9500,11354,32533,4
0,0,0,18508,10083,9511,11354,32500,4
0,0,0,18489,10071,9488,11354,32435,4
0,0,0,18417,10083,9500,11354,32435,4
0,0,0,18508,10094,9500,11304,32500,4
0,0,0,18508,10071,9500,11255,32500,4
0,0,0,18508,10094,9500,11206,32500,4
0,0,0,18635,10106,9511,11194,32467,4
0,0,0,18654,10106,9511,11157,32533,4
0,0,0,18691,10117,9710,11084,32500,4
0,0,0,18672,10129,10117,11012,32435,4
0,0,0,18709,10129,10117,10987,32699,4
0,0,0,18727,10117,10140,10987,32633,4
0,0,0,18783,10094,10163,10975,32699,4
0,0,0,18857,10117,10163,10987,32765,4
0,0,0,18875,10117,10174,10963,32699,4
0,0,0,18875,10117,10174,10963,32732,4
0,0,0,18894,10071,10094,10939,32966,4
0,0,0,18894,10071,9958,10891,33474,4
0,0,0,18894,10060,9811,10891,33371,4
0,0,0,18931,10060,9755,10879,33303,4
0,0,0,18949,10071,9800,10879,33337,4
0,0,0,18931,10071,9811,10915,33371,4
0,0,0,18931,10071,9800,10915,33134,4
0,0,0,18949,10083,9710,10927,33100,4
0,0,0,18949,10071,9710,10891,33033,4
0,0,0,18949,10071,9710,10939,33033,4
0,0,0,18949,10071,9766,10915,33033,4
0,0,0,18931,10060,9766,10927,32899,4
0,0,0,18931,10049,9800,10903,32899,4
0,0,0,18894,10071,9755,10915,32799,4
0,0,0,18931,10037,9710,10915,32832,4
0,0,0,18894,10071,9688,10939,32899,4
0,0,0,18931,10037,9688,10927,32765,4
0,0,0,18949,10071,9677,10939,32799,4
0,0,0,18875,10071,9677,10951,32899,4
0,0,0,18931,10071,9755,10963,32799,4
0,0,0,18894,10071,9755,10987,32899,4
0,0,0,18875,10083,9733,10987,32932,4
0,0,0,18875,10083,9755,11024,32932,4
0,0,0,18820,10083,9721,11012,32899,4
0,0,0,18727,10094,9733,11024,32932,4
0,0,0,18727,10083,9621,11048,32765,4
0,0,0,18562,10071,9577,11060,32303,4
0,0,0,18471,10083,9577,11109,32271,4
0,0,0,18362,10106,9555,11133,32140,4
0,0,0,18308,10117,9533,11182,32010,4
0,0,0,18236,10117,9533,11231,31849,4
0,0,0,18200,10117,9511,11304,31785,4
0,0,0,17951,10117,9511,11304,31465,4
0,0,0,17739,10129,9500,11304,31593,4
0,0,0,17461,10117,9533,11329,31213,4
0,0,0,17152,10117,9500,11329,30838,4
0,0,0,16949,10117,9500,11329,29895,4
0,0,0,16815,10094,9511,11329,29509,4
0,0,0,16615,10117,9500,11354,29100,4
0,0,0,16417,10106,9511,11528,28049,4
0,0,0,16287,10083,9500,11703,27256,4
0,0,0,16254,10071,9511,11932,27175,4
0,0,0,16157,10071,9511,12372,27391,4
0,0,0,16109,10117,9511,12346,27364,4
0,0,0,16093,10117,9500,12189,26882,4
0,0,0,16093,10117,9511,12034,26723,4
0,0,0,16060,10117,9511,11678,26513,4
0,0,0,16093,10117,9522,11603,26566,4
0,0,0,16093,10117,9511,11503,28133,4
0,0,0,16109,10117,9500,11478,27310,4
0,0,0,16060,10117,9511,11465,26566,4
0,0,0,16012,10117,9533,11453,26461,4
0,0,0,16012,10117,9511,11428,26202,4
0,0,0,15996,10117,9511,11478,25691,4
0,0,0,16028,10106,9511,11528,25945,4
0,0,0,15964,10083,9511,11515,26228,4
0,0,0,15964,10094,9511,11528,26202,4
0,0,0,15980,10117,9511,11553,26073,4
0,0,0,15964,10117,9500,11528,25945,4
0,0,0,15964,10117,9511,11503,25894,4
0,0,0,15964,10083,9511,11528,25894,4
0,0,0,15916,10094,9511,11503,25717,4
0,0,0,15948,10106,9511,11503,26357,4
0,0,0,15932,10083,9500,11528,26099,4
0,0,0,15900,10117,9511,11503,24606,4
0,0,0,15852,10117,9511,11528,24034,4
0,0,0,15852,10083,9511,11503,26618,4
0,0,0,15837,10117,9511,11503,27068,4
0,0,0,15773,10083,9511,11503,26487,4
0,0,0,15821,10094,9511,11528,26305,4
0,0,0,15773,10117,9511,11503,25818,4
0,0,0,15726,10083,9511,11528,25591,4
0,0,0,15663,10094,9500,11578,25540,4
0,0,0,15663,10094,9500,11615,24630,4
0,0,0,15615,10117,9511,11678,25044,4
0,0,0,15647,10106,9511,11754,26855,4
0,0,0,15584,10071,9533,11804,26723,4
0,0,0,15553,10094,9511,11817,25490,4
0,0,0,15553,10083,9511,11830,25565,4
0,0,0,15553,10083,9533,11754,25390,4
0,0,0,15553,10106,9511,11754,25316,4
0,0,0,15521,10071,9533,12163,25093,4
0,0,0,15521,10071,9533,12293,25365,4
0,0,0,15428,10083,9533,12124,25691,4
0,0,0,15397,10071,9533,12060,25266,4
0,0,0,15335,10071,9533,12060,24582,4
0,0,0,15304,10083,9544,12034,24414,4
0,0,0,15273,10071,9544,12021,24366,4
0,0,0,15273,10071,9533,11983,24534,4
0,0,0,15227,10049,9533,11919,24414,4
0,0,0,15211,10071,9533,11881,24129,4
0,0,0,15242,10071,9544,11957,23294,4
0,0,0,15181,10049,9533,11983,24799,4
0,0,0,15181,10071,9533,11957,24946,4
0,0,0,15165,10071,9555,11893,24414,4
0,0,0,15119,10071,9533,11881,22887,4
0,0,0,15150,10071,9533,11932,22665,4
0,0,0,15104,10083,9533,11983,23135,4
0,0,0,15119,10071,9566,11996,23316,4
0,0,0,15119,10083,9555,12086,22887,4
0,0,0,15273,10083,9544,12215,21648,4
0,0,0,15227,10071,9577,12543,19999,4
0,0,0,15089,10117,9654,12905,23707,4
0,0,0,15028,10106,9688,12690,23964,4
0,0,0,14982,10106,9688,12663,23546,4
0,0,0,15028,10094,9710,12636,23431,4
0,0,0,14997,10117,9688,12636,23569,4
0,0,0,14997,10083,9755,12320,24534,4
0,0,0,14982,10117,9733,12124,24702,4
0,0,0,14982,10094,9710,11970,23894,4
0,0,0,14982,10117,9666,11881,23661,4
0,0,0,14967,10094,9688,11830,23684,4
0,0,0,14982,10094,9710,11766,23477,4
0,0,0,14967,10094,9688,11779,22776,4
0,0,0,14982,10117,9710,11855,22576,4
0,0,0,14967,10094,9733,12086,22313,4
0,0,0,15089,10083,9766,12504,21627,4
0,0,0,15058,10094,9755,12596,21796,4
0,0,0,15058,10083,9733,12583,21711,4
0,0,0,15043,10094,9733,12543,21627,4
0,0,0,14997,10083,9744,12438,21584,4
0,0,0,15028,10094,9710,12112,21500,4
0,0,0,15028,10117,9710,11855,21354,4
0,0,0,15028,10094,9710,11691,20899,4
0,0,0,15028,10094,9643,11478,20879,4
0,0,0,14997,10106,9621,11219,21711,4
0,0,0,14997,10094,9610,11109,21229,4
0,0,0,14982,10117,9555,11084,20920,4
0,0,0,14967,10117,9566,11072,20899,4
0,0,0,14967,10117,9533,11060,20838,4
0,0,0,14967,10117,9511,11060,20798,4
0,0,0,14967,10117,9533,11036,21584,4
0,0,0,14967,10117,9533,11060,21711,4
0,0,0,14967,10117,9533,11060,21043,4
0,0,0,14982,10117,9533,11060,20961,4
0,0,0,14967,10117,9533,11060,20961,4
0,0,0,14967,10117,9533,11036,21084,4
0,0,0,14967,10117,9533,11012,21043,4
0,0,0,14937,10117,9533,11012,21354,4
0,0,0,14937,10117,9511,11012,21250,4
0,0,0,14967,10071,9511,10987,20676,4
0,0,0,14967,10117,9488,10963,20920,4
0,0,0,14922,10117,9511,10963,21002,4
0,0,0,14967,10117,9511,10939,20859,4
0,0,0,15028,10094,9500,10963,20555,4
0,0,0,14997,10094,9511,10975,20716,4
0,0,0,14967,10094,9500,10987,20981,4
0,0,0,14967,10117,9500,10987,20961,4
0,0,0,14937,10106,9500,10987,21084,4
0,0,0,14967,10094,9511,10975,21022,4
0,0,0,14922,10083,9500,10963,21084,4
0,0,0,14922,10094,9511,10963,21084,4
0,0,0,14922,10094,9500,10963,21084,4
0,0,0,14967,10117,9500,10963,21146,4
0,0,0,14997,10106,9511,10975,21229,4
0,0,0,14907,10129,9511,11012,21146,4
0,0,0,14861,10117,9511,11060,21125,4
0,0,0,14861,10117,9511,11060,21839,4
0,0,0,14741,10117,9500,11109,22444,4
0,0,0,14907,10117,9488,11157,20961,4
0,0,0,14846,10117,9500,11182,21167,4
0,0,0,14846,10117,9511,11280,21711,4
0,0,0,14816,10117,9511,11304,21711,4
0,0,0,14846,10094,9511,11403,21627,4
0,0,0,14786,10117,9500,11503,20961,4
0,0,0,14801,10117,9500,11603,21458,4
0,0,0,14681,10117,9500,11590,22754,4
0,0,0,14651,10117,9511,11553,22488,4
