GyroX,GyroY,GyroZ,Thumb,Index,Middle,Ring,Pinky,Gesture
0,0,0,16109,10174,26697,40955,39160,2
0,0,0,16093,10209,26670,41000,38912,2
0,0,0,16060,10209,26697,40955,38912,2
0,0,0,16044,10209,26644,40912,38748,2
0,0,0,16028,10209,26670,40955,38830,2
0,0,0,16044,10244,26670,40824,38707,2
0,0,0,16060,10255,26644,40780,38625,2
0,0,0,16028,10255,26566,40780,38830,2
0,0,0,16060,10255,26618,40912,38666,2
0,0,0,16060,10267,26618,40955,38830,2
0,0,0,16028,10278,26644,41044,38707,2
0,0,0,15996,10290,26644,41132,38748,2
0,0,0,16060,10301,26618,40955,38748,2
0,0,0,16060,10313,26566,41044,38666,2
0,0,0,16060,10301,26592,41044,38830,2
0,0,0,16093,10301,26618,40955,38748,2
0,0,0,16093,10325,26566,41044,38666,2
0,0,0,16157,10348,26566,41044,38707,2
0,0,0,16222,10301,26566,40912,38789,2
0,0,0,16287,10325,26513,41044,38748,2
0,0,0,16287,10313,26566,41044,38748,2
0,0,0,16303,10336,26566,40868,38871,2
0,0,0,16287,10325,26566,40955,38666,2
0,0,0,16336,10325,26592,40912,38748,2
0,0,0,16385,10348,26566,40955,38748,2
0,0,0,16450,10336,26566,41044,38748,2
0,0,0,16681,10325,26592,41044,38666,2
0,0,0,16665,10313,26592,41000,38503,2
0,0,0,16681,10301,26566,41132,38585,2
0,0,0,16715,10313,26618,41088,38666,2
0,0,0,16765,10348,26618,41176,38666,2
0,0,0,16882,10313,26618,41132,38585,2
0,0,0,16848,10325,26618,41265,38544,2
0,0,0,16831,10325,26618,41265,38544,2
0,0,0,16831,10325,26566,41176,38666,2
0,0,0,16815,10313,26618,41265,38544,2
0,0,0,16748,10313,26618,41265,38544,2
0,0,0,16765,10325,26566,41132,38625,2
0,0,0,16781,10301,26618,41221,38544,2
0,0,0,16765,10325,26618,41132,38625,2
0,0,0,16765,10348,26618,41221,38666,2
0,0,0,16781,10348,26566,41088,38748,2
0,0,0,16781,10371,26618,41265,38585,2
0,0,0,16748,10371,26592,41221,38666,2
0,0,0,16748,10394,26566,41044,38625,2
0,0,0,16765,10371,26566,41176,38707,2
0,0,0,16765,10394,26618,41088,38707,2
0,0,0,16748,10371,26618,41221,38666,2
0,0,0,16781,10394,26566,41221,38830,2
0,0,0,16781,10394,26566,41176,38830,2
0,0,0,16715,10394,26539,41088,38748,2
0,0,0,16681,10371,26566,41044,38666,2
0,0,0,16748,10394,26566,41088,38830,2
0,0,0,16748,10394,26566,41088,38830,2
0,0,0,16715,10394,26592,41132,38707,2
0,0,0,16748,10406,26566,41088,38871,2
0,0,0,16781,10394,26618,41221,38748,2
0,0,0,16815,10394,26618,41088,38912,2
0,0,0,16765,10394,26618,41044,38912,2
0,0,0,16748,10394,26618,41132,38830,2
0,0,0,16765,10394,26592,41044,38912,2
0,0,0,16765,10394,26618,41044,38912,2
0,0,0,16748,10394,26618,41044,38871,2
0,0,0,16748,10394,26513,40868,38789,2
0,0,0,16831,10441,26461,40780,38789,2
0,0,0,16882,10441,26409,40780,38871,2
0,0,0,16831,10464,26409,40780,39244,2
0,0,0,16748,10488,26409,40824,39452,2
0,0,0,16698,10488,26357,40912,39663,2
0,0,0,16681,10488,26435,41399,40045,2
0,0,0,16681,10523,26409,42029,40955,2
0,0,0,16698,10535,26383,42488,41848,2
0,0,0,16715,10558,26409,42719,42395,2
0,0,0,16781,10605,26461,43235,42488,2
0,0,0,16882,10676,26566,43807,42859,2
0,0,0,16932,10700,26566,44193,43000,2
0,0,0,16949,10748,26618,44585,43235,2
0,0,0,16966,10771,26644,44585,43235,2
0,0,0,16949,10783,26566,44536,43282,2
0,0,0,16898,10771,26618,44487,43046,2
0,0,0,16915,10795,26618,44438,43000,2
0,0,0,16882,10771,26566,44291,43046,2
0,0,0,16915,10783,26566,44389,42906,2
0,0,0,16882,10783,26566,44193,42859,2
0,0,0,16882,10771,26566,44193,42673,2
0,0,0,16882,10783,26539,44291,42859,2
0,0,0,16915,10771,26513,44438,43235,2
0,0,0,16865,10795,26435,45081,43951,2
0,0,0,16831,10771,26409,45181,44242,2
0,0,0,16815,10771,26409,45382,44389,2
0,0,0,16831,10771,26383,45281,44096,2
0,0,0,16815,10771,26305,45131,43903,2
0,0,0,16815,10795,26357,45031,43807,2
0,0,0,16815,10807,26305,44981,43855,2
0,0,0,16815,10819,26305,45031,43807,2
0,0,0,16781,10795,26357,44981,43711,2
0,0,0,16781,10795,26357,44931,43711,2
0,0,0,16898,10795,26305,44832,43615,2
0,0,0,16949,10795,26305,45281,43472,2
0,0,0,16915,10771,26279,45181,43424,2
0,0,0,16882,10795,26279,45081,43424,2
0,0,0,16831,10795,26228,44832,43329,2
0,0,0,16831,10819,26228,44881,43472,2
0,0,0,16882,10795,26228,44981,43759,2
0,0,0,16798,10819,26202,44782,43855,2
0,0,0,16765,10831,26202,44881,43759,2
0,0,0,16798,10867,26253,45382,43329,2
0,0,0,16781,10915,26461,46095,43093,2
0,0,0,16715,10987,26566,46353,43093,2
0,0,0,16582,11072,26723,46770,43000,2
0,0,0,16582,11170,26935,46718,43046,2
0,0,0,16632,11206,26988,46718,43046,2
0,0,0,16565,11231,26908,46509,42906,2
0,0,0,16516,11219,26935,46509,42859,2
0,0,0,16483,11182,26829,46301,42906,2
0,0,0,16483,11206,26829,46095,42906,2
0,0,0,16401,11157,26776,46095,42766,2
0,0,0,16319,11036,26670,46198,43046,2
0,0,0,16319,10927,26513,46509,43807,2
0,0,0,16352,10879,26305,46457,44048,2
0,0,0,16368,10867,26202,46198,43903,2
0,0,0,16352,10795,26202,45992,43807,2
0,0,0,16319,10771,26150,45838,43663,2
0,0,0,16352,10819,26099,45685,43472,2
0,0,0,16417,10891,26073,45533,43235,2
0,0,0,16352,10963,25996,45281,42953,2
0,0,0,16287,10963,25945,45281,43046,2
0,0,0,16254,10963,25945,45331,43329,2
0,0,0,16238,11012,25920,45483,43046,2
0,0,0,16238,11109,26022,45281,42488,2
0,0,0,16222,11109,26022,44981,41848,2
0,0,0,16222,11109,26022,45081,41577,2
0,0,0,16222,11060,25996,45081,41667,2
0,0,0,16254,11012,25869,44881,41757,2
0,0,0,16287,10927,25742,44832,41848,2
0,0,0,16303,10867,25691,44683,41938,2
0,0,0,16336,10867,25641,44536,42029,2
0,0,0,16287,10867,25616,44585,41803,2
0,0,0,16336,10867,25591,44438,41757,2
0,0,0,16303,10903,25616,44438,41443,2
0,0,0,16287,10915,25591,44389,41622,2
0,0,0,16287,10939,25591,44193,41577,2
0,0,0,16287,10963,25591,44193,41488,2
0,0,0,16238,10975,25641,44193,41577,2
0,0,0,16189,10987,25641,44242,41443,2
0,0,0,16125,11012,25691,44242,41488,2
0,0,0,16109,11024,25742,44242,41354,2
0,0,0,16157,11024,25691,44291,41577,2
0,0,0,16157,11060,25691,44145,41488,2
0,0,0,16157,11060,25666,44193,41577,2
0,0,0,16157,11084,25691,44242,41309,2
0,0,0,16109,11096,25691,44389,41221,2
0,0,0,16076,11072,25691,44291,41309,2
0,0,0,16060,11072,25616,44242,41088,2
0,0,0,16060,11060,25641,44291,41132,2
0,0,0,15996,11109,25691,44193,41132,2
0,0,0,15932,11133,25691,44291,41132,2
0,0,0,15868,11133,25742,44389,41132,2
0,0,0,15852,11145,25767,44291,41176,2
0,0,0,15789,11157,25793,44291,41132,2
0,0,0,15773,11170,25767,44291,40912,2
0,0,0,15773,11206,25767,44291,40955,2
0,0,0,15741,11206,25742,44340,40868,2
0,0,0,15773,11206,25717,44193,40912,2
0,0,0,15773,11243,25742,44389,40912,2
0,0,0,15710,11243,25843,44487,40780,2
0,0,0,15647,11280,25869,44389,40912,2
0,0,0,15584,11304,25869,44291,40868,2
0,0,0,15553,11317,25869,44340,41044,2
0,0,0,15521,11366,25894,44340,40955,2
0,0,0,15521,11403,25894,44438,41000,2
0,0,0,15553,11465,25945,44585,41309,2
0,0,0,15553,11528,26124,44782,41622,2
0,0,0,15537,11553,26150,44782,41488,2
0,0,0,15553,11578,26305,44881,41399,2
0,0,0,15537,11553,26253,44782,41488,2
0,0,0,15537,11553,26253,44683,41399,2
0,0,0,15490,11540,26305,44782,41309,2
0,0,0,15521,11528,26253,44683,41399,2
0,0,0,15490,11528,26228,44585,41399,2
0,0,0,15490,11528,26253,44585,41221,2
0,0,0,15475,11540,26305,44683,41399,2
0,0,0,15459,11515,26305,44733,41309,2
0,0,0,15366,11578,26331,44782,41399,2
0,0,0,15350,11578,26305,44782,41221,2
0,0,0,15335,11565,26305,44585,41309,2
0,0,0,15288,11553,26357,44487,41354,2
0,0,0,15273,11553,26409,44634,41265,2
0,0,0,15335,11553,26409,44585,41309,2
0,0,0,15288,11565,26305,44536,41443,2
0,0,0,15273,11590,26331,44634,41399,2
0,0,0,15242,11603,26253,44438,41399,2
0,0,0,15211,11603,26305,44487,41221,2
0,0,0,15150,11603,26253,44389,41221,2
0,0,0,15135,11628,26202,44438,41265,2
0,0,0,15150,11678,26150,44536,41221,2
0,0,0,15119,11716,26228,44585,41265,2
0,0,0,15074,11728,26176,44389,41265,2
0,0,0,15043,11703,26202,44389,41265,2
0,0,0,15043,11728,26176,44487,41221,2
0,0,0,15013,11716,26202,44340,41221,2
0,0,0,14922,11728,26124,44291,41088,2
0,0,0,14907,11766,26202,44291,41088,2
0,0,0,14891,11779,26202,44340,41088,2
0,0,0,14876,11817,26176,44145,41132,2
0,0,0,14861,11855,26202,44242,41088,2
0,0,0,14846,11906,26202,44193,41132,2
0,0,0,14846,11919,26202,44193,41132,2
0,0,0,14801,11957,26202,44145,41176,2
0,0,0,14756,12009,26253,44096,41132,2
0,0,0,14681,12086,26228,44145,41221,2
0,0,0,14666,12124,26202,44000,41176,2
0,0,0,14607,12215,26253,44000,41399,2
0,0,0,14547,12228,26253,44000,41309,2
0,0,0,14458,12267,26202,43903,41265,2
0,0,0,14444,12293,26202,43855,41221,2
0,0,0,14458,12228,26124,43807,41132,2
0,0,0,14399,12215,26099,43903,41221,2
0,0,0,14370,12060,26073,43807,40955,2
0,0,0,14311,11804,26099,43711,41088,2
0,0,0,14268,11665,26047,43615,41044,2
0,0,0,14253,11615,25996,43615,40912,2
0,0,0,14268,11515,25996,43615,41044,2
0,0,0,14268,11428,25945,43615,40955,2
0,0,0,14253,11354,25945,43424,40955,2
0,0,0,14224,11219,25894,43472,40912,2
0,0,0,14224,11109,25869,43424,40955,2
0,0,0,14253,11048,25793,43235,40955,2
0,0,0,14224,11072,25691,43093,40736,2
0,0,0,14224,11121,25691,42953,40912,2
0,0,0,14224,11157,25641,42859,40693,2
0,0,0,14253,11170,25666,42859,40824,2
0,0,0,14238,11157,25591,42812,40693,2
0,0,0,14253,11145,25565,42812,40605,2
0,0,0,14282,11157,25540,42719,40519,2
0,0,0,14399,11170,25440,42673,40002,2
0,0,0,14429,11182,25291,42442,38912,2
0,0,0,14473,11206,25142,41848,37940,2
0,0,0,14503,11206,24970,41399,37622,2
0,0,0,14577,11231,24848,40912,36499,2
0,0,0,14726,11255,24775,40562,36310,2
0,0,0,14756,11280,24654,40346,35972,2
0,0,0,14786,11280,24534,40002,35787,2
0,0,0,14801,11280,24606,39832,36386,2
0,0,0,14846,11292,24654,39790,36614,2
0,0,0,14786,11354,24702,40045,36767,2
0,0,0,14562,11465,24727,40002,36920,2
0,0,0,14429,11515,24751,40088,37075,2
0,0,0,14282,11490,24751,40131,37075,2
0,0,0,14137,11503,24727,39874,37075,2
0,0,0,14050,11478,24702,39917,37075,2
0,0,0,14021,11465,24654,39874,36920,2
0,0,0,14021,11453,24678,40002,36959,2
0,0,0,13921,11416,24702,39917,36998,2
0,0,0,13921,11403,24630,39832,37075,2
0,0,0,13906,11403,24702,39832,36998,2
0,0,0,13949,11403,24702,39832,37075,2
0,0,0,13964,11428,24751,39832,37152,2
0,0,0,14108,11453,24727,39832,36998,2
0,0,0,14311,11503,24702,39874,37152,2
0,0,0,14518,11578,24775,39832,36998,2
0,0,0,14846,11754,24727,39578,37036,2
0,0,0,15150,11932,24799,39663,37308,2
0,0,0,15058,11957,24727,39663,37191,2
0,0,0,14876,11970,24702,39536,37230,2
0,0,0,14696,11919,24702,39369,37152,2
0,0,0,14547,11754,24654,39494,37075,2
0,0,0,14503,11503,24582,39369,37075,2
0,0,0,14488,11280,24558,39369,36998,2
0,0,0,14444,11157,24510,39327,36959,2
0,0,0,14429,11036,24462,39327,36843,2
0,0,0,14399,10915,24414,39244,36843,2
0,0,0,14399,10915,24366,39077,36843,2
0,0,0,14429,10879,24342,39160,36805,2
0,0,0,14488,10879,24318,39036,36843,2
0,0,0,14488,10963,24318,39036,36805,2
0,0,0,14547,10963,24318,39077,36767,2
0,0,0,14681,11084,24271,38995,36882,2
0,0,0,14861,11157,24294,39077,37230,2
0,0,0,14876,11182,24271,39160,37191,2
0,0,0,14816,11170,24247,39036,37308,2
0,0,0,14786,11194,24223,38912,37386,2
0,0,0,14786,11231,24223,38995,37269,2
0,0,0,14741,11255,24223,38871,37308,2
0,0,0,14786,11329,24223,38995,37426,2
0,0,0,14726,11354,24223,38995,37386,2
0,0,0,14726,11304,24223,38995,37308,2
0,0,0,14726,11354,24223,38912,37230,2
0,0,0,14726,11379,24247,38830,37230,2
0,0,0,14726,11453,24223,38912,37075,2
0,0,0,14666,11416,24223,38995,37114,2
0,0,0,14666,11453,24223,38953,37075,2
0,0,0,14681,11453,24247,38871,37075,2
0,0,0,14666,11465,24223,38995,36998,2
0,0,0,14681,11478,24271,38953,37075,2
0,0,0,14636,11528,24318,38912,36959,2
0,0,0,14636,11603,24318,38995,37036,2
0,0,0,14621,11615,24414,39077,37036,2
0,0,0,14607,11653,24414,39077,36920,2
0,0,0,14592,11691,24414,38995,36998,2
0,0,0,14592,11716,24414,38995,36959,2
0,0,0,14562,11716,24414,38995,36959,2
0,0,0,14547,11804,24390,38953,36920,2
0,0,0,14562,11792,24342,38830,37036,2
0,0,0,14547,11830,24390,38953,36920,2
0,0,0,14532,11855,24438,38912,36843,2
0,0,0,14547,11868,24414,38912,36998,2
0,0,0,14518,11881,24438,38912,36920,2
0,0,0,14547,11906,24462,38995,36805,2
0,0,0,14518,11906,24414,39036,36882,2
0,0,0,14547,11906,24462,38912,36920,2
0,0,0,14488,11906,24462,39036,36767,2
0,0,0,14518,11932,24462,39036,36843,2
0,0,0,14518,11906,24462,38995,36920,2
0,0,0,14518,11906,24438,38953,36767,2
0,0,0,14503,11919,24414,38995,36843,2
0,0,0,14503,11932,24438,38912,36843,2
0,0,0,14532,11906,24414,38912,36920,2
0,0,0,14503,11919,24414,38912,36767,2
0,0,0,14444,11906,24414,38871,36843,2
0,0,0,14399,11881,24390,38912,36690,2
0,0,0,14429,11881,24366,38871,36614,2
0,0,0,14444,11881,24366,38871,36728,2
0,0,0,14458,11868,24247,38748,36614,2
0,0,0,14444,11804,24199,38585,36499,2
0,0,0,14473,11615,24034,38382,36047,2
0,0,0,14562,11440,23800,38220,35639,2
0,0,0,14771,11255,23707,38019,35345,2
0,0,0,15089,11072,23615,37820,35199,2
0,0,0,15366,10963,23546,37741,35127,2
0,0,0,15584,10867,23477,37583,35199,2
0,0,0,15900,10819,23385,37465,35309,2
0,0,0,16093,10771,23339,37308,35345,2
0,0,0,16254,10724,23135,37075,35272,2
0,0,0,16222,10688,23112,36998,35163,2
0,0,0,16125,10629,23157,36998,35272,2
0,0,0,15932,10653,23112,36920,35127,2
0,0,0,15521,10676,22977,36767,34982,2
0,0,0,15211,10700,22910,36767,35018,2
0,0,0,15150,10724,22865,36843,34910,2
0,0,0,15273,10748,22843,36843,34910,2
0,0,0,15852,10748,22910,36805,34839,2
0,0,0,17033,10795,22955,36843,34982,2
0,0,0,17306,10819,22910,36843,35055,2
0,0,0,17220,10819,22932,36767,35055,2
0,0,0,17084,10867,22910,36843,35055,2
0,0,0,16949,10867,22887,36843,34910,2
0,0,0,16949,10867,22887,36959,34982,2
0,0,0,17033,10915,22910,36920,35018,2
0,0,0,17152,10915,22932,37036,35018,2
0,0,0,17152,10963,22955,37114,35018,2
0,0,0,17152,10975,22977,37075,35055,2
0,0,0,17152,11012,22955,36998,35055,2
0,0,0,17135,11024,22932,36998,35055,2
0,0,0,17220,11036,22932,37036,35055,2
0,0,0,17306,11060,22999,37114,34982,2
0,0,0,17426,11084,22932,37075,35091,2
0,0,0,17409,11109,22955,37230,34982,2
0,0,0,17374,11084,22977,37230,34946,2
0,0,0,17392,11109,22910,37269,35018,2
0,0,0,17426,11109,22955,37269,34910,2
0,0,0,17374,11096,22932,37269,34839,2
0,0,0,17357,11109,22932,37230,34839,2
0,0,0,17357,11109,22910,37230,34839,2
0,0,0,17357,11109,22932,37308,34910,2
0,0,0,17306,11084,22910,37308,34874,2
0,0,0,17323,11060,22887,37386,34839,2
0,0,0,17323,11072,22910,37308,34803,2
0,0,0,17306,11060,22865,37308,34767,2
0,0,0,17323,11036,22820,37230,34696,2
0,0,0,17289,11072,22843,37036,34624,2
0,0,0,17289,11084,22754,37075,34624,2
0,0,0,17254,11109,22754,37036,34306,2
0,0,0,17237,11133,22709,37152,34200,2
0,0,0,17323,11157,22665,37075,34306,2
0,0,0,17426,11280,22709,37426,36047,2
0,0,0,17634,11403,22798,38100,37504,2
0,0,0,17669,11403,22932,38585,37860,2
0,0,0,17704,11391,23044,38503,37741,2
0,0,0,17617,11403,23180,38341,37504,2
0,0,0,17582,11416,23203,38180,37504,2
0,0,0,17461,11428,23203,38220,37504,2
0,0,0,17426,11453,23203,38220,37347,2
0,0,0,17323,11428,23203,38180,37308,2
0,0,0,17289,11428,23157,38019,37269,2
0,0,0,17272,11403,23180,38019,37230,2
0,0,0,17237,11416,23157,38100,37386,2
0,0,0,17237,11379,23157,37940,37230,2
0,0,0,17220,11391,23135,38019,37308,2
0,0,0,17186,11379,23203,37980,37347,2
0,0,0,17220,11379,23090,37820,37622,2
0,0,0,17186,11379,23090,37741,38585,2
0,0,0,17186,11403,23022,37543,39160,2
0,0,0,17152,11403,22932,37347,39244,2
0,0,0,17084,11366,22887,37465,39327,2
0,0,0,17084,11379,22843,37543,39077,2
0,0,0,17101,11403,22754,37543,38625,2
0,0,0,17118,11403,22665,37504,37543,2
0,0,0,17084,11416,22621,37583,37075,2
0,0,0,16949,11453,22621,37900,36576,2
0,0,0,16748,11478,22665,37940,36197,2
0,0,0,16632,11503,22621,38019,35861,2
0,0,0,16549,11503,22599,37940,35712,2
0,0,0,16417,11478,22599,38059,35492,2
0,0,0,16303,11503,22599,38019,35492,2
0,0,0,16222,11528,22665,37860,35418,2
0,0,0,16093,11528,22665,37781,35309,2
0,0,0,16093,11453,22621,37622,35309,2
0,0,0,16060,11280,22621,37583,35272,2
0,0,0,16060,11182,22576,37426,35199,2
0,0,0,16060,11157,22643,37543,35127,2
0,0,0,16028,11121,22576,37426,35272,2
0,0,0,15980,11109,22665,37426,35639,2
0,0,0,15964,11109,22709,37622,35824,2
0,0,0,16028,11109,22709,37543,35749,2
0,0,0,16060,11157,22665,37465,35639,2
0,0,0,16093,11194,22754,37465,35712,2
0,0,0,16125,11182,22776,37543,35565,2
0,0,0,16125,11157,22776,37465,35602,2
0,0,0,16287,11084,22798,37308,35492,2
0,0,0,16368,11048,22865,37230,35676,2
0,0,0,16417,11024,22843,36998,35935,2
0,0,0,16417,11012,22843,36998,36010,2
0,0,0,16287,11036,22798,36920,35824,2
0,0,0,16222,11060,22843,36959,35861,2
0,0,0,16189,11084,22798,36998,36010,2
0,0,0,16173,11084,22798,36998,35861,2
0,0,0,16093,11109,22843,37075,35861,2
0,0,0,16060,11109,22865,37075,36010,2
0,0,0,15964,11109,22798,37075,35898,2
0,0,0,15884,11096,22754,36998,35935,2
0,0,0,15852,11109,22754,37075,36085,2
0,0,0,15837,11157,22754,37114,36235,2
0,0,0,15789,11206,22687,36920,36160,2
0,0,0,15773,11219,22621,36920,36160,2
0,0,0,15837,11317,22532,36882,36160,2
0,0,0,15900,11379,22488,36920,35163,2
0,0,0,15900,11403,22423,36920,34767,2
0,0,0,15900,11440,22401,36920,35163,2
0,0,0,15837,11453,22444,36920,35418,2
0,0,0,15789,11478,22444,36959,35309,2
0,0,0,15789,11553,22488,36920,35272,2
0,0,0,15837,11578,22488,36920,35272,2
0,0,0,15868,11590,22510,36959,35199,2
0,0,0,15900,11590,22488,37075,35309,2
0,0,0,15868,11653,22532,37075,35345,2
0,0,0,15852,11754,22576,37152,35236,2
0,0,0,15789,11830,22576,37152,35272,2
0,0,0,15741,11906,22576,37230,35272,2
0,0,0,15726,11881,22687,37152,35309,2
0,0,0,15710,11906,22687,37114,35236,2
0,0,0,15710,11932,22731,37230,35272,2
0,0,0,15678,11983,22709,37114,35272,2
0,0,0,15805,12047,22709,37191,35236,2
0,0,0,15900,12060,22709,37269,35272,2
0,0,0,15868,12060,22754,37230,35309,2
0,0,0,15852,12060,22709,37230,35272,2
0,0,0,15837,12034,22754,37269,35272,2
0,0,0,16028,12009,22843,37308,35309,2
0,0,0,16109,12009,22932,37386,35272,2
0,0,0,16157,12112,23022,37386,35345,2
0,0,0,16287,12086,23112,37543,35345,2
0,0,0,16254,12060,23135,37622,35418,2
0,0,0,16303,12021,23135,37662,35345,2
0,0,0,16450,12034,23203,37741,35565,2
0,0,0,16516,12112,23203,37820,35565,2
0,0,0,16632,12137,23203,37940,35639,2
0,0,0,16715,12112,23248,37940,35565,2
0,0,0,16831,12124,23225,37940,35639,2
0,0,0,16831,12137,23248,38019,35749,2
0,0,0,16681,12163,23248,38180,35712,2
0,0,0,16648,12124,23294,38180,35935,2
0,0,0,16532,12176,23316,38180,36085,2
0,0,0,16549,12267,23385,38341,36122,2
0,0,0,16499,12320,23477,38503,36085,2
0,0,0,16483,12293,23477,38503,36160,2
0,0,0,16401,12228,23454,38544,36160,2
0,0,0,16303,12189,23477,38463,36160,2
0,0,0,16238,12163,23569,38666,36160,2
0,0,0,16093,12202,23777,38995,36499,2
0,0,0,15980,12556,24152,40002,37114,2
0,0,0,15710,12690,24462,40389,37741,2
0,0,0,15568,12797,24824,40519,37860,2
0,0,0,15397,12918,25093,40868,37860,2
0,0,0,15211,13371,25591,41088,37940,2
0,0,0,15058,13580,25691,41132,38140,2
0,0,0,15013,13524,25591,41176,37860,2
0,0,0,15028,13566,25515,40868,37583,2
0,0,0,15028,13580,25515,40736,37269,2
0,0,0,15028,13454,25440,40736,37075,2
0,0,0,15043,13246,25192,40605,37152,2
0,0,0,14997,12851,25019,40693,37075,2
0,0,0,14907,12424,24897,40693,36959,2
0,0,0,14922,11804,24727,40519,37075,2
0,0,0,14967,11268,24534,40045,36843,2
0,0,0,14997,10963,24129,39705,36728,2
0,0,0,15013,10879,23894,39327,35602,2
0,0,0,14967,10831,23754,39036,35565,2
0,0,0,14967,10843,23661,38912,35492,2
0,0,0,14922,10867,23615,38789,35272,2
0,0,0,14922,10843,23569,38666,35382,2
0,0,0,14907,10843,23546,38544,35418,2
0,0,0,14756,10819,23569,38503,35345,2
0,0,0,14636,10867,23661,38463,35345,2
0,0,0,14488,10879,23964,38748,35712,2
0,0,0,14195,10915,24558,39578,36614,2
0,0,0,13906,11060,25641,41577,40519,2
0,0,0,13735,11478,27418,44585,43519,2
0,0,0,13693,11906,28357,46405,42953,2
0,0,0,13707,12241,28955,46146,42075,2
0,0,0,13650,12530,28984,44782,40475,2
0,0,0,13580,12490,28812,44242,37622,2
0,0,0,13232,12451,28927,44242,36920,2
0,0,0,12215,12424,28783,44048,38180,2
0,0,0,12215,12530,28583,44145,37900,2
0,0,0,11830,12649,28442,44683,38059,2
0,0,0,11754,12690,28357,45181,38140,2
0,0,0,11906,12690,28301,45331,38220,2
0,0,0,12021,12690,28189,45584,38422,2
0,0,0,12060,12649,28077,45635,38260,2
0,0,0,12163,12372,27856,45432,38059,2
0,0,0,12346,12163,27636,45231,37940,2
0,0,0,12730,11817,27472,45031,37543,2
0,0,0,12878,11366,27148,44683,37308,2
0,0,0,12905,11012,27068,44389,37075,2
0,0,0,12932,10843,26961,43951,36920,2
0,0,0,12918,10759,26829,43663,36920,2
0,0,0,12918,10676,26749,43519,36843,2
0,0,0,12959,10511,26513,43329,36690,2
0,0,0,12986,10394,26305,42906,36728,2
0,0,0,13122,10325,26150,42626,36614,2
0,0,0,13177,10336,25996,42488,36386,2
0,0,0,13315,10313,25894,42212,36197,2
0,0,0,13412,10301,25793,41938,35199,2
0,0,0,13496,10301,25591,41757,34803,2
0,0,0,13510,10301,25515,41577,34696,2
0,0,0,13510,10301,25440,41577,34767,2
0,0,0,13482,10325,25440,41667,34660,2
0,0,0,13426,10325,25440,41488,34624,2
0,0,0,13412,10325,25465,41399,34482,2
0,0,0,13398,10371,25565,41399,34482,2
0,0,0,13371,10359,25515,41309,34341,2
0,0,0,13371,10371,25440,41176,34447,2
0,0,0,13371,10359,25490,41265,34341,2
0,0,0,13384,10371,25490,41265,34341,2
0,0,0,13371,10394,25540,41221,34271,2
0,0,0,13343,10406,25515,41044,34271,2
0,0,0,13343,10418,25465,41132,34200,2
0,0,0,13357,10394,25490,41088,34341,2
0,0,0,13315,10418,25515,41132,34200,2
0,0,0,13287,10441,25515,41044,34271,2
0,0,0,13287,10418,25490,41088,34200,2
0,0,0,13260,10441,25490,41088,34271,2
0,0,0,13260,10453,25490,40955,34306,2
0,0,0,13287,10453,25490,40955,34306,2
0,0,0,13260,10464,25515,41044,34271,2
0,0,0,13246,10453,25515,41044,34271,2
0,0,0,13232,10488,25540,41088,34200,2
0,0,0,13232,10511,25515,40955,34165,2
0,0,0,13232,10511,25490,40955,34200,2
0,0,0,13232,10535,25540,41000,34200,2
0,0,0,13232,10535,25540,40912,34200,2
0,0,0,13205,10546,25540,40868,34200,2
0,0,0,13232,10535,25540,40912,34200,2
0,0,0,13232,10546,25540,40955,34130,2
0,0,0,13205,10546,25490,40868,34165,2
0,0,0,13205,10535,25515,40868,34200,2
0,0,0,13218,10546,25490,40780,34165,2
0,0,0,13177,10582,25540,40868,34130,2
0,0,0,13205,10582,25515,40824,34130,2
0,0,0,13232,10629,25591,40780,34271,2
0,0,0,13287,10629,25591,40868,34271,2
0,0,0,13398,10653,25565,40868,34165,2
0,0,0,13468,10629,25515,40824,34200,2
0,0,0,13524,10629,25440,40824,34060,2
0,0,0,13538,10582,25490,40868,34026,2
0,0,0,13594,10594,25515,40824,33887,2
0,0,0,13792,10605,25490,40780,33991,2
0,0,0,13935,10629,25591,40605,34095,2
0,0,0,14036,10676,25591,40780,34235,2
0,0,0,14166,10748,25515,40693,34026,2
0,0,0,14195,10795,25616,40780,33991,2
0,0,0,14253,10867,25691,40868,34341,2
0,0,0,14429,10939,25996,41399,34839,2
0,0,0,14503,10987,26099,41577,35127,2
0,0,0,14488,11012,26099,41533,35272,2
0,0,0,14503,11060,26047,41622,35199,2
0,0,0,14547,11157,25945,41803,35236,2
0,0,0,14444,11231,25996,41712,35455,2
0,0,0,14399,11354,25920,41622,35492,2
0,0,0,14385,11416,25843,41399,35345,2
0,0,0,14399,11416,25793,41265,35127,2
0,0,0,14429,11416,25793,41221,35018,2
0,0,0,14429,11403,25691,41221,35272,2
0,0,0,14429,11391,25691,41265,35127,2
0,0,0,14518,11379,25641,41265,34271,2
0,0,0,14518,11403,25591,41221,34306,2
0,0,0,14577,11416,25591,41221,34130,2
0,0,0,14577,11379,25515,41399,34026,2
0,0,0,14607,11366,25540,41265,33887,2
0,0,0,14607,11317,25490,41265,33783,2
0,0,0,14577,11280,25490,41265,33783,2
0,0,0,14562,11268,25415,41132,33748,2
0,0,0,14547,11304,25490,41044,33645,2
0,0,0,14518,11304,25440,41044,33645,2
0,0,0,14518,11304,25440,40955,33645,2
0,0,0,14518,11317,25390,40955,33576,2
0,0,0,14488,11317,25415,40868,33645,2
0,0,0,14488,11317,25440,41044,33611,2
0,0,0,14488,11329,25440,40912,33576,2
0,0,0,14503,11354,25390,40955,33611,2
0,0,0,14488,11379,25390,40912,33645,2
0,0,0,14488,11379,25390,40868,33576,2
0,0,0,14488,11453,25415,40912,33542,2
0,0,0,14458,11465,25440,40955,33611,2
0,0,0,14488,11503,25390,40955,33645,2
0,0,0,14488,11528,25440,40868,33645,2
0,0,0,14488,11528,25365,40868,33611,2
0,0,0,14473,11553,25440,40955,33576,2
0,0,0,14488,11540,25390,40780,33611,2
0,0,0,14444,11565,25390,40780,33508,2
0,0,0,14488,11578,25390,40868,33576,2
0,0,0,14444,11603,25390,40912,33576,2
0,0,0,14473,11603,25415,40736,33611,2
0,0,0,14444,11578,25365,40780,33645,2
0,0,0,14488,11578,25390,40780,33576,2
0,0,0,14666,11578,25390,40824,33542,2
0,0,0,14831,11565,25390,40868,33645,2
0,0,0,14922,11553,25316,40780,33611,2
0,0,0,14937,11553,25341,40868,33645,2
0,0,0,14937,11553,25316,40868,33714,2
0,0,0,14861,11553,25291,40780,33714,2
0,0,0,14831,11553,25291,40824,33714,2
0,0,0,14786,11553,25266,40780,33714,2
0,0,0,14756,11553,25266,40868,33714,2
0,0,0,14711,11528,25241,40868,33576,2
0,0,0,14666,11553,25216,40912,33576,2
0,0,0,14607,11528,25192,40736,33645,2
0,0,0,14577,11553,25216,40868,33576,2
0,0,0,14577,11565,25192,40868,33576,2
0,0,0,14547,11553,25216,40912,33576,2
0,0,0,14503,11553,25216,40868,33611,2
0,0,0,14429,11553,25192,40780,33645,2
0,0,0,14370,11515,25291,40912,33783,2
0,0,0,14253,11428,25291,41000,33852,2
0,0,0,14166,11304,25241,41000,33852,2
0,0,0,14021,11231,25266,41044,33991,2
0,0,0,13863,11206,25266,41088,33991,2
0,0,0,13735,11170,25216,41044,34165,2
0,0,0,13566,11157,25216,41044,34482,2
0,0,0,13412,11133,25291,41577,35127,2
0,0,0,13205,11072,25490,42906,36767,2
0,0,0,12972,11072,25691,44000,37741,2
0,0,0,12810,11084,25818,44881,39917,2
0,0,0,12690,11109,26202,45584,41088,2
0,0,0,12690,11157,26331,45131,41757,2
0,0,0,12770,11255,26566,44881,41667,2
0,0,0,12959,11304,26644,44683,41757,2
0,0,0,13412,11515,26723,44487,41577,2
0,0,0,14180,11728,26935,44145,41309,2
0,0,0,14666,11932,26961,44096,40519,2
0,0,0,14846,12073,26961,43951,40302,2
0,0,0,14666,11957,26882,44048,40173,2
0,0,0,14079,11553,26670,44438,40824,2
0,0,0,13566,11060,26253,44291,40693,2
0,0,0,13343,10831,26047,44048,40475,2
0,0,0,13232,10688,25971,43807,40259,2
0,0,0,13177,10641,25818,43663,40045,2
0,0,0,13136,10629,25793,43519,39832,2
0,0,0,13054,10605,25742,43282,39705,2
0,0,0,12972,10594,25717,43093,39663,2
0,0,0,12918,10594,25793,43093,39494,2
0,0,0,12891,10558,25894,43140,39790,2
0,0,0,12851,10535,25996,43093,39917,2
0,0,0,12797,10511,26073,43140,40088,2
0,0,0,12716,10511,26124,43519,40002,2
0,0,0,12663,10546,26305,44145,40259,2
0,0,0,12690,10594,26253,44193,40346,2
0,0,0,12770,10629,26099,44096,40088,2
0,0,0,12797,10676,25996,43855,40002,2
0,0,0,12905,10724,25971,44000,40088,2
0,0,0,12959,10724,25971,43855,39960,2
0,0,0,13027,10724,26022,43855,39747,2
0,0,0,13081,10736,25996,43663,39874,2
0,0,0,13136,10724,25945,43759,39874,2
0,0,0,13163,10724,25945,43615,39832,2
0,0,0,13150,10712,25945,43519,39663,2
0,0,0,13136,10712,26022,43519,39663,2
0,0,0,13205,10724,25996,43472,39747,2
0,0,0,13232,10748,25996,43663,39578,2
0,0,0,13287,10748,26047,43615,39621,2
0,0,0,13260,10748,26022,43567,39705,2
0,0,0,13343,10783,25996,43615,39621,2
0,0,0,13412,10795,25996,43424,39663,2
0,0,0,13454,10819,25996,43519,39578,2
0,0,0,13510,10819,25920,43424,39494,2
0,0,0,13580,10819,25945,43472,39494,2
0,0,0,13622,10867,25894,43424,39411,2
0,0,0,13679,10867,25971,43329,39494,2
0,0,0,13693,10867,25996,43424,39578,2
0,0,0,13749,10915,25971,43377,39663,2
0,0,0,13821,10915,25996,43424,39621,2
0,0,0,13878,10915,25945,43424,39705,2
0,0,0,13863,10927,25945,43329,39747,2
0,0,0,13906,10939,25920,43282,39578,2
0,0,0,13949,10963,25945,43329,39578,2
0,0,0,13964,10963,25996,43377,39494,2
0,0,0,13978,10987,25945,43329,39536,2
0,0,0,14021,10975,25920,43329,39452,2
0,0,0,14050,10987,25945,43282,39494,2
0,0,0,14079,11012,25920,43329,39536,2
0,0,0,14137,11012,25920,43235,39578,2
0,0,0,14238,11072,25894,43329,39411,2
0,0,0,14370,11084,25818,43140,39369,2
0,0,0,14636,11133,25742,42906,38830,2
0,0,0,14801,11157,25490,42488,38544,2
0,0,0,14967,11182,25316,42120,38100,2
0,0,0,15119,11194,25118,41848,37347,2
0,0,0,15181,11206,25093,41622,37230,2
0,0,0,15181,11206,24946,41354,36767,2
0,0,0,15242,11219,24799,41088,36085,2
0,0,0,15273,11231,24606,40649,35309,2
0,0,0,15288,11219,24438,40346,33852,2
0,0,0,15350,11255,24318,40002,33508,2
0,0,0,15366,11231,24223,39705,33371,2
0,0,0,15397,11219,24081,39663,33405,2
0,0,0,15475,11219,23987,39494,33303,2
0,0,0,15584,11219,23847,39411,32932,2
0,0,0,15647,11243,23847,39369,32599,2
0,0,0,15678,11255,23800,39327,32533,2
0,0,0,15615,11255,23754,39160,32467,2
0,0,0,15506,11268,23800,39160,32435,2
0,0,0,15288,11292,23800,39244,32271,2
0,0,0,15150,11304,23800,39077,32173,2
0,0,0,15089,11304,23847,39119,32173,2
0,0,0,15074,11317,23847,39160,32108,2
0,0,0,15028,11329,23847,39160,32043,2
0,0,0,15013,11206,23824,39077,32043,2
0,0,0,15074,10963,23730,38830,32108,2
0,0,0,15074,10927,23661,38666,32108,2
0,0,0,15074,10915,23661,38666,31978,2
0,0,0,15058,10927,23661,38503,31978,2
0,0,0,15089,10939,23638,38382,32043,2
0,0,0,15058,10963,23684,38341,31978,2
0,0,0,15043,10963,23569,38220,32010,2
0,0,0,14997,10987,23638,38220,32108,2
0,0,0,14982,11012,23661,38301,32108,2
0,0,0,14967,10975,23661,38220,32435,2
0,0,0,14922,10891,23707,38220,32666,2
0,0,0,14846,10783,23754,38100,32633,2
0,0,0,14801,10748,23824,38019,32832,2
0,0,0,14801,10724,23777,37940,32832,2
0,0,0,14801,10724,23754,37820,32765,2
0,0,0,14801,10748,23754,37860,32699,2
0,0,0,14907,10795,23707,37741,32765,2
0,0,0,14997,10831,23661,37583,32699,2
0,0,0,15135,10879,23661,37465,32633,2
0,0,0,15150,10915,23569,37426,32666,2
0,0,0,15150,10879,23522,37386,32566,2
0,0,0,15119,10843,23569,37308,32599,2
0,0,0,15089,10819,23546,37347,32566,2
0,0,0,15089,10771,23661,37230,32500,2
0,0,0,15119,10771,23661,37152,32566,2
0,0,0,15150,10748,23661,37152,32566,2
0,0,0,15119,10748,23661,36998,32566,2
0,0,0,15104,10748,23661,36959,32500,2
0,0,0,15150,10783,23661,36959,32533,2
0,0,0,15150,10831,23707,36998,32566,2
0,0,0,15288,10867,23777,36882,32435,2
0,0,0,15335,10867,23847,36882,32500,2
0,0,0,15273,10927,23800,36920,32500,2
0,0,0,15258,10963,23777,36767,32467,2
0,0,0,15227,10963,23800,36767,32467,2
0,0,0,15211,10963,23707,36767,32566,2
0,0,0,15211,10963,23754,36690,32599,2
0,0,0,15273,10963,23800,36843,32699,2
0,0,0,15288,10987,23847,36805,32799,2
0,0,0,15273,10987,23847,36690,32765,2
0,0,0,15273,10987,23777,36614,32732,2
0,0,0,15288,11024,23754,36690,32832,2
0,0,0,15273,10987,23824,36690,32765,2
0,0,0,15273,10975,23777,36614,32633,2
0,0,0,15335,10987,23754,36538,32699,2
0,0,0,15304,10963,23754,36499,32633,2
0,0,0,15288,10999,23707,36462,32633,2
0,0,0,15335,11012,23730,36386,32765,2
0,0,0,15335,11024,23754,36424,32633,2
0,0,0,15397,11060,23707,36386,32666,2
0,0,0,15366,11084,23684,36310,32765,2
0,0,0,15196,11109,23661,36348,32533,2
0,0,0,15058,11109,23615,36310,32633,2
0,0,0,15058,11109,23569,36235,32699,2
0,0,0,15150,11084,23569,36235,32533,2
0,0,0,15273,11084,23546,36235,32633,2
0,0,0,15350,11084,23522,36197,32599,2
0,0,0,15335,11084,23477,36235,32699,2
0,0,0,15366,11084,23477,36160,32500,2
0,0,0,15335,11084,23499,36235,32566,2
0,0,0,15366,11072,23477,36122,32566,2
0,0,0,15412,11109,23477,36122,32566,2
0,0,0,15443,11121,23546,36160,32500,2
0,0,0,15459,11157,23522,36160,32599,2
0,0,0,15459,11109,23522,36085,32500,2
0,0,0,15459,11121,23477,36160,32533,2
0,0,0,15459,11109,23477,36197,32533,2
0,0,0,15475,11133,23477,36085,32500,2
0,0,0,15490,11133,23569,36160,32633,2
0,0,0,15459,11133,23569,36160,32500,2
0,0,0,15428,11109,23569,36160,32500,2
0,0,0,15397,11109,23522,36047,32533,2
0,0,0,15412,11072,23477,36160,32566,2
0,0,0,15459,11060,23499,36160,32599,2
0,0,0,15428,11072,23477,36085,32500,2
0,0,0,15428,11072,23477,36160,32500,2
0,0,0,15412,11060,23477,36160,32500,2
0,0,0,15428,11072,23431,36160,32500,2
0,0,0,15443,11084,23477,36160,32435,2
0,0,0,15459,11072,23477,36122,32500,2
0,0,0,15443,11072,23477,36160,32500,2
0,0,0,15412,11060,23454,36085,32566,2
0,0,0,15459,11072,23477,36160,32435,2
0,0,0,15459,11060,23431,36160,32500,2
0,0,0,15428,11084,23477,36160,32500,2
0,0,0,15459,11084,23477,36160,32533,2
0,0,0,15428,11084,23431,36197,32402,2
0,0,0,15459,11084,23431,36235,32369,2
0,0,0,15459,11084,23431,36160,32500,2
0,0,0,15459,11084,23477,36197,32533,2
0,0,0,15428,11109,23477,36160,32435,2
0,0,0,15428,11109,23477,36235,32500,2
0,0,0,15412,11121,23431,36197,32500,2
0,0,0,15412,11109,23431,36160,32500,2
0,0,0,15428,11133,23431,36160,32500,2
0,0,0,15428,11109,23431,36197,32402,2
0,0,0,15412,11121,23431,36235,32435,2
0,0,0,15397,11121,23431,36272,32402,2
0,0,0,15428,11133,23431,36160,32402,2
0,0,0,15412,11157,23431,36160,32402,2
0,0,0,15397,11182,23431,36160,32435,2
0,0,0,15397,11182,23431,36160,32500,2
0,0,0,15350,11206,23431,36122,32500,2
0,0,0,15412,11182,23431,36160,32500,2
0,0,0,15412,11182,23385,36160,32500,2
0,0,0,15366,11170,23431,36160,32500,2
0,0,0,15397,11170,23385,36160,32435,2
0,0,0,15397,11157,23431,36160,32500,2
0,0,0,15584,11157,23431,36197,32369,2
0,0,0,15726,11194,23431,36160,32336,2
0,0,0,15916,11157,23431,36235,32402,2
0,0,0,16157,11084,23431,36235,32369,2
0,0,0,16189,11060,23385,36197,32369,2
0,0,0,16368,11036,23362,36160,32369,2
0,0,0,17016,10999,23294,36272,32402,2
0,0,0,17426,11012,23203,36160,32500,2
0,0,0,17669,11012,23203,36272,32566,2
0,0,0,17669,10987,23112,36614,32932,2
0,0,0,17461,10987,23044,37075,33337,2
0,0,0,17237,10939,22977,37114,33168,2
0,0,0,17101,10867,22932,36998,33134,2
0,0,0,17016,10795,22843,36920,33033,2
0,0,0,16966,10748,22665,36690,32932,2
0,0,0,16915,10724,22599,36348,32832,2
0,0,0,16831,10700,22554,36310,32765,2
0,0,0,16815,10700,22532,36348,32699,2
0,0,0,16748,10724,22510,36310,32699,2
0,0,0,16665,10724,22532,36538,32633,2
0,0,0,16549,10748,22510,36690,32765,2
0,0,0,16483,10748,22532,36690,32832,2
0,0,0,16417,10759,22532,36576,32899,2
0,0,0,16254,10795,22687,36843,33439,2
0,0,0,16060,10819,23112,37269,34482,2
0,0,0,15837,10867,23569,37820,35345,2
0,0,0,15678,10915,24034,38100,35861,2
0,0,0,15615,10987,24414,38260,36085,2
0,0,0,15600,10987,24510,38180,35712,2
0,0,0,15600,10963,24510,38059,35055,2
0,0,0,15521,10963,24510,37940,34982,2
0,0,0,15397,10963,24606,37980,34767,2
0,0,0,15350,10987,24654,37940,34696,2
0,0,0,15288,11012,24751,38180,34767,2
0,0,0,15273,11036,24824,38019,34839,2
0,0,0,15242,11036,24873,38180,34589,2
0,0,0,15242,11024,24799,38544,33852,2
0,0,0,15242,11024,24848,38830,33303,2
0,0,0,15196,11024,24799,38707,33303,2
0,0,0,15135,11036,24873,38585,33100,2
0,0,0,15089,11036,24799,38625,33202,2
0,0,0,15028,11012,24799,38544,33371,2
0,0,0,14937,10987,24799,38422,33405,2
0,0,0,14891,10963,24946,38503,33576,2
0,0,0,14786,10963,24946,38585,33645,2
0,0,0,14786,10963,24897,38503,33852,2
0,0,0,14756,10975,24946,38585,33852,2
0,0,0,14696,11012,24897,38666,34026,2
0,0,0,14621,11012,24848,38666,34341,2
0,0,0,14518,11060,24848,38748,35055,2
0,0,0,14311,11024,25044,39244,36728,2
0,0,0,14064,10999,25291,39536,39327,2
0,0,0,13735,10963,25291,39663,39790,2
0,0,0,13398,10855,25192,39244,40002,2
0,0,0,13122,10795,24921,37940,38830,2
0,0,0,12959,10783,24702,37543,37900,2
0,0,0,12905,10748,24727,37662,37386,2
0,0,0,12824,10724,24727,37386,36160,2
0,0,0,12770,10700,24751,36538,34589,2
0,0,0,12690,10653,24654,35787,33303,2
0,0,0,12583,10629,24414,34731,32108,2
0,0,0,12477,10629,24223,33783,30715,2
0,0,0,12346,10629,24034,33100,30015,2
0,0,0,12241,10582,23894,32765,29955,2
0,0,0,12086,10582,23870,32666,30015,2
0,0,0,12060,10558,23824,32666,30226,2
0,0,0,12009,10535,23777,32599,30226,2
0,0,0,12009,10488,23754,32633,30286,2
0,0,0,12060,10441,23754,32566,30286,2
0,0,0,12112,10313,23707,32500,30286,2
0,0,0,12137,10209,23569,32238,30286,2
0,0,0,12163,10140,23522,32043,30015,2
0,0,0,12124,10117,23431,31913,30015,2
0,0,0,12163,10117,23431,31946,30105,2
0,0,0,12189,10094,23339,31785,30377,2
0,0,0,12176,10117,23248,31720,30469,2
0,0,0,12189,10094,23203,31497,30286,2
0,0,0,12163,10117,23135,31465,30286,2
0,0,0,12124,10117,23135,31339,30347,2
0,0,0,12112,10117,23157,31339,30408,2
0,0,0,12112,10117,23112,31402,30469,2
0,0,0,12112,10117,23112,31497,30776,2
0,0,0,12137,10117,23112,31370,30745,2
0,0,0,12163,10140,23157,31370,30745,2
0,0,0,12176,10163,23157,31339,30408,2
0,0,0,12241,10209,23203,31276,30045,2
0,0,0,12267,10255,23135,31150,29955,2
0,0,0,12320,10244,23067,31213,29925,2
0,0,0,12293,10255,23112,31150,30105,2
0,0,0,12372,10255,23044,31119,30105,2
0,0,0,12543,10255,23090,31119,30256,2
0,0,0,12530,10255,23022,31056,30347,2
0,0,0,12490,10244,23022,30962,30256,2
0,0,0,12477,10255,23044,31056,30286,2
0,0,0,12530,10255,23044,31025,30226,2
0,0,0,12530,10255,23067,31087,30286,2
0,0,0,12504,10244,23112,31150,30256,2
0,0,0,12398,10267,23044,31150,30226,2
0,0,0,12320,10221,23112,31370,30105,2
0,0,0,12451,10209,23135,31497,29984,2
0,0,0,12596,10232,23112,31497,30075,2
0,0,0,12690,10267,23044,31593,29925,2
0,0,0,12756,10301,23044,31624,29865,2
0,0,0,12743,10348,23022,31688,29775,2
0,0,0,12690,10336,22932,31529,28812,2
0,0,0,12636,10348,22887,31213,27581,2
0,0,0,12583,10348,22776,30962,26908,2
0,0,0,12556,10348,22599,30530,26022,2
0,0,0,12636,10348,22621,30469,25691,2
0,0,0,12690,10348,22665,30377,25616,2
0,0,0,12851,10371,22709,30347,25591,2
0,0,0,12932,10371,22665,30347,25616,2
0,0,0,13027,10394,22709,30408,25691,2
0,0,0,13287,10418,22820,30377,25742,2
0,0,0,13343,10406,22776,30377,25767,2
0,0,0,13315,10464,22754,30347,25869,2
0,0,0,13371,10441,22754,30347,25843,2
0,0,0,13343,10441,22709,30347,25920,2
0,0,0,13315,10441,22709,30377,25920,2
0,0,0,13343,10441,22665,30286,25945,2
0,0,0,13357,10441,22709,30286,26047,2
0,0,0,13343,10441,22665,30286,26073,2
0,0,0,13343,10441,22665,30226,26073,2
0,0,0,13357,10441,22665,30226,26176,2
0,0,0,13329,10441,22665,30347,26202,2
0,0,0,13343,10441,22621,30317,26202,2
0,0,0,13357,10453,22665,30256,26202,2
0,0,0,13371,10453,22687,30286,26305,2
0,0,0,13398,10488,22709,30347,26357,2
0,0,0,13496,10499,22843,30408,26409,2
0,0,0,13538,10511,22798,30347,26409,2
0,0,0,13580,10488,22754,30377,26383,2
0,0,0,13566,10511,22731,30408,26513,2
0,0,0,13566,10511,22709,30317,26461,2
0,0,0,13566,10511,22709,30286,26513,2
0,0,0,13566,10499,22709,30347,26513,2
0,0,0,13580,10511,22709,30286,26513,2
0,0,0,13580,10499,22709,30347,26461,2
0,0,0,13580,10499,22754,30286,26566,2
0,0,0,13580,10499,22754,30286,26566,2
0,0,0,13622,10499,22754,30226,26566,2
0,0,0,13622,10523,22709,30256,26644,2
0,0,0,13594,10511,22709,30347,26644,2
0,0,0,13608,10546,22709,30256,26697,2
0,0,0,13636,10535,22687,30256,26776,2
0,0,0,13636,10558,22709,30256,26829,2
0,0,0,13636,10582,22709,30286,26829,2
0,0,0,13650,10558,22709,30347,26776,2
0,0,0,13650,10582,22709,30317,26882,2
0,0,0,13622,10582,22754,30286,26855,2
0,0,0,13650,10594,22754,30347,26935,2
0,0,0,13650,10594,22709,30286,26855,2
0,0,0,13679,10605,22776,30286,26988,2
0,0,0,13707,10594,22776,30286,27041,2
0,0,0,13679,10629,22776,30286,27015,2
0,0,0,13693,10617,22754,30347,27041,2
0,0,0,13679,10641,22776,30286,27041,2
0,0,0,13679,10629,22754,30317,27068,2
0,0,0,13707,10641,22754,30286,26988,2
0,0,0,13693,10629,22798,30377,27068,2
0,0,0,13693,10629,22798,30347,27122,2
0,0,0,13707,10629,22820,30226,26961,2
0,0,0,13679,10629,22798,30256,26855,2
0,0,0,13650,10629,22687,30105,26749,2
0,0,0,13566,10653,22599,29895,26539,2
0,0,0,13510,10629,22532,29568,26279,2
0,0,0,13482,10641,22576,29568,26228,2
0,0,0,13454,10653,22576,29479,26305,2
0,0,0,13468,10641,22510,29509,26253,2
0,0,0,13454,10653,22532,29597,26253,2
0,0,0,13454,10641,22510,29568,26253,2
0,0,0,13454,10676,22532,29597,26176,2
0,0,0,13482,10676,22488,29509,26253,2
0,0,0,13538,10676,22488,29568,26409,2
0,0,0,13735,10688,22466,29686,26882,2
0,0,0,13849,10724,22488,29865,27581,2
0,0,0,13978,10724,22488,30015,29071,2
0,0,0,14636,10748,22865,31087,32500,2
0,0,0,15964,10831,23987,33236,35418,2
0,0,0,16385,10819,24510,34624,37152,2
0,0,0,16434,10795,24702,35861,37741,2
0,0,0,16222,10771,24946,37075,38180,2
0,0,0,16109,10748,25192,37940,38666,2
0,0,0,16028,10771,25291,38180,38789,2
0,0,0,15980,10771,25415,38625,38707,2
0,0,0,15852,10795,25415,38585,38544,2
0,0,0,15789,10819,25440,38789,38503,2
0,0,0,15773,10843,25515,38748,38422,2
0,0,0,15789,10867,25515,38953,38503,2
0,0,0,15852,10891,25591,39327,38707,2
0,0,0,15964,10915,25641,39663,39285,2
0,0,0,16093,10927,25691,40216,40173,2
0,0,0,16222,10975,25843,40955,41309,2
0,0,0,16417,11096,26099,41938,41893,2
0,0,0,16615,11231,26331,43235,42534,2
0,0,0,16815,11268,26566,44340,42859,2
0,0,0,17016,11255,26461,44981,43472,2
0,0,0,17152,11206,26331,45231,44000,2
0,0,0,17254,11121,26099,45584,44242,2
0,0,0,17254,11072,26073,45584,44782,2
0,0,0,17254,11133,26099,45382,44585,2
0,0,0,17478,11182,25894,45181,42766,2
0,0,0,17933,11268,25515,45031,41088,2
0,0,0,18672,11304,25118,44832,40088,2
0,0,0,19193,11366,24824,44096,39452,2
0,0,0,19785,11416,24462,43951,38707,2
0,0,0,20039,11453,24318,43807,37900,2
0,0,0,19980,11478,24152,43424,37386,2
0,0,0,19708,11478,24081,42626,37036,2
0,0,0,19401,11465,24034,42166,36499,2
0,0,0,19193,11403,23940,41938,35861,2
0,0,0,18801,11403,24058,41848,36235,2
0,0,0,18272,11354,24081,41577,36235,2
0,0,0,17374,11366,24081,41132,36235,2
0,0,0,16368,11403,24176,40912,36235,2
0,0,0,15678,11478,24271,40868,36424,2
0,0,0,15242,11528,24318,40736,36462,2
0,0,0,14982,11578,24366,40693,36462,2
0,0,0,14846,11628,24462,40432,35418,2
0,0,0,14666,11678,24510,40045,34130,2
0,0,0,14503,11716,24486,39832,32765,2
0,0,0,14311,11804,24510,39494,31720,2
0,0,0,14209,11855,24438,39160,31913,2
0,0,0,14137,11804,24271,38912,32010,2
0,0,0,14079,11678,24129,38830,31978,2
0,0,0,14007,11453,24034,38585,31946,2
0,0,0,14021,11109,23894,38422,31849,2
0,0,0,14137,10927,23754,38260,31720,2
0,0,0,14253,10867,23661,38180,31529,2
0,0,0,14341,10795,23569,37940,31465,2
0,0,0,14488,10748,23522,37860,31213,2
0,0,0,14577,10676,23385,37662,30591,2
0,0,0,14444,10629,23180,37386,30015,2
0,0,0,14311,10594,22977,37230,29333,2
0,0,0,14224,10629,22754,37036,28927,2
0,0,0,14137,10629,22488,36882,28470,2
0,0,0,14108,10676,22140,36614,28077,2
0,0,0,14021,10748,21924,36920,27828,2
0,0,0,13921,10795,21648,36614,27691,2
0,0,0,13849,10843,21542,36462,27691,2
0,0,0,13806,10819,21500,36386,27745,2
0,0,0,13821,10795,21458,36235,27911,2
0,0,0,13849,10724,21416,36235,28022,2
0,0,0,13849,10605,21479,36235,28161,2
0,0,0,13821,10582,21479,36160,28133,2
0,0,0,13778,10546,21458,36160,28217,2
0,0,0,13764,10546,21416,36010,28273,2
0,0,0,13735,10582,21375,36085,28301,2
0,0,0,13693,10653,21291,36047,28357,2
0,0,0,13693,10748,21229,36010,28301,2
0,0,0,13636,10748,21229,36010,28301,2
0,0,0,13622,10771,21250,36010,28301,2
0,0,0,13650,10795,21250,35935,28301,2
0,0,0,13679,10819,21250,35824,28245,2
0,0,0,13665,10819,21291,35898,28245,2
0,0,0,13679,10795,21229,35749,28357,2
0,0,0,13707,10819,21208,35787,28357,2
0,0,0,13778,10795,21208,35787,28385,2
