GyroX,GyroY,GyroZ,Thumb,Index,Middle,Ring,Pinky,Gesture
0,0,0,18417,10232,10026,42212,32173,3
0,0,0,18362,10221,10003,42166,32173,3
0,0,0,18362,10267,10026,42304,32010,3
0,0,0,18326,10278,10026,42304,32108,3
0,0,0,18308,10255,10026,42212,32238,3
0,0,0,18489,10267,10049,42212,32075,3
0,0,0,18380,10301,10049,42212,32140,3
0,0,0,18344,10301,10049,42304,32108,3
0,0,0,18344,10301,10071,42166,31978,3
0,0,0,18344,10301,10049,42120,31978,3
0,0,0,18344,10267,10026,42212,31881,3
0,0,0,18272,10209,9958,42166,31849,3
0,0,0,18308,10186,9958,42075,31817,3
0,0,0,18308,10232,9980,41984,31720,3
0,0,0,18272,10244,9992,41984,31785,3
0,0,0,18272,10267,10026,42120,31849,3
0,0,0,18272,10255,10026,42029,31785,3
0,0,0,18344,10267,10026,42166,31752,3
0,0,0,18344,10313,10026,42029,31785,3
0,0,0,18290,10325,10049,42120,31720,3
0,0,0,18290,10325,10071,42120,31593,3
0,0,0,18308,10325,10071,42075,31624,3
0,0,0,18272,10301,10071,42029,31656,3
0,0,0,18308,10278,10060,42029,31497,3
0,0,0,18380,10301,10071,42075,31465,3
0,0,0,18272,10313,10071,41984,31497,3
0,0,0,18236,10348,10083,42029,31402,3
0,0,0,18236,10371,10083,42029,31465,3
0,0,0,18272,10348,10071,41984,31593,3
0,0,0,18272,10313,10071,41984,31465,3
0,0,0,18200,10301,10071,42029,31339,3
0,0,0,18164,10255,10026,41893,31370,3
0,0,0,18362,10209,9980,41757,31465,3
0,0,0,18236,10221,9946,41667,31339,3
0,0,0,18236,10209,9946,41803,31402,3
0,0,0,18272,10325,10003,41803,31339,3
0,0,0,18272,10313,10003,41757,31593,3
0,0,0,18308,10336,10026,41667,31529,3
0,0,0,18272,10348,10026,41757,31339,3
0,0,0,18236,10348,10049,41757,31402,3
0,0,0,18236,10348,10026,41848,31402,3
0,0,0,18308,10359,10083,41757,31339,3
0,0,0,18344,10441,10117,41803,31150,3
0,0,0,18200,10441,10117,41938,31150,3
0,0,0,18254,10453,10129,41848,31213,3
0,0,0,18236,10476,10129,41848,31087,3
0,0,0,18200,10453,10129,41848,31087,3
0,0,0,18164,10464,10152,41848,31087,3
0,0,0,18200,10488,10163,41757,30994,3
0,0,0,18200,10488,10209,41848,31025,3
0,0,0,18200,10488,10209,41667,30994,3
0,0,0,18164,10488,10186,41712,31056,3
0,0,0,18147,10499,10174,41667,31087,3
0,0,0,18164,10488,10174,41848,30994,3
0,0,0,18200,10499,10163,41757,31087,3
0,0,0,18200,10476,10174,41757,30962,3
0,0,0,18326,10499,10174,41938,30994,3
0,0,0,18417,10488,10163,41938,30900,3
0,0,0,18489,10488,10174,41984,30838,3
0,0,0,18508,10488,10174,42029,30962,3
0,0,0,18471,10499,10163,41938,31025,3
0,0,0,18453,10488,10163,41938,30838,3
0,0,0,18399,10488,10163,41893,31025,3
0,0,0,18380,10488,10163,41938,30869,3
0,0,0,18380,10488,10174,41938,30900,3
0,0,0,18380,10464,10163,42029,30962,3
0,0,0,18362,10488,10174,41938,30931,3
0,0,0,18399,10464,10186,41938,30900,3
0,0,0,18344,10464,10163,41938,30807,3
0,0,0,18290,10418,10163,41848,30745,3
0,0,0,18308,10418,10140,41803,30776,3
0,0,0,18254,10394,10129,41848,30715,3
0,0,0,18218,10406,10129,41803,30715,3
0,0,0,18200,10406,10129,41712,30715,3
0,0,0,18218,10406,10152,41757,30838,3
0,0,0,18200,10418,10140,41757,30776,3
0,0,0,18200,10418,10163,41803,30715,3
0,0,0,18200,10394,10163,41622,30653,3
0,0,0,18236,10418,10163,41757,30653,3
0,0,0,18200,10406,10163,41667,30653,3
0,0,0,18200,10394,10163,41757,30591,3
0,0,0,18200,10394,10163,41667,30653,3
0,0,0,18147,10394,10140,41757,30591,3
0,0,0,18164,10371,10140,41667,30499,3
0,0,0,18182,10359,10163,41622,30591,3
0,0,0,18200,10359,10140,41622,30622,3
0,0,0,18164,10371,10140,41577,30591,3
0,0,0,18147,10394,10140,41667,30561,3
0,0,0,18200,10371,10140,41667,30561,3
0,0,0,18236,10371,10163,41577,30561,3
0,0,0,18272,10348,10152,41667,30591,3
0,0,0,18290,10359,10117,41667,30622,3
0,0,0,18272,10348,10117,41757,30499,3
0,0,0,18326,10325,10140,41803,30469,3
0,0,0,18344,10325,10140,41938,30591,3
0,0,0,18362,10348,10152,41848,30838,3
0,0,0,18417,10348,10163,41938,30653,3
0,0,0,18344,10313,10209,41938,30622,3
0,0,0,18272,10301,10278,42029,30653,3
0,0,0,17915,10232,10371,41667,30653,3
0,0,0,17774,10209,10394,41265,30591,3
0,0,0,17634,10174,10488,40912,31213,3
0,0,0,17547,10163,10488,40736,31087,3
0,0,0,17513,10163,10641,40475,31434,3
0,0,0,17461,10163,10939,40346,31656,3
0,0,0,17426,10163,10879,40088,31913,3
0,0,0,17357,10140,10771,39747,32271,3
0,0,0,17357,10163,10582,39536,32108,3
0,0,0,17374,10163,10558,40088,31307,3
0,0,0,17340,10186,10594,40780,30869,3
0,0,0,17340,10209,10712,40475,29895,3
0,0,0,17306,10186,10724,39917,29716,3
0,0,0,17306,10163,10724,39663,29538,3
0,0,0,17357,10186,10629,39536,29509,3
0,0,0,17357,10209,10394,39327,29597,3
0,0,0,17306,10186,10209,39327,29627,3
0,0,0,17323,10186,10163,39327,29568,3
0,0,0,17323,10163,10163,39411,29984,3
0,0,0,17357,10129,10129,39536,30408,3
0,0,0,17374,10117,10117,39536,30776,3
0,0,0,17495,10140,10232,40693,32765,3
0,0,0,17495,10117,10232,40605,33508,3
0,0,0,17461,10117,10267,40736,33714,3
0,0,0,17426,10117,10325,40736,33645,3
0,0,0,17426,10117,10336,40780,33576,3
0,0,0,17426,10094,10348,40736,33714,3
0,0,0,17374,10117,10394,41488,35492,3
0,0,0,17357,10094,10453,41757,35455,3
0,0,0,17357,10106,10582,41757,35455,3
0,0,0,17323,10106,11012,41803,36010,3
0,0,0,17374,10083,11391,42120,36805,3
0,0,0,17392,10071,11603,41938,37230,3
0,0,0,17426,10094,11255,41984,36690,3
0,0,0,17426,10117,10748,42029,36160,3
0,0,0,17374,10117,10464,41622,35712,3
0,0,0,17374,10117,10336,41577,35528,3
0,0,0,17392,10094,10313,41443,35455,3
0,0,0,17323,10083,10209,41399,35199,3
0,0,0,17306,10071,10163,41309,35055,3
0,0,0,17289,10071,10140,41221,35018,3
0,0,0,17272,10049,10117,41221,34910,3
0,0,0,17254,10049,10117,41132,34910,3
0,0,0,17220,10049,10094,41265,34874,3
0,0,0,17237,10037,10037,41044,34910,3
0,0,0,17220,10037,10026,41265,34839,3
0,0,0,17289,10049,10026,41309,34982,3
0,0,0,17323,10071,10003,41354,34874,3
0,0,0,17357,10071,10003,41443,35055,3
0,0,0,17357,10094,10003,41577,35055,3
0,0,0,17426,10209,10037,41443,34982,3
0,0,0,17495,10488,10197,41757,35018,3
0,0,0,17565,10676,10221,42029,34946,3
0,0,0,17582,10819,10221,42029,34874,3
0,0,0,17704,10987,10255,41984,34731,3
0,0,0,17687,11060,10301,41938,34731,3
0,0,0,17669,11109,10406,41848,34696,3
0,0,0,17704,11072,10558,41757,34731,3
0,0,0,17669,11109,10700,41667,34624,3
0,0,0,17652,11084,10819,41667,34624,3
0,0,0,17634,11096,10855,41577,34696,3
0,0,0,17617,11060,10807,41622,34624,3
0,0,0,17634,11060,10783,41533,34624,3
0,0,0,17634,11024,10771,41577,34518,3
0,0,0,17634,10927,10688,41488,34589,3
0,0,0,17582,10927,10688,41533,34553,3
0,0,0,17600,10915,10664,41488,34589,3
0,0,0,17600,10915,10641,41533,34518,3
0,0,0,17582,10939,10629,41399,34589,3
0,0,0,17565,10891,10629,41354,34589,3
0,0,0,17582,10891,10629,41309,34553,3
0,0,0,17582,10867,10629,41265,34482,3
0,0,0,17634,10843,10629,41488,34553,3
0,0,0,17600,10843,10641,41488,34447,3
0,0,0,17582,10831,10629,41533,34447,3
0,0,0,17565,10819,10629,41803,34412,3
0,0,0,17600,10748,10582,41667,34200,3
0,0,0,17461,10653,10546,41757,34060,3
0,0,0,17289,10582,10535,41044,33405,3
0,0,0,17186,10511,10535,40649,32699,3
0,0,0,17016,10499,10488,40259,31946,3
0,0,0,16983,10441,10488,39832,31656,3
0,0,0,17016,10418,10488,39578,31465,3
0,0,0,17016,10418,10453,39411,31213,3
0,0,0,16999,10418,10441,39327,31087,3
0,0,0,16949,10418,10535,38912,31056,3
0,0,0,17016,10418,10546,38544,31087,3
0,0,0,17016,10418,10582,38503,31213,3
0,0,0,17033,10394,10546,38341,31150,3
0,0,0,17033,10371,10546,38140,31150,3
0,0,0,16983,10348,10453,38019,30962,3
0,0,0,16898,10313,10441,37940,30962,3
0,0,0,16915,10267,10453,37701,30900,3
0,0,0,16898,10232,10441,37701,30745,3
0,0,0,16949,10163,10441,37701,30745,3
0,0,0,16915,10140,10441,37622,30715,3
0,0,0,16831,10163,10441,37781,30591,3
0,0,0,16831,10174,10441,37741,30469,3
0,0,0,16765,10163,10441,37701,30499,3
0,0,0,16815,10117,10441,37504,30530,3
0,0,0,16815,10117,10441,37465,30530,3
0,0,0,16815,10106,10441,37386,30469,3
0,0,0,16815,10117,10406,37386,30347,3
0,0,0,16748,10117,10441,37230,30377,3
0,0,0,16781,10094,10418,37230,30286,3
0,0,0,16765,10117,10441,37269,30347,3
0,0,0,16748,10129,10418,37230,30347,3
0,0,0,16698,10129,10418,37230,30347,3
0,0,0,16715,10117,10441,37308,30165,3
0,0,0,16681,10152,10441,37308,30226,3
0,0,0,16765,10140,10441,37230,30226,3
0,0,0,16748,10129,10441,37386,30165,3
0,0,0,16748,10163,10441,37308,30165,3
0,0,0,16781,10140,10453,37386,30165,3
0,0,0,16748,10163,10453,37386,30165,3
0,0,0,16765,10140,10441,37465,30195,3
0,0,0,16781,10163,10476,37543,29925,3
0,0,0,16748,10163,10453,37386,29984,3
0,0,0,16698,10163,10441,37347,29865,3
0,0,0,16681,10163,10464,37230,29865,3
0,0,0,16648,10163,10441,37230,29805,3
0,0,0,16681,10163,10464,37152,29627,3
0,0,0,16681,10163,10441,37269,29657,3
0,0,0,16648,10163,10441,37230,29627,3
0,0,0,16698,10163,10453,37308,29627,3
0,0,0,16681,10186,10453,37269,29597,3
0,0,0,16698,10163,10441,37230,29686,3
0,0,0,16681,10163,10441,37269,29627,3
0,0,0,16681,10163,10441,37230,29627,3
0,0,0,16715,10174,10429,37308,29627,3
0,0,0,16715,10174,10441,37308,29568,3
0,0,0,16748,10174,10441,37347,29538,3
0,0,0,16748,10174,10453,37269,29627,3
0,0,0,16715,10174,10441,37269,29568,3
0,0,0,16748,10186,10418,37230,29627,3
0,0,0,16698,10186,10406,37191,29538,3
0,0,0,16715,10163,10394,37191,29775,3
0,0,0,16731,10163,10371,37075,29775,3
0,0,0,16698,10071,10348,36998,29627,3
0,0,0,16648,10037,10232,36959,29568,3
0,0,0,16648,10003,10209,36959,29450,3
0,0,0,16681,10026,10174,36920,29509,3
0,0,0,16681,10003,10140,36728,29450,3
0,0,0,16648,10003,10117,36843,29509,3
0,0,0,16681,9992,10117,36843,29450,3
0,0,0,16681,10003,10117,36767,29391,3
0,0,0,16698,10026,10117,36920,29450,3
0,0,0,16748,10049,10140,36959,29391,3
0,0,0,16781,10049,10117,36959,29421,3
0,0,0,16831,10071,10140,36920,29509,3
0,0,0,17016,10049,10152,36805,29274,3
0,0,0,17084,10049,10209,36728,29391,3
0,0,0,17152,10037,10348,36386,29627,3
0,0,0,17289,10049,10394,36235,30075,3
0,0,0,17323,10037,10394,36160,30105,3
0,0,0,17374,10060,10429,36047,29925,3
0,0,0,17357,10060,10488,35898,29746,3
0,0,0,17357,10071,10499,35749,29746,3
0,0,0,17443,10071,10582,35639,29746,3
0,0,0,17426,10071,10594,35639,29746,3
0,0,0,17426,10071,10582,35639,29805,3
0,0,0,17392,10071,10582,35528,29865,3
0,0,0,17289,10083,10582,35492,29865,3
0,0,0,17118,10071,10582,35418,29984,3
0,0,0,17067,10071,10535,35309,30105,3
0,0,0,17050,10071,10394,34839,30256,3
0,0,0,17033,10117,10313,34660,30165,3
0,0,0,16966,10117,10301,34589,30105,3
0,0,0,16915,10140,10278,34553,30015,3
0,0,0,16831,10163,10301,34482,30165,3
0,0,0,16815,10221,10348,34341,30286,3
0,0,0,16781,10232,10359,34130,30045,3
0,0,0,16815,10255,10383,34060,30015,3
0,0,0,16815,10255,10394,34130,29865,3
0,0,0,16831,10255,10394,34130,29865,3
0,0,0,16815,10325,10418,34026,29895,3
0,0,0,16815,10394,10406,34130,30015,3
0,0,0,16831,10441,10394,34271,29895,3
0,0,0,16815,10464,10406,34341,29925,3
0,0,0,16831,10488,10418,34200,30045,3
0,0,0,16898,10511,10441,34271,30045,3
0,0,0,17152,10499,10464,34130,30256,3
0,0,0,17426,10535,10464,33991,30256,3
0,0,0,17478,10535,10441,33991,30226,3
0,0,0,17530,10546,10453,33991,30226,3
0,0,0,17600,10582,10418,33852,30165,3
0,0,0,17634,10535,10348,33611,29984,3
0,0,0,17652,10441,10278,33645,29895,3
0,0,0,17704,10394,10244,33645,29746,3
0,0,0,17704,10348,10232,33611,29657,3
0,0,0,17774,10301,10163,33576,29568,3
0,0,0,17845,10255,10117,33852,29657,3
0,0,0,17739,10221,10060,33783,29627,3
0,0,0,17669,10209,10037,33576,29568,3
0,0,0,17617,10255,10060,33508,30045,3
0,0,0,17530,10348,10094,33168,29805,3
0,0,0,17530,10371,10129,33033,29746,3
0,0,0,17565,10371,10117,33033,29686,3
0,0,0,17600,10348,10140,33033,29805,3
0,0,0,17704,10359,10117,32899,29984,3
0,0,0,17986,10371,10106,32832,30045,3
0,0,0,18111,10371,10071,32699,30256,3
0,0,0,18129,10394,10071,32666,30226,3
0,0,0,18147,10464,10071,32633,30347,3
0,0,0,18182,10546,10083,32500,30256,3
0,0,0,18129,10499,10083,32566,30165,3
0,0,0,18147,10464,10060,32435,30075,3
0,0,0,18111,10441,10014,32500,29865,3
0,0,0,18004,10453,10003,32402,29775,3
0,0,0,18022,10488,10003,32369,29746,3
0,0,0,18057,10535,10026,32303,29627,3
0,0,0,18004,10535,10026,32303,29450,3
0,0,0,17986,10511,10026,32303,29391,3
0,0,0,17986,10499,10026,32303,29509,3
0,0,0,18004,10488,10026,32271,29333,3
0,0,0,17986,10511,10037,32238,29391,3
0,0,0,18057,10535,10037,32075,29450,3
0,0,0,18111,10546,10071,32043,29333,3
0,0,0,18129,10523,10071,31881,29333,3
0,0,0,18075,10511,10071,31978,29333,3
0,0,0,18057,10511,10094,31849,29304,3
0,0,0,18057,10499,10071,31849,29274,3
0,0,0,18075,10499,10049,31913,29304,3
0,0,0,18147,10488,10037,31978,29509,3
0,0,0,18147,10464,10026,32369,29746,3
0,0,0,18147,10453,10026,32303,29657,3
0,0,0,18147,10441,10003,32238,29746,3
0,0,0,18129,10453,10003,32238,29657,3
0,0,0,18147,10441,10003,32205,29686,3
0,0,0,18129,10464,10026,32303,29686,3
0,0,0,18022,10488,10037,32303,29746,3
0,0,0,17986,10488,10049,32336,29568,3
0,0,0,17933,10488,10083,32238,29686,3
0,0,0,17915,10453,10129,32043,29450,3
0,0,0,17915,10441,10117,31849,29216,3
0,0,0,17862,10453,10117,32010,29129,3
0,0,0,17827,10441,10117,32238,28955,3
0,0,0,17739,10429,10117,32303,28812,3
0,0,0,17722,10429,10094,32402,28697,3
0,0,0,17669,10418,10140,32303,28726,3
0,0,0,17669,10418,10140,32238,28640,3
0,0,0,17634,10406,10129,32173,28527,3
0,0,0,17634,10418,10163,32205,28583,3
0,0,0,17617,10453,10163,32173,28583,3
0,0,0,17634,10499,10186,32108,28612,3
0,0,0,17600,10511,10174,32140,28583,3
0,0,0,17634,10523,10209,32140,28612,3
0,0,0,17565,10535,10209,32173,28640,3
0,0,0,17582,10488,10209,32271,28583,3
0,0,0,17565,10464,10209,32271,28612,3
0,0,0,17547,10488,10232,32369,28697,3
0,0,0,17565,10511,10232,32369,28726,3
0,0,0,17513,10535,10221,32303,28697,3
0,0,0,17513,10523,10221,32238,28583,3
0,0,0,17495,10546,10209,32238,28555,3
0,0,0,17461,10546,10221,32173,28527,3
0,0,0,17426,10570,10221,32271,28527,3
0,0,0,17461,10594,10232,32238,28414,3
0,0,0,17426,10594,10232,32271,28414,3
0,0,0,17443,10605,10221,32173,28301,3
0,0,0,17495,10582,10232,32140,28301,3
0,0,0,17634,10441,10186,32108,28049,3
0,0,0,17704,10371,10163,31913,27856,3
0,0,0,17687,10336,10094,31946,27636,3
0,0,0,17704,10325,10071,31849,27691,3
0,0,0,17704,10313,10071,31946,27691,3
0,0,0,17652,10348,10037,31849,27636,3
0,0,0,17600,10348,10037,31978,27636,3
0,0,0,17600,10394,10071,31913,27718,3
0,0,0,17565,10535,10152,31849,27911,3
0,0,0,17565,10676,10197,31720,27883,3
0,0,0,17513,10676,10174,31593,27800,3
0,0,0,17495,10582,10129,31529,27745,3
0,0,0,17495,10535,10071,31720,27883,3
0,0,0,17461,10535,10049,31624,27800,3
0,0,0,17426,10582,10049,31593,27800,3
0,0,0,17426,10605,10071,31593,27691,3
0,0,0,17426,10582,10083,31593,27691,3
0,0,0,17392,10558,10083,31656,27745,3
0,0,0,17933,10488,10140,32999,28414,3
0,0,0,18931,10394,10163,33405,28470,3
0,0,0,18894,10359,10174,33371,28640,3
0,0,0,18783,10348,10255,33100,28927,3
0,0,0,18672,10348,10441,33236,29362,3
0,0,0,18544,10325,10441,33303,29129,3
0,0,0,18435,10255,10418,33508,28927,3
0,0,0,18236,10209,10394,33542,28869,3
0,0,0,17986,10174,10383,33817,28869,3
0,0,0,17600,10140,10394,34200,28869,3
0,0,0,17289,10117,10371,34412,28927,3
0,0,0,17033,10094,10348,34518,28898,3
0,0,0,16898,10094,10371,34696,28927,3
0,0,0,16798,10071,10441,35127,29391,3
0,0,0,16615,10037,10476,35935,29775,3
0,0,0,16352,10026,10546,37036,30015,3
0,0,0,16238,10026,10535,37152,29865,3
0,0,0,16060,10026,10535,37269,29627,3
0,0,0,15900,10014,10511,37347,29274,3
0,0,0,15868,9980,10499,36920,29100,3
0,0,0,15773,9969,10535,36843,28984,3
0,0,0,15726,9946,10700,36767,29245,3
0,0,0,15631,9946,11024,36767,29984,3
0,0,0,15678,9935,11109,36614,29984,3
0,0,0,15741,9935,10963,36310,29568,3
0,0,0,15789,9946,10748,35565,29042,3
0,0,0,15900,9935,10594,35787,28583,3
0,0,0,15996,9980,10394,35749,28245,3
0,0,0,16060,10003,10267,35199,28077,3
0,0,0,16093,10026,10278,35199,27911,3
0,0,0,16060,10026,10267,35163,27828,3
0,0,0,16028,10049,10255,35345,27856,3
0,0,0,15996,10037,10221,35639,27828,3
0,0,0,15980,10003,10174,36310,28022,3
0,0,0,16093,10003,10117,38019,29042,3
0,0,0,16336,10003,10117,39917,29835,3
0,0,0,16516,10003,10117,41132,30408,3
0,0,0,16648,10026,10117,41622,30226,3
0,0,0,16815,10003,10117,41488,30591,3
0,0,0,16831,10026,10117,41221,30347,3
0,0,0,16915,10003,10071,40955,30075,3
0,0,0,17016,10003,10003,40432,29925,3
0,0,0,17050,9980,9935,40088,29686,3
0,0,0,17118,9935,9890,40002,29568,3
0,0,0,17152,9935,9867,39790,29450,3
0,0,0,17084,9935,9845,39578,29362,3
0,0,0,17118,9890,9833,39536,29333,3
0,0,0,17118,9924,9800,39536,29274,3
0,0,0,17101,9924,9800,39494,29100,3
0,0,0,17101,9935,9800,39536,29042,3
0,0,0,17118,9912,9800,39452,29042,3
0,0,0,17084,9912,9777,39327,28984,3
0,0,0,17152,9935,9800,39327,29042,3
0,0,0,17135,9912,9800,39327,28984,3
0,0,0,17118,9912,9800,39285,28927,3
0,0,0,17152,9912,9800,39244,28869,3
0,0,0,17152,9946,9845,39160,28898,3
0,0,0,17152,9946,9845,39077,28812,3
0,0,0,17169,9946,9811,39119,28812,3
0,0,0,17152,9980,9811,39036,28697,3
0,0,0,17254,10209,9867,39036,28812,3
0,0,0,17323,11157,9912,39244,28697,3
0,0,0,17237,11653,9924,39285,28697,3
0,0,0,17203,11703,9958,39119,28640,3
0,0,0,17220,11528,9980,39369,28640,3
0,0,0,17220,11403,10049,39244,28583,3
0,0,0,17186,11341,10049,39077,28669,3
0,0,0,17254,11317,10049,39160,28669,3
0,0,0,17237,11304,10071,39077,28697,3
0,0,0,17220,11255,10049,39160,28612,3
0,0,0,17254,11157,10037,38912,28583,3
0,0,0,17289,11109,10049,39077,28583,3
0,0,0,17254,11060,10049,39119,28527,3
0,0,0,17237,11024,10060,38995,28583,3
0,0,0,17289,10987,10071,38912,28527,3
0,0,0,17254,10987,10094,38953,28527,3
0,0,0,17289,10927,10083,38995,28583,3
0,0,0,17254,10939,10071,38995,28470,3
0,0,0,17289,10939,10094,38830,28555,3
0,0,0,17254,10927,10094,38912,28583,3
0,0,0,17254,10915,10083,38912,28527,3
0,0,0,17272,10879,10083,38830,28527,3
0,0,0,17306,10807,10071,38912,28470,3
0,0,0,17254,10653,10049,38953,28470,3
0,0,0,17272,10488,10037,38912,28527,3
0,0,0,17289,10348,10003,38871,28470,3
0,0,0,17289,10255,9935,38871,28527,3
0,0,0,17323,10163,9845,38748,28498,3
0,0,0,17409,10129,9710,38830,28470,3
0,0,0,17443,10094,9666,38830,28385,3
0,0,0,17495,10049,9577,38995,28357,3
0,0,0,17530,10026,9533,39077,28385,3
0,0,0,17495,10026,9511,39160,28357,3
0,0,0,17513,10026,9511,39036,28301,3
0,0,0,17600,10026,9511,39160,28301,3
0,0,0,17600,10026,9511,38995,28301,3
0,0,0,17565,10049,9500,38995,28189,3
0,0,0,17565,10003,9500,38912,28245,3
0,0,0,17513,10003,9511,38995,28189,3
0,0,0,17565,10003,9533,38912,28301,3
0,0,0,17530,10003,9533,38912,28245,3
0,0,0,17495,10003,9533,38830,28245,3
0,0,0,17513,10003,9500,38912,28133,3
0,0,0,17495,10003,9500,38830,28217,3
0,0,0,17495,10003,9511,38748,28245,3
0,0,0,17495,10026,9488,38871,28217,3
0,0,0,17495,10003,9533,38748,28217,3
0,0,0,17461,10003,9500,38748,28245,3
0,0,0,17495,10026,9511,38789,28245,3
0,0,0,17513,10026,9511,38707,28583,3
0,0,0,17565,10026,9577,38748,28669,3
0,0,0,17600,10071,9577,38585,28697,3
0,0,0,17565,10071,9632,38585,28583,3
0,0,0,17565,10209,9912,38789,28527,3
0,0,0,17565,10232,10026,38830,28414,3
0,0,0,17513,10209,10003,38830,28470,3
0,0,0,17461,10209,10003,38748,28357,3
0,0,0,17443,10209,10003,38666,28357,3
0,0,0,17426,10209,9980,38748,28245,3
0,0,0,17374,10209,9980,38748,28245,3
0,0,0,17392,10209,9980,38789,28245,3
0,0,0,17374,10221,9980,38625,28245,3
0,0,0,17357,10232,9980,38666,28217,3
0,0,0,17357,10278,9980,38585,28245,3
0,0,0,17357,10301,10003,38666,28189,3
0,0,0,17323,10348,10003,38585,28189,3
0,0,0,17357,10371,10003,38625,28189,3
0,0,0,17323,10348,10003,38666,28161,3
0,0,0,17306,10348,10003,38666,28217,3
0,0,0,17323,10348,10003,38625,28245,3
0,0,0,17306,10348,10003,38544,28245,3
0,0,0,17323,10348,10003,38544,28133,3
0,0,0,17289,10325,10003,38544,28133,3
0,0,0,17289,10348,10003,38503,28217,3
0,0,0,17289,10348,10003,38666,28189,3
0,0,0,17289,10348,10003,38503,28161,3
0,0,0,17254,10348,10003,38463,28105,3
0,0,0,17306,10348,10026,38503,28133,3
0,0,0,17289,10336,10003,38503,28133,3
0,0,0,17254,10359,10026,38503,28077,3
0,0,0,17254,10348,10003,38463,28049,3
0,0,0,17237,10371,10003,38463,28077,3
0,0,0,17237,10394,10026,38503,28133,3
0,0,0,17237,10371,10026,38544,27994,3
0,0,0,17220,10371,10037,38422,28077,3
0,0,0,17237,10371,10117,38503,28022,3
0,0,0,17220,10383,10094,38707,27966,3
0,0,0,17203,10359,10071,38422,27966,3
0,0,0,17220,10383,10071,38503,27911,3
0,0,0,17220,10394,10071,38422,27856,3
0,0,0,17203,10394,10071,38463,27856,3
0,0,0,17186,10371,10071,38463,27800,3
0,0,0,17186,10371,10094,38422,27856,3
0,0,0,17186,10359,10117,38463,27856,3
0,0,0,17186,10371,10094,38382,27800,3
0,0,0,17169,10371,10071,38341,27856,3
0,0,0,17169,10371,10071,38341,27856,3
0,0,0,17152,10371,10094,38341,27828,3
0,0,0,17169,10383,10094,38463,27800,3
0,0,0,17152,10394,10117,38341,27828,3
0,0,0,17169,10394,10094,38341,27856,3
0,0,0,17169,10394,10083,38341,27745,3
0,0,0,17169,10371,10071,38341,27773,3
0,0,0,17152,10359,10071,38260,27800,3
0,0,0,17152,10348,10049,38260,27800,3
0,0,0,17152,10348,10049,38220,27718,3
0,0,0,17135,10348,10060,38260,27718,3
0,0,0,17152,10348,10071,38260,27800,3
0,0,0,17152,10325,10071,38301,27856,3
0,0,0,17152,10348,10071,38260,27856,3
0,0,0,17152,10348,10094,38220,27800,3
0,0,0,17135,10348,10163,38180,27939,3
0,0,0,17152,10348,10394,38341,28612,3
0,0,0,17289,10371,10915,38707,30286,3
0,0,0,17357,10359,11304,38666,31849,3
0,0,0,17392,10394,11403,39077,32238,3
0,0,0,17374,10418,11366,39202,31978,3
0,0,0,17426,10441,11366,38995,32173,3
0,0,0,17495,10441,11416,39244,32173,3
0,0,0,17530,10441,11354,39244,31752,3
0,0,0,17443,10441,11615,40088,31688,3
0,0,0,17426,10441,11503,39369,31087,3
0,0,0,17392,10453,11565,39369,31213,3
0,0,0,17426,10441,11754,39244,31529,3
0,0,0,17374,10453,11703,39244,31465,3
0,0,0,17374,10453,11792,39244,31978,3
0,0,0,17392,10464,11932,39160,32271,3
0,0,0,17374,10453,11906,39077,32566,3
0,0,0,17340,10441,11932,39077,32666,3
0,0,0,17357,10441,12267,38995,33576,3
0,0,0,17374,10464,12009,38912,33168,3
0,0,0,17374,10499,11970,38830,32932,3
0,0,0,17357,10511,11932,38707,33033,3
0,0,0,17357,10511,11804,38666,32633,3
0,0,0,17357,10511,11403,38995,32238,3
0,0,0,17306,10511,10819,38666,31881,3
0,0,0,17323,10488,10724,38748,31913,3
0,0,0,17323,10488,10748,38422,31913,3
0,0,0,17289,10464,10748,38341,31752,3
0,0,0,17323,10453,10927,38422,31752,3
0,0,0,17254,10453,10915,38341,31881,3
0,0,0,17254,10464,10819,38301,31752,3
0,0,0,17289,10488,10819,38422,31656,3
0,0,0,17220,10464,10843,38260,31720,3
0,0,0,17237,10476,10867,38422,31785,3
0,0,0,17220,10453,10891,38503,31720,3
0,0,0,17186,10464,10891,38544,31624,3
0,0,0,17203,10453,10879,38382,31624,3
0,0,0,17152,10464,10891,38544,31720,3
0,0,0,17152,10488,10879,38748,32271,3
0,0,0,17169,10464,10879,38830,33439,3
0,0,0,17237,10488,10843,39244,35935,3
0,0,0,17323,10535,10867,39244,37583,3
0,0,0,17374,10546,10879,39832,38260,3
0,0,0,17426,10629,10915,40259,38260,3
0,0,0,17513,10653,10927,40088,38019,3
0,0,0,17495,10676,10963,39917,38100,3
0,0,0,17530,10676,10915,39494,39244,3
0,0,0,17547,10688,10975,39327,40002,3
0,0,0,17565,10724,11219,39494,40519,3
0,0,0,17565,10724,11329,39747,41221,3
0,0,0,17565,10688,11354,39536,41984,3
0,0,0,17565,10676,11304,39327,42580,3
0,0,0,17565,10676,11255,39160,41938,3
0,0,0,17530,10700,11157,38995,41938,3
0,0,0,17582,10676,11060,38871,41622,3
0,0,0,17565,10688,11024,38830,41577,3
0,0,0,17634,10700,10915,38748,41893,3
0,0,0,17634,10676,10771,38625,41848,3
0,0,0,17634,10724,10795,38463,42075,3
0,0,0,17669,10676,10771,38422,42395,3
0,0,0,17739,10676,10748,38422,42212,3
0,0,0,17774,10629,10855,38503,41848,3
0,0,0,17774,10641,10831,38585,41488,3
0,0,0,17757,10629,10831,38585,41354,3
0,0,0,17774,10629,10819,38748,40955,3
0,0,0,17774,10641,10831,38707,41000,3
0,0,0,17739,10629,10819,38707,41000,3
0,0,0,17739,10653,10843,38666,41044,3
0,0,0,17774,10653,11036,38666,40693,3
0,0,0,17739,10629,11012,38830,40432,3
0,0,0,17739,10641,11012,38871,40088,3
0,0,0,17722,10629,11024,38830,40002,3
0,0,0,17722,10629,11231,38912,39705,3
0,0,0,17722,10629,11206,39119,38995,3
0,0,0,17704,10629,11219,38912,38995,3
0,0,0,17669,10629,11206,38953,39036,3
0,0,0,17704,10629,11255,38912,38912,3
0,0,0,17722,10629,11206,38912,38830,3
0,0,0,17704,10629,11219,38995,38666,3
0,0,0,17704,10629,11219,38912,38830,3
0,0,0,17704,10629,11084,38912,38871,3
0,0,0,17704,10688,10879,38830,38748,3
0,0,0,17739,10748,10819,38912,38503,3
0,0,0,17704,10748,10771,38830,38341,3
0,0,0,17722,10748,10748,38871,38503,3
0,0,0,17722,10748,10748,38748,38422,3
0,0,0,17739,10712,10771,38748,38341,3
0,0,0,17704,10712,10771,38953,38301,3
0,0,0,17704,10676,10759,38748,38382,3
0,0,0,17704,10700,10771,38830,38544,3
0,0,0,17669,10688,10771,38995,38341,3
0,0,0,17652,10676,10771,39077,37940,3
0,0,0,17652,10676,10771,38871,38019,3
0,0,0,17634,10688,10748,38830,37940,3
0,0,0,17634,10676,10771,38871,37860,3
0,0,0,17600,10688,10771,38871,37860,3
0,0,0,17600,10688,10771,38871,37701,3
0,0,0,17565,10688,10771,38871,37622,3
0,0,0,17565,10676,10783,38830,37583,3
0,0,0,17582,10676,10795,38830,37583,3
0,0,0,17530,10688,10819,38830,37543,3
0,0,0,17565,10676,10819,38748,37701,3
0,0,0,17565,10700,10819,38830,37465,3
0,0,0,17530,10688,10819,38748,37504,3
0,0,0,17565,10688,10795,38748,37543,3
0,0,0,17565,10700,10795,38789,37583,3
0,0,0,17513,10700,10795,38830,37426,3
0,0,0,17565,10724,10819,38871,37465,3
0,0,0,17513,10688,10819,38830,37426,3
0,0,0,17530,10712,10795,38830,37347,3
0,0,0,17565,10724,10819,38748,37308,3
0,0,0,17495,10724,10819,38707,37386,3
0,0,0,17547,10748,10819,38625,37308,3
0,0,0,17530,10724,10831,38666,37308,3
0,0,0,17495,10724,10819,38707,37191,3
0,0,0,17495,10748,10819,38748,37269,3
0,0,0,17495,10724,10819,38748,37152,3
0,0,0,17495,10748,10819,38748,37152,3
0,0,0,17495,10724,10819,38748,36998,3
0,0,0,17461,10748,10855,38748,36920,3
0,0,0,17495,10748,10831,38830,36843,3
0,0,0,17426,10724,10831,38625,36843,3
0,0,0,17443,10724,10819,38585,36767,3
0,0,0,17461,10724,10795,38585,36767,3
0,0,0,17426,10748,10795,38666,36690,3
0,0,0,17374,10724,10807,38503,36614,3
0,0,0,17426,10748,10819,38585,36690,3
0,0,0,17357,10748,10783,38544,36614,3
0,0,0,17426,10724,10771,38503,36690,3
0,0,0,17392,10748,10700,38503,36690,3
0,0,0,17357,10748,10605,38544,36614,3
0,0,0,17357,10748,10441,38503,36614,3
0,0,0,17357,10724,10371,38382,36424,3
0,0,0,17357,10676,10336,38341,36499,3
0,0,0,17357,10641,10325,38220,36462,3
0,0,0,17357,10605,10325,38382,36499,3
0,0,0,17306,10558,10301,38260,36538,3
0,0,0,17357,10535,10290,38180,36538,3
0,0,0,17461,10546,10301,38180,36538,3
0,0,0,17565,10558,10278,38463,36348,3
0,0,0,17495,10582,10267,38341,36386,3
0,0,0,17374,10535,10255,38382,36235,3
0,0,0,17340,10535,10255,38260,36310,3
0,0,0,17443,10535,10232,38341,36197,3
0,0,0,17739,10511,10255,38422,35972,3
0,0,0,18272,10488,10255,38544,35749,3
0,0,0,18562,10441,10255,38341,35565,3
0,0,0,18562,10394,10301,38260,35418,3
0,0,0,18362,10394,10301,38100,35272,3
0,0,0,18147,10394,10394,38180,34982,3
0,0,0,17845,10371,10511,37781,34910,3
0,0,0,17704,10348,10641,37701,35018,3
0,0,0,17495,10301,10676,37622,34982,3
0,0,0,17426,10255,10676,37543,35749,3
0,0,0,17237,10255,10676,37465,35565,3
0,0,0,17254,10232,10594,37622,35492,3
0,0,0,17254,10209,10453,37465,35236,3
0,0,0,17220,10186,10406,37543,35055,3
0,0,0,17186,10186,10418,37543,34874,3
0,0,0,17152,10174,10418,37465,34660,3
0,0,0,17186,10174,10406,37465,34696,3
0,0,0,17220,10174,10418,37426,34696,3
0,0,0,17254,10163,10406,37543,34624,3
0,0,0,17357,10163,10394,37543,34696,3
0,0,0,17426,10163,10406,37701,34624,3
0,0,0,17461,10163,10394,37701,34412,3
0,0,0,17530,10163,10453,37701,34767,3
0,0,0,17634,10163,10594,38019,35055,3
0,0,0,17774,10163,10511,38019,34696,3
0,0,0,17862,10140,10406,38100,34624,3
0,0,0,17845,10129,10394,37980,34412,3
0,0,0,17898,10117,10325,38019,34341,3
0,0,0,17915,10117,10221,37900,34200,3
0,0,0,17915,10117,10174,37701,34165,3
0,0,0,17880,10117,10197,37662,33991,3
0,0,0,17792,10094,10174,37543,33748,3
0,0,0,17774,10117,10197,37543,33645,3
0,0,0,17739,10117,10174,37386,33576,3
0,0,0,17774,10117,10186,37465,33439,3
0,0,0,17739,10117,10174,37386,33405,3
0,0,0,17722,10094,10174,37347,33474,3
0,0,0,17774,10094,10174,37386,33474,3
0,0,0,17739,10094,10174,37347,33405,3
0,0,0,17739,10083,10163,37347,33439,3
0,0,0,17739,10094,10174,37347,33439,3
0,0,0,17722,10083,10197,37347,33439,3
0,0,0,17739,10083,10186,37386,33474,3
0,0,0,18147,10106,10174,38503,33852,3
0,0,0,18200,10140,10163,39036,33852,3
0,0,0,18057,10129,10186,38995,33714,3
0,0,0,18057,10140,10209,38912,33611,3
0,0,0,18057,10140,10186,38871,33679,3
0,0,0,18057,10129,10174,38748,33748,3
0,0,0,18057,10140,10174,38748,33714,3
0,0,0,18057,10129,10163,38666,33679,3
0,0,0,18147,10117,10152,38830,33645,3
0,0,0,18004,10140,10117,38707,33714,3
0,0,0,17565,10106,10117,38789,33645,3
0,0,0,17289,10117,10117,38830,33508,3
0,0,0,17220,10129,10117,38585,33645,3
0,0,0,17220,10129,10106,38707,33611,3
0,0,0,17220,10140,10117,38666,33748,3
0,0,0,17220,10140,10140,38830,33576,3
0,0,0,17237,10163,10140,38748,33576,3
0,0,0,17237,10163,10140,38748,33611,3
0,0,0,17186,10174,10163,38707,33576,3
0,0,0,17186,10209,10163,38789,33474,3
0,0,0,17186,10209,10140,38748,33508,3
0,0,0,17186,10209,10152,38748,33645,3
0,0,0,17237,10209,10140,38666,33576,3
0,0,0,17220,10209,10163,38666,33474,3
0,0,0,17203,10221,10163,38666,33508,3
0,0,0,17186,10221,10163,38666,33542,3
0,0,0,17169,10209,10140,38585,33508,3
0,0,0,17220,10232,10174,38585,33576,3
0,0,0,17186,10209,10163,38666,33439,3
0,0,0,17203,10221,10174,38585,33576,3
0,0,0,17186,10221,10186,38666,33474,3
0,0,0,17152,10255,10174,38585,33439,3
0,0,0,17152,10371,10163,38503,33439,3
0,0,0,17152,10383,10163,38503,33405,3
0,0,0,17152,10348,10174,38585,33371,3
0,0,0,17135,10371,10174,38382,33303,3
0,0,0,17084,10348,10174,38503,33236,3
0,0,0,17084,10394,10174,38382,33371,3
0,0,0,17084,10418,10174,38422,33269,3
0,0,0,17084,10441,10174,38422,33100,3
0,0,0,17050,10464,10174,38422,33202,3
0,0,0,17033,10441,10174,38301,33168,3
0,0,0,17084,10441,10163,38341,33168,3
0,0,0,17033,10394,10174,38341,33236,3
0,0,0,17033,10383,10163,38341,33236,3
0,0,0,17016,10371,10163,38180,33168,3
0,0,0,17033,10313,10163,38260,33100,3
0,0,0,17050,10301,10163,38341,33067,3
0,0,0,17016,10301,10163,38260,33168,3
0,0,0,17016,10301,10140,38180,33134,3
0,0,0,17016,10301,10140,38180,33134,3
0,0,0,16999,10278,10163,38180,33033,3
0,0,0,17016,10278,10174,38180,33100,3
0,0,0,16966,10278,10152,38180,33033,3
0,0,0,16983,10255,10163,38180,32999,3
0,0,0,16999,10267,10163,38059,33100,3
0,0,0,16966,10255,10163,38059,33168,3
0,0,0,16966,10267,10163,38019,33168,3
0,0,0,16966,10301,10174,38019,33033,3
0,0,0,16966,10255,10129,37940,33033,3
0,0,0,16949,10255,10152,37940,32899,3
0,0,0,16949,10232,10140,38019,32966,3
0,0,0,17016,10209,10174,38059,32732,3
0,0,0,16966,10209,10174,37860,32699,3
0,0,0,16966,10209,10174,37980,32666,3
0,0,0,17016,10209,10163,37940,32666,3
0,0,0,16949,10209,10174,37900,32599,3
0,0,0,16966,10209,10174,37940,32666,3
0,0,0,16932,10186,10197,37940,32799,3
0,0,0,16949,10209,10174,37980,32666,3
0,0,0,16966,10209,10186,37940,32566,3
0,0,0,16949,10209,10209,37940,32566,3
0,0,0,16966,10209,10209,38019,32566,3
0,0,0,16949,10209,10209,37940,32402,3
0,0,0,16949,10209,10209,37980,32566,3
0,0,0,16932,10209,10197,37940,32599,3
0,0,0,16915,10221,10197,37980,32500,3
0,0,0,16949,10232,10209,37940,32303,3
0,0,0,16915,10255,10186,38019,32303,3
0,0,0,16915,10313,10174,37940,32303,3
0,0,0,16915,10371,10174,37980,32271,3
0,0,0,16882,10406,10197,37980,32303,3
0,0,0,16882,10418,10174,37860,32303,3
0,0,0,16898,10418,10209,37980,32238,3
0,0,0,16882,10418,10209,37900,32075,3
0,0,0,16882,10441,10221,37980,32108,3
0,0,0,16882,10418,10209,37860,32010,3
0,0,0,16882,10418,10209,37860,31978,3
0,0,0,16882,10441,10209,37860,31913,3
0,0,0,16882,10418,10221,37781,31913,3
0,0,0,16882,10441,10209,37781,31881,3
0,0,0,16882,10441,10209,37781,31817,3
0,0,0,16848,10441,10209,37860,31785,3
0,0,0,16848,10441,10209,37860,31849,3
0,0,0,16848,10429,10209,37900,31752,3
0,0,0,16815,10418,10221,37820,31849,3
0,0,0,16815,10418,10209,37860,31881,3
0,0,0,16815,10441,10209,37820,31849,3
0,0,0,16815,10418,10209,37860,31752,3
0,0,0,16831,10429,10209,37781,31785,3
0,0,0,16831,10429,10232,37860,31785,3
0,0,0,16831,10441,10209,37860,31785,3
0,0,0,16831,10429,10244,37940,31849,3
0,0,0,16815,10441,10255,37860,31849,3
0,0,0,16831,10453,10255,37741,31785,3
0,0,0,16831,10418,10255,37860,31785,3
0,0,0,16848,10441,10267,37781,31720,3
0,0,0,16831,10429,10255,37781,31720,3
0,0,0,16815,10441,10255,37781,31785,3
0,0,0,16831,10441,10267,37741,31720,3
0,0,0,16815,10453,10255,37741,31785,3
0,0,0,16831,10453,10267,37741,31720,3
0,0,0,16815,10453,10267,37701,31752,3
0,0,0,16831,10453,10267,37741,31688,3
0,0,0,16831,10441,10255,37741,31752,3
0,0,0,16815,10441,10232,37701,31785,3
0,0,0,16831,10418,10267,37701,31720,3
0,0,0,16815,10441,10267,37701,31752,3
0,0,0,16815,10441,10255,37701,31752,3
0,0,0,16765,10429,10255,37543,31720,3
0,0,0,16748,10453,10255,37543,31720,3
0,0,0,16698,10558,10255,37622,31624,3
0,0,0,16715,10511,10255,37622,31656,3
0,0,0,16748,10511,10255,37426,31656,3
0,0,0,16748,10488,10255,37465,31593,3
0,0,0,16748,10488,10255,37504,31465,3
0,0,0,16748,10476,10267,37386,31529,3
0,0,0,16781,10488,10255,37308,31529,3
0,0,0,16748,10488,10278,37347,31529,3
0,0,0,16748,10464,10267,37465,31402,3
0,0,0,16748,10476,10301,37347,31434,3
0,0,0,16815,10488,10313,37426,31465,3
0,0,0,16798,10464,10313,37347,31465,3
0,0,0,16815,10488,10313,37308,31529,3
0,0,0,16781,10488,10325,37308,31497,3
0,0,0,16765,10488,10325,37308,31434,3
0,0,0,16748,10488,10325,37347,31465,3
0,0,0,16765,10464,10348,37347,31465,3
0,0,0,16748,10441,10348,37308,31402,3
0,0,0,16765,10441,10348,37152,31402,3
0,0,0,16765,10441,10348,37269,31465,3
0,0,0,16748,10441,10348,37308,31339,3
0,0,0,16765,10464,10348,37230,31434,3
0,0,0,16748,10464,10371,37230,31465,3
0,0,0,16781,10499,10406,37308,30900,3
0,0,0,16748,10511,10394,37152,30869,3
0,0,0,16748,10511,10394,37152,30931,3
0,0,0,16715,10499,10383,37075,30994,3
0,0,0,16765,10499,10394,37075,30994,3
0,0,0,16748,10499,10394,37075,30962,3
0,0,0,16748,10464,10394,37152,30838,3
0,0,0,16765,10476,10441,37075,30807,3
0,0,0,16748,10488,10441,37075,30776,3
0,0,0,16815,10476,10441,37075,30962,3
0,0,0,16748,10476,10441,37114,30869,3
0,0,0,16748,10488,10441,37075,30962,3
0,0,0,16748,10464,10441,37036,30900,3
0,0,0,16781,10453,10441,36920,30994,3
0,0,0,16731,10441,10441,36998,30962,3
0,0,0,16748,10441,10441,36920,30900,3
0,0,0,16815,10453,10441,36959,30807,3
0,0,0,16748,10441,10464,36920,30776,3
0,0,0,16815,10441,10488,36998,30776,3
0,0,0,16781,10441,10488,36920,30838,3
0,0,0,16715,10441,10488,36920,30807,3
0,0,0,16715,10488,10488,36843,30869,3
0,0,0,16731,10582,10488,36805,30900,3
0,0,0,16698,10748,10488,36920,30900,3
0,0,0,16681,10771,10441,36843,30900,3
0,0,0,16715,10676,10406,36767,30994,3
0,0,0,16698,10653,10418,36767,31025,3
0,0,0,16681,10641,10418,36690,31025,3
0,0,0,16681,10653,10394,36690,30931,3
0,0,0,16681,10641,10418,36690,30838,3
0,0,0,16648,10641,10394,36690,30838,3
0,0,0,16648,10676,10371,36576,30715,3
0,0,0,16615,10676,10348,36614,30715,3
0,0,0,16615,10688,10359,36614,30715,3
0,0,0,16615,10688,10348,36614,30715,3
0,0,0,16632,10700,10348,36499,30715,3
0,0,0,16582,10676,10325,36538,30715,3
0,0,0,16598,10676,10336,36499,30653,3
0,0,0,16615,10676,10325,36462,30622,3
0,0,0,16582,10641,10348,36386,30684,3
0,0,0,16615,10629,10348,36499,30591,3
0,0,0,16582,10629,10348,36538,30684,3
0,0,0,16565,10605,10313,36499,30591,3
0,0,0,16549,10594,10313,36462,30776,3
0,0,0,16582,10582,10325,36462,30684,3
0,0,0,16582,10594,10313,36424,30561,3
0,0,0,16565,10594,10313,36462,30530,3
0,0,0,16549,10605,10313,36462,30591,3
0,0,0,16615,10594,10301,36462,30469,3
0,0,0,16582,10558,10301,36499,30499,3
0,0,0,16565,10535,10301,36538,30530,3
0,0,0,16549,10535,10301,36462,30561,3
0,0,0,16598,10535,10301,36538,30869,3
0,0,0,16598,10546,10301,36424,30838,3
0,0,0,16549,10546,10301,36499,30776,3
0,0,0,16549,10535,10301,36499,30715,3
0,0,0,16582,10511,10301,36462,30776,3
0,0,0,16549,10499,10290,36386,30776,3
0,0,0,16565,10511,10278,36386,30715,3
0,0,0,16549,10511,10267,36462,30622,3
0,0,0,16582,10499,10301,36462,30591,3
0,0,0,16549,10511,10290,36386,30499,3
0,0,0,16549,10499,10278,36462,30530,3
0,0,0,16565,10499,10290,36462,30591,3
0,0,0,16549,10488,10278,36424,30469,3
0,0,0,16565,10511,10267,36386,30530,3
0,0,0,16549,10511,10255,36386,30530,3
0,0,0,16549,10523,10255,36310,30469,3
0,0,0,16582,10535,10255,36386,30438,3
0,0,0,16516,10535,10255,36310,30408,3
0,0,0,16549,10535,10255,36386,30286,3
0,0,0,16549,10511,10255,36348,30347,3
0,0,0,16549,10511,10267,36462,30226,3
0,0,0,16549,10511,10267,36348,30226,3
0,0,0,16565,10511,10278,36348,30226,3
0,0,0,16565,10488,10278,36462,30165,3
0,0,0,16549,10499,10301,36348,30256,3
0,0,0,16565,10499,10301,36386,30165,3
0,0,0,16549,10511,10301,36310,30195,3
0,0,0,16532,10499,10301,36235,30226,3
0,0,0,16549,10499,10290,36272,30195,3
0,0,0,16516,10499,10278,36310,30226,3
0,0,0,16549,10511,10301,36348,30105,3
0,0,0,16549,10511,10267,36272,30105,3
0,0,0,16516,10499,10278,36310,30165,3
0,0,0,16532,10488,10301,36272,30165,3
0,0,0,16549,10488,10301,36310,30195,3
0,0,0,16516,10488,10278,36310,30226,3
0,0,0,16549,10488,10301,36310,30165,3
0,0,0,16549,10488,10301,36310,30165,3
0,0,0,16549,10453,10301,36310,30256,3
0,0,0,16499,10488,10301,36235,30226,3
0,0,0,16516,10453,10301,36310,30165,3
0,0,0,16516,10488,10313,36348,30165,3
0,0,0,16499,10488,10301,36310,30317,3
0,0,0,16499,10464,10313,36272,30499,3
0,0,0,16549,10441,10325,36310,30377,3
0,0,0,16516,10453,10348,36348,30408,3
0,0,0,16549,10453,10313,36310,30347,3
0,0,0,16516,10464,10325,36310,30377,3
0,0,0,16516,10464,10313,36197,30347,3
0,0,0,16549,10453,10325,36310,30377,3
0,0,0,16516,10441,10325,36160,30347,3
0,0,0,16516,10441,10325,36235,30286,3
0,0,0,16549,10453,10313,36310,30226,3
0,0,0,16549,10441,10348,36235,30286,3
0,0,0,16532,10441,10348,36235,30226,3
0,0,0,16499,10441,10325,36235,30165,3
0,0,0,16549,10441,10348,36160,30165,3
0,0,0,16516,10441,10336,36160,30105,3
0,0,0,16532,10441,10336,36160,30165,3
0,0,0,16516,10441,10371,36272,30105,3
0,0,0,16516,10441,10348,36272,30105,3
0,0,0,16516,10441,10348,36235,30045,3
0,0,0,16516,10441,10348,36235,30165,3
0,0,0,16483,10418,10325,36310,30105,3
0,0,0,16483,10441,10325,36310,29984,3
0,0,0,16483,10429,10348,36122,30105,3
0,0,0,16499,10441,10336,36122,30105,3
0,0,0,16516,10418,10325,36310,30105,3
0,0,0,16516,10371,10232,36085,30015,3
0,0,0,16483,10325,10129,36160,30015,3
0,0,0,16450,10267,10049,36010,30105,3
0,0,0,16417,10255,10003,35972,29984,3
0,0,0,16434,10221,10003,35972,30045,3
0,0,0,16417,10221,9969,35861,30045,3
0,0,0,16467,10209,9935,35898,30045,3
0,0,0,16483,10209,9912,35787,29925,3
0,0,0,16450,10209,9890,35861,29984,3
0,0,0,16417,10209,9901,35861,29984,3
0,0,0,16450,10209,9890,35824,29955,3
0,0,0,16450,10197,9912,35749,29984,3
0,0,0,16434,10221,9912,35787,30015,3
0,0,0,16417,10209,9912,35861,29955,3
0,0,0,16483,10209,9935,36010,29925,3
0,0,0,16450,10209,9946,35861,29984,3
0,0,0,16434,10209,9946,35861,29984,3
0,0,0,16450,10209,9958,35898,29895,3
0,0,0,16434,10244,9980,35861,29895,3
0,0,0,16434,10221,9969,35898,29895,3
0,0,0,16450,10232,9969,35935,29865,3
0,0,0,16434,10209,9980,35898,29865,3
0,0,0,16434,10221,10003,35935,29865,3
0,0,0,16434,10221,10003,35935,29835,3
0,0,0,16417,10232,10049,36010,29775,3
0,0,0,16450,10255,10049,35972,29421,3
0,0,0,16450,10232,10071,35972,29509,3
0,0,0,16467,10221,10037,35898,29509,3
0,0,0,16483,10221,10037,35935,29509,3
0,0,0,16434,10232,10026,35935,29509,3
0,0,0,16417,10232,10037,35935,29509,3
0,0,0,16434,10255,10049,35861,29421,3
0,0,0,16434,10232,10060,35935,29450,3
0,0,0,16450,10244,10049,35824,29450,3
0,0,0,16417,10221,10026,35898,29479,3
0,0,0,16450,10209,10026,35861,29333,3
0,0,0,16434,10209,10026,35898,29304,3
0,0,0,16434,10209,10026,35861,29304,3
0,0,0,16417,10209,10049,35787,29304,3
0,0,0,16467,10221,10071,35861,29158,3
0,0,0,16417,10209,10117,35861,28984,3
0,0,0,16434,10209,10117,35787,28955,3
0,0,0,16417,10209,10106,35749,29071,3
0,0,0,16467,10209,10071,35749,28927,3
0,0,0,16450,10209,10071,35824,28927,3
0,0,0,16434,10209,10071,35861,28898,3
0,0,0,16417,10209,10071,35787,28955,3
0,0,0,16450,10209,10071,35787,28927,3
0,0,0,16434,10186,10071,35824,28898,3
0,0,0,16434,10209,10071,35749,28927,3
0,0,0,16417,10209,10060,35712,28840,3
0,0,0,16417,10209,10071,35749,28869,3
0,0,0,16417,10209,10071,35712,28927,3
0,0,0,16483,10209,10071,35712,29042,3
0,0,0,16434,10209,10094,35676,28927,3
0,0,0,16417,10209,10117,35712,28927,3
0,0,0,16450,10186,10083,35712,28927,3
0,0,0,16401,10209,10083,35712,28869,3
0,0,0,16450,10209,10094,35639,28927,3
0,0,0,16417,10209,10083,35749,28898,3
0,0,0,16434,10209,10083,35712,28869,3
0,0,0,16450,10209,10094,35676,28869,3
0,0,0,16467,10209,10083,35639,28840,3
0,0,0,16417,10209,10083,35712,28955,3
0,0,0,16417,10209,10083,35639,28869,3
0,0,0,16434,10209,10083,35712,28927,3
0,0,0,16434,10209,10094,35676,28869,3
0,0,0,16434,10209,10117,35712,28927,3
0,0,0,16483,10209,10163,35712,28812,3
0,0,0,16434,10209,10163,35712,28783,3
0,0,0,16434,10209,10163,35749,28754,3
0,0,0,16450,10209,10163,35712,28812,3
0,0,0,16434,10209,10163,35749,28697,3
0,0,0,16434,10209,10163,35712,28697,3
0,0,0,16467,10209,10163,35712,28754,3
0,0,0,16434,10209,10163,35749,28697,3
0,0,0,16417,10221,10163,35787,28640,3
0,0,0,16434,10221,10163,35749,28754,3
0,0,0,16417,10209,10163,35861,28697,3
0,0,0,16450,10221,10174,35787,28669,3
0,0,0,16434,10232,10186,35712,28754,3
0,0,0,16450,10221,10174,35712,28697,3
0,0,0,16434,10232,10186,35824,28697,3
0,0,0,16467,10232,10163,35749,28697,3
0,0,0,16434,10232,10174,35824,28669,3
0,0,0,16450,10221,10174,35712,28726,3
0,0,0,16450,10221,10174,35639,28640,3
0,0,0,16434,10221,10174,35861,28697,3
0,0,0,16434,10232,10174,35712,28754,3
0,0,0,16417,10221,10174,35749,28726,3
0,0,0,16434,10221,10163,35861,28640,3
0,0,0,16450,10209,10174,35861,28697,3
0,0,0,16434,10221,10174,35676,28726,3
0,0,0,16483,10209,10174,35749,28697,3
0,0,0,16483,10232,10209,35787,28640,3
0,0,0,16483,10232,10209,35749,28640,3
0,0,0,16483,10232,10221,35749,28583,3
0,0,0,16450,10244,10232,35712,28583,3
0,0,0,16499,10232,10255,35787,28640,3
0,0,0,16483,10232,10255,35787,28583,3
0,0,0,16483,10232,10232,35787,28527,3
0,0,0,16483,10255,10255,35749,28442,3
0,0,0,16499,10255,10255,35639,28414,3
0,0,0,16483,10255,10255,35749,28414,3
0,0,0,16483,10232,10267,35712,28470,3
0,0,0,16499,10232,10267,35639,28414,3
0,0,0,16499,10232,10255,35676,28357,3
0,0,0,16499,10255,10267,35712,28385,3
0,0,0,16516,10255,10267,35639,28357,3
0,0,0,16516,10255,10278,35787,28357,3
0,0,0,16516,10255,10278,35787,28301,3
0,0,0,16499,10267,10255,35712,28357,3
0,0,0,16516,10278,10255,35787,28357,3
0,0,0,16532,10255,10255,35712,28301,3
0,0,0,16549,10267,10255,35712,28357,3
0,0,0,16499,10278,10255,35861,28329,3
0,0,0,16549,10267,10267,35749,28301,3
0,0,0,16516,10255,10255,35787,28357,3
0,0,0,16549,10267,10267,35824,28357,3
0,0,0,16549,10255,10255,35861,28357,3
0,0,0,16516,10278,10278,35861,28133,3
0,0,0,16565,10301,10267,35787,28049,3
0,0,0,16565,10301,10255,35824,28022,3
0,0,0,16598,10301,10278,35824,27994,3
0,0,0,16615,10301,10267,35787,28049,3
0,0,0,16648,10301,10267,35749,27966,3
0,0,0,16632,10301,10278,35712,27911,3
0,0,0,16632,10301,10278,35861,27856,3
0,0,0,16648,10301,10278,35712,27856,3
0,0,0,16648,10301,10267,35861,27745,3
0,0,0,16648,10301,10278,35749,27745,3
0,0,0,16648,10301,10267,35712,27800,3
0,0,0,16615,10301,10278,35712,27718,3
0,0,0,16681,10301,10267,35824,27691,3
0,0,0,16632,10301,10255,35787,27745,3
0,0,0,16648,10301,10278,35749,27691,3
0,0,0,16665,10301,10278,35787,27745,3
0,0,0,16665,10301,10278,35749,27691,3
0,0,0,16681,10301,10290,35712,27800,3
0,0,0,16615,10301,10278,35676,27800,3
0,0,0,16615,10301,10267,35639,27800,3
0,0,0,16681,10325,10267,35861,27745,3
0,0,0,16681,10301,10278,35712,27718,3
0,0,0,16815,10301,10267,35676,27828,3
0,0,0,16798,10313,10267,35639,28022,3
0,0,0,16781,10313,10267,35712,28301,3
0,0,0,16731,10301,10255,35712,28245,3
0,0,0,16781,10325,10255,35749,28161,3
0,0,0,16748,10325,10255,35639,28217,3
0,0,0,16765,10313,10255,35712,28133,3
0,0,0,16748,10325,10255,35712,28133,3
0,0,0,16765,10301,10255,35639,28077,3
0,0,0,16765,10301,10255,35712,28077,3
0,0,0,16748,10313,10255,35712,28077,3
0,0,0,16715,10325,10255,35639,28049,3
0,0,0,16748,10325,10255,35639,27939,3
0,0,0,16781,10325,10255,35676,28022,3
0,0,0,16748,10313,10255,35787,28022,3
0,0,0,16748,10325,10267,35712,27939,3
0,0,0,16748,10348,10255,35749,28049,3
0,0,0,16731,10325,10267,35712,28049,3
0,0,0,16731,10325,10278,35639,28022,3
0,0,0,16748,10325,10278,35787,27966,3
0,0,0,16748,10348,10255,35676,28189,3
0,0,0,16765,10348,10267,35712,28527,3
0,0,0,16781,10348,10348,35824,29450,3
0,0,0,16815,10418,10629,36085,30530,3
0,0,0,16966,10441,10688,36160,30900,3
0,0,0,16949,10441,10724,36047,31593,3
0,0,0,17016,10453,10867,36197,31978,3
0,0,0,17033,10441,10831,36122,31817,3
0,0,0,16983,10441,10915,36160,32108,3
0,0,0,16999,10441,10915,36122,32010,3
0,0,0,16966,10441,10891,36010,32140,3
0,0,0,16966,10441,10879,36010,32010,3
0,0,0,16983,10441,10879,35824,32140,3
0,0,0,16949,10441,10939,35749,32010,3
0,0,0,16949,10441,10927,35565,31624,3
0,0,0,16949,10441,10915,35565,31624,3
0,0,0,16915,10429,11157,35565,31913,3
0,0,0,16915,10418,11121,35236,31402,3
0,0,0,16882,10429,11084,35018,31593,3
0,0,0,16882,10418,11060,34982,31849,3
0,0,0,16882,10441,11084,34910,31913,3
0,0,0,16865,10441,11060,34874,31849,3
0,0,0,16815,10441,11036,34946,31720,3
0,0,0,16765,10441,11036,34696,31720,3
0,0,0,16731,10441,11024,34696,32010,3
0,0,0,16648,10441,10987,34624,31881,3
0,0,0,16665,10441,10951,34412,31817,3
0,0,0,16615,10453,10915,34271,31720,3
0,0,0,16615,10441,10891,34235,31656,3
0,0,0,16648,10453,10783,34200,31593,3
0,0,0,16615,10453,10748,33991,31497,3
0,0,0,16615,10464,10748,34026,31465,3
0,0,0,16598,10464,10724,33991,31465,3
0,0,0,16565,10441,10629,33921,31593,3
0,0,0,16582,10441,10605,33921,31785,3
0,0,0,16615,10441,10594,33852,31752,3
0,0,0,16565,10441,10605,33714,31624,3
0,0,0,16615,10418,10582,33852,31720,3
0,0,0,16565,10406,10488,33852,31785,3
0,0,0,16565,10394,10418,33783,31752,3
0,0,0,16565,10371,10406,33817,31656,3
0,0,0,16549,10348,10313,33852,31593,3
0,0,0,16582,10301,10209,33852,31529,3
0,0,0,16549,10267,10083,33748,31593,3
0,0,0,16582,10232,9935,33852,31752,3
0,0,0,16632,10209,9867,33887,31785,3
0,0,0,16632,10174,9755,33852,31785,3
0,0,0,16665,10174,9710,33783,31720,3
0,0,0,16615,10163,9632,33748,31656,3
0,0,0,16648,10140,9632,33748,31656,3
0,0,0,16598,10163,9621,33576,31752,3
0,0,0,16582,10140,9621,33645,31720,3
0,0,0,16582,10163,9621,33611,31624,3
0,0,0,16615,10140,9599,33645,31720,3
0,0,0,16582,10163,9621,33576,31593,3
0,0,0,16582,10140,9621,33714,31720,3
0,0,0,16582,10163,9621,33714,31752,3
0,0,0,16565,10163,9621,33748,31913,3
0,0,0,16549,10140,9621,33714,31913,3
0,0,0,16565,10140,9621,33714,31849,3
0,0,0,16549,10140,9621,33645,31849,3
0,0,0,16532,10140,9621,33645,31817,3
0,0,0,16549,10117,9621,33645,31785,3
0,0,0,16516,10129,9621,33645,31752,3
0,0,0,16516,10140,9621,33645,31849,3
0,0,0,16549,10163,9621,33645,32205,3
0,0,0,16516,10129,9621,33611,32238,3
0,0,0,16516,10129,9632,33645,32140,3
0,0,0,16516,10140,9666,33611,32140,3
0,0,0,16549,10129,9666,33645,32238,3
0,0,0,16516,10140,9666,33748,32238,3
0,0,0,16483,10152,9677,33611,32140,3
0,0,0,16549,10163,9688,33576,32108,3
0,0,0,16532,10140,9666,33714,32108,3
0,0,0,16532,10129,9710,33576,32108,3
0,0,0,16499,10163,9710,33576,32075,3
0,0,0,16467,10140,9710,33645,32108,3
0,0,0,16483,10163,9721,33576,31978,3
0,0,0,16483,10140,9710,33542,32043,3
0,0,0,16483,10140,9710,33576,32043,3
0,0,0,16483,10163,9710,33611,31913,3
0,0,0,16483,10163,9710,33679,32108,3
0,0,0,16483,10163,9733,33611,31913,3
0,0,0,16483,10163,9733,33576,31849,3
0,0,0,16483,10174,9721,33508,31849,3
0,0,0,16483,10163,9710,33371,31529,3
0,0,0,16483,10174,9710,33474,31593,3
0,0,0,16483,10163,9699,33439,31593,3
0,0,0,16483,10163,9710,33439,31561,3
0,0,0,16483,10163,9710,33474,31529,3
0,0,0,16450,10163,9710,33474,31593,3
0,0,0,16450,10163,9710,33439,31561,3
0,0,0,16483,10163,9710,33371,31593,3
0,0,0,16467,10174,9710,33508,31593,3
0,0,0,16483,10174,9721,33508,31656,3
0,0,0,16450,10163,9710,33371,31688,3
0,0,0,16434,10174,9710,33508,31624,3
0,0,0,16434,10174,9721,33576,31720,3
0,0,0,16483,10163,9710,33371,31656,3
0,0,0,16450,10186,9721,33439,31688,3
0,0,0,16450,10186,9755,33508,31752,3
0,0,0,16483,10197,9788,33405,31593,3
0,0,0,16467,10209,9800,33439,31529,3
0,0,0,16450,10209,9811,33405,31561,3
0,0,0,16417,10209,9811,33474,31656,3
0,0,0,16483,10209,9845,33439,31434,3
0,0,0,16483,10209,9845,33439,31307,3
0,0,0,16483,10209,9890,33439,31213,3
0,0,0,16499,10209,9935,33337,31181,3
0,0,0,16483,10232,9935,33508,31213,3
0,0,0,16516,10221,9901,33474,31150,3
0,0,0,16483,10209,9890,33439,31119,3
0,0,0,16483,10232,9901,33474,31150,3
0,0,0,16483,10174,9845,33508,31150,3
0,0,0,16483,10129,9766,33576,31181,3
0,0,0,16483,10083,9710,33439,31025,3
0,0,0,16516,10071,9677,33439,30962,3
0,0,0,16532,10060,9666,33405,31087,3
0,0,0,16516,10037,9666,33474,31025,3
0,0,0,16565,10026,9643,33439,31119,3
0,0,0,16565,10003,9643,33439,31150,3
0,0,0,16748,9992,9621,33371,31087,3
0,0,0,16915,10003,9599,33474,31025,3
0,0,0,17135,9980,9577,33474,31087,3
0,0,0,17152,9980,9544,33474,30994,3
0,0,0,17152,9980,9555,33371,30962,3
0,0,0,17118,9980,9555,33439,30900,3
0,0,0,17186,9980,9555,33405,30900,3
0,0,0,17220,9980,9577,33405,30838,3
0,0,0,17220,9980,9588,33439,30838,3
0,0,0,17254,9958,9599,33474,30869,3
0,0,0,17306,9958,9621,33474,30838,3
0,0,0,17220,9946,9621,33439,30869,3
0,0,0,17220,9980,9632,33439,30869,3
0,0,0,17152,10003,9666,33474,30900,3
0,0,0,17169,9969,9710,33474,30962,3
0,0,0,17101,9980,9721,33371,30994,3
0,0,0,17084,9958,9845,33714,31119,3
0,0,0,17084,9958,9890,33714,31181,3
0,0,0,17084,9946,10071,33679,31181,3
0,0,0,17016,9958,10060,33611,31150,3
0,0,0,17050,9980,10049,33645,31150,3
0,0,0,17033,9969,10037,33576,31119,3
0,0,0,17016,9980,10037,33645,31276,3
0,0,0,16949,9969,10026,33576,31213,3
0,0,0,16983,9980,10003,33576,31276,3
0,0,0,16949,10003,9980,33474,31150,3
0,0,0,16949,10026,9935,33439,31213,3
0,0,0,16932,10083,9845,33576,31213,3
0,0,0,16898,10163,9800,33508,31213,3
0,0,0,16915,10267,9777,33542,31150,3
0,0,0,16949,10441,9845,33645,31213,3
0,0,0,16915,10676,9935,33714,31150,3
0,0,0,16882,10819,9980,33645,31087,3
0,0,0,16898,10963,10026,33714,31087,3
0,0,0,16915,11304,10026,33748,30994,3
0,0,0,16831,11578,10014,33748,31119,3
0,0,0,16831,11678,10026,33817,31087,3
0,0,0,16815,11553,10026,33611,31025,3
0,0,0,16815,11453,10026,33645,30962,3
0,0,0,16815,11403,10037,33611,31025,3
0,0,0,16781,11354,10049,33645,30994,3
0,0,0,16765,11304,10071,33714,31025,3
0,0,0,16781,11268,10094,33645,31025,3
0,0,0,16781,11255,10094,33714,30994,3
0,0,0,16798,11231,10083,33645,31087,3
0,0,0,16765,11255,10117,33645,31025,3
0,0,0,16781,11255,10117,33714,30994,3
0,0,0,16731,11231,10117,33645,31087,3
0,0,0,16748,11206,10117,33679,31150,3
0,0,0,16748,11206,10129,33748,31087,3
0,0,0,16765,11194,10129,33714,31056,3
0,0,0,16748,11194,10117,33679,31087,3
0,0,0,16715,11182,10129,33645,31150,3
0,0,0,16715,11084,10129,33576,31025,3
0,0,0,16715,11024,10117,33542,30962,3
0,0,0,16715,10975,10117,33508,30994,3
0,0,0,16698,10987,10117,33508,30900,3
0,0,0,16698,10915,10117,33439,30900,3
0,0,0,16681,10891,10094,33303,30838,3
0,0,0,16765,10867,10083,33371,30869,3
0,0,0,16748,10819,10117,33202,31150,3
0,0,0,16549,10771,10267,33033,31817,3
0,0,0,16125,10700,10359,33033,32205,3
0,0,0,15553,10594,10418,33576,33033,3
0,0,0,15058,10488,10394,34026,33748,3
0,0,0,14907,10418,10278,33991,34271,3
0,0,0,14846,10267,10083,33956,34341,3
0,0,0,15119,10186,9946,34026,34130,3
0,0,0,15459,10129,9935,34165,34060,3
0,0,0,15710,10117,10003,34412,33748,3
0,0,0,15837,10117,9980,34553,33679,3
0,0,0,15932,10083,9980,34946,33576,3
0,0,0,15948,10083,9980,35199,33679,3
0,0,0,15900,10083,9980,35455,33542,3
0,0,0,15868,10117,9980,35382,33439,3
0,0,0,15868,10094,9969,35199,33439,3
0,0,0,15837,10094,9969,34982,33337,3
0,0,0,15837,10117,9980,34910,33168,3
0,0,0,15805,10117,9958,34982,33134,3
0,0,0,15773,10117,9935,34839,33202,3
0,0,0,15773,10117,9935,34839,33202,3
0,0,0,15757,10117,9935,34874,33168,3
0,0,0,15710,10094,9912,34696,33134,3
0,0,0,15726,10117,9924,34839,33100,3
0,0,0,15710,10117,9912,34731,33100,3
0,0,0,15678,10117,9935,34696,33033,3
0,0,0,15710,10094,9935,34696,33033,3
0,0,0,15726,10094,9935,34589,32899,3
0,0,0,15710,10094,9946,34696,32866,3
0,0,0,15710,10117,10003,34624,32899,3
0,0,0,15741,10129,10003,34553,32799,3
0,0,0,15710,10117,10003,34553,32832,3
0,0,0,15726,10129,10026,34553,32765,3
0,0,0,15678,10117,10003,34624,32832,3
0,0,0,15710,10129,10003,34660,32666,3
0,0,0,15678,10117,10003,34660,32666,3
0,0,0,15663,10140,9992,34482,32765,3
0,0,0,15647,10129,9980,34482,32765,3
0,0,0,15663,10129,9980,34553,32699,3
0,0,0,15631,10117,9980,34589,32633,3
0,0,0,15663,10129,9980,34589,32500,3
0,0,0,15647,10117,10003,34589,32533,3
0,0,0,15615,10140,9980,34482,32500,3
0,0,0,15615,10140,9980,34553,32467,3
0,0,0,15615,10140,9980,34482,32369,3
0,0,0,15647,10140,9980,34553,32500,3
0,0,0,15663,10140,9980,34553,32467,3
0,0,0,15647,10129,10003,34482,32435,3
0,0,0,15647,10163,9980,34482,32369,3
0,0,0,15647,10140,10003,34482,32369,3
0,0,0,15615,10163,9980,34482,32369,3
0,0,0,15647,10152,9980,34482,32369,3
0,0,0,15647,10163,9980,34553,32435,3
0,0,0,15615,10163,9992,34518,32402,3
0,0,0,15647,10209,10003,34589,32238,3
0,0,0,15741,10186,10003,34553,32271,3
0,0,0,15741,10209,10003,34518,32303,3
0,0,0,15741,10209,10003,34412,32238,3
0,0,0,15773,10209,10003,34553,32238,3
0,0,0,15773,10209,10026,34553,32238,3
0,0,0,15773,10209,10026,34518,32108,3
0,0,0,15741,10209,10037,34482,32108,3
0,0,0,15789,10209,10026,34553,32173,3
