GyroX,GyroY,GyroZ,Thumb,Index,Middle,Ring,Pinky,Gesture
0,0,0,14907,10209,23022,32566,30165,2
0,0,0,14876,10186,23022,32633,30286,2
0,0,0,14861,10209,22977,32599,30256,2
0,0,0,14876,10221,23044,32633,30226,2
0,0,0,14846,10255,22977,32633,30256,2
0,0,0,14861,10232,23022,32633,30105,2
0,0,0,15089,10232,23112,32699,30045,2
0,0,0,15412,10232,23203,32832,30105,2
0,0,0,15663,10232,23316,33236,30317,2
0,0,0,15789,10255,23431,33439,30469,2
0,0,0,15964,10267,23592,33921,30715,2
0,0,0,15980,10278,23661,34165,30776,2
0,0,0,15996,10290,23661,34095,30715,2
0,0,0,16028,10290,23684,34130,30745,2
0,0,0,15996,10301,23684,34130,30715,2
0,0,0,15996,10278,23684,34026,30745,2
0,0,0,16028,10313,23661,33991,30622,2
0,0,0,16060,10348,23661,33921,30653,2
0,0,0,16060,10325,23638,33991,30684,2
0,0,0,16093,10394,23661,34060,30715,2
0,0,0,16028,10394,23661,34026,30715,2
0,0,0,15980,10406,23615,33921,30715,2
0,0,0,15980,10441,23615,33921,30684,2
0,0,0,16060,10453,23592,33852,30653,2
0,0,0,16093,10499,23638,33817,30715,2
0,0,0,16028,10535,23661,33956,30776,2
0,0,0,16060,10546,23638,33852,30838,2
0,0,0,16060,10582,23661,33852,30869,2
0,0,0,16093,10558,23661,33921,30838,2
0,0,0,16060,10570,23661,33921,30715,2
0,0,0,16028,10535,23615,33921,30715,2
0,0,0,16028,10558,23615,33921,30776,2
0,0,0,16028,10546,23615,33991,30776,2
0,0,0,16044,10535,23592,33852,30622,2
0,0,0,16012,10535,23592,33783,30469,2
0,0,0,15964,10558,23661,33748,30165,2
0,0,0,15980,10535,23661,33645,29925,2
0,0,0,15647,10582,24058,34130,29746,2
0,0,0,15335,10771,24654,35565,29925,2
0,0,0,15366,10831,24799,36047,30075,2
0,0,0,15459,10867,24897,36047,30347,2
0,0,0,15537,10819,24946,36462,30591,2
0,0,0,15741,10771,25142,36805,30962,2
0,0,0,16060,10771,25365,37781,31624,2
0,0,0,16125,10771,25440,38100,31881,2
0,0,0,16254,10748,25515,38382,32369,2
0,0,0,16450,10748,25591,38830,32699,2
0,0,0,16582,10748,25641,39244,32932,2
0,0,0,16748,10771,25641,39119,32832,2
0,0,0,16748,10771,25540,38912,32699,2
0,0,0,16765,10771,25565,38912,32566,2
0,0,0,16815,10771,25465,38789,32633,2
0,0,0,16815,10771,25465,38748,32566,2
0,0,0,16831,10795,25390,38666,32566,2
0,0,0,16831,10819,25390,38544,32599,2
0,0,0,16815,10819,25365,38503,32566,2
0,0,0,16815,10819,25341,38422,32533,2
0,0,0,16798,10831,25316,38341,32500,2
0,0,0,16748,10843,25241,38220,32500,2
0,0,0,16748,10819,25291,38220,32599,2
0,0,0,16748,10843,25291,38100,32566,2
0,0,0,16748,10819,25291,38180,32402,2
0,0,0,16748,10819,25291,38059,32435,2
0,0,0,16748,10843,25291,38100,32500,2
0,0,0,16698,10843,25216,38019,32533,2
0,0,0,16681,10819,25216,38019,32500,2
0,0,0,16715,10819,25192,38100,32566,2
0,0,0,16698,10843,25241,38059,32533,2
0,0,0,16681,10867,25192,37940,32435,2
0,0,0,16648,10867,25118,37980,32566,2
0,0,0,16681,10867,25167,37980,32533,2
0,0,0,16648,10843,25118,38019,32566,2
0,0,0,16681,10771,25142,38019,32633,2
0,0,0,16932,10700,25365,38503,32666,2
0,0,0,17152,10700,25869,40389,34341,2
0,0,0,17220,10771,26618,42673,37075,2
0,0,0,17152,10783,27472,44389,38666,2
0,0,0,16966,10819,28133,45685,40649,2
0,0,0,16748,10855,28442,46249,41488,2
0,0,0,16615,10867,28414,46353,41757,2
0,0,0,16385,10867,28301,45838,41622,2
0,0,0,15964,10819,27745,44683,41221,2
0,0,0,14253,10819,27364,43759,40649,2
0,0,0,13622,10819,27364,43855,40432,2
0,0,0,13398,10831,27337,43903,40605,2
0,0,0,13371,10891,27283,44291,40955,2
0,0,0,13482,10975,27418,44881,41265,2
0,0,0,13482,11012,27472,45584,41488,2
0,0,0,13468,11012,27527,45889,41354,2
0,0,0,13622,11012,27581,46249,41399,2
0,0,0,13510,10891,27691,46353,41176,2
0,0,0,13068,10771,27418,46198,40259,2
0,0,0,13013,10676,27148,45787,38995,2
0,0,0,13566,10676,26882,45787,38140,2
0,0,0,14268,10700,26566,45584,37308,2
0,0,0,14370,10843,26305,45081,36614,2
0,0,0,14093,10915,26047,44487,35824,2
0,0,0,13792,10939,25920,44291,35639,2
0,0,0,13863,10915,26099,44340,35749,2
0,0,0,14518,10915,26176,44487,35528,2
0,0,0,14876,10891,26305,44291,35602,2
0,0,0,14937,10867,26357,44389,35418,2
0,0,0,14967,10855,26357,44291,35345,2
0,0,0,14922,10843,26305,44145,35236,2
0,0,0,14967,10843,26331,44145,35127,2
0,0,0,15058,10867,26409,44048,35055,2
0,0,0,15028,10915,26409,44048,34910,2
0,0,0,15058,10927,26461,43759,34874,2
0,0,0,15089,10963,26435,43759,34910,2
0,0,0,15058,11060,26513,43807,34696,2
0,0,0,15074,11060,26513,43855,34696,2
0,0,0,15058,11109,26461,43711,34767,2
0,0,0,15058,11121,26513,43807,34731,2
0,0,0,15043,11157,26513,43663,34767,2
0,0,0,15028,11157,26566,43711,34731,2
0,0,0,14952,11206,26513,43663,34731,2
0,0,0,14861,11268,26566,43615,34910,2
0,0,0,14801,11280,26513,43615,34946,2
0,0,0,14786,11304,26513,43472,34839,2
0,0,0,14786,11280,26461,43519,34839,2
0,0,0,14756,11304,26566,43519,34731,2
0,0,0,14741,11280,26513,43472,34696,2
0,0,0,14726,11304,26487,43519,34696,2
0,0,0,14741,11317,26461,43424,34553,2
0,0,0,14756,11317,26487,43424,34624,2
0,0,0,14696,11317,26461,43472,34696,2
0,0,0,14651,11304,26513,43329,34696,2
0,0,0,14636,11317,26513,43424,34624,2
0,0,0,14666,11304,26513,43424,34624,2
0,0,0,14607,11317,26461,43424,34660,2
0,0,0,14607,11304,26461,43472,34696,2
0,0,0,14636,11317,26513,43329,34696,2
0,0,0,14636,11317,26435,43329,34553,2
0,0,0,14621,11304,26487,43282,34660,2
0,0,0,14607,11304,26461,43377,34482,2
0,0,0,14607,11304,26513,43282,34589,2
0,0,0,14621,11292,26487,43377,34482,2
0,0,0,14636,11304,26435,43282,34482,2
0,0,0,14621,11304,26409,43329,34553,2
0,0,0,14636,11304,26461,43282,34624,2
0,0,0,14621,11280,26461,43377,34518,2
0,0,0,14621,11206,26409,43329,34341,2
0,0,0,14636,11012,26409,43377,34341,2
0,0,0,14771,10915,26409,43329,34376,2
0,0,0,14801,10891,26409,43329,34341,2
0,0,0,14967,10891,26357,43235,34376,2
0,0,0,15089,10891,26409,43424,34660,2
0,0,0,15211,10927,26409,43424,35309,2
0,0,0,15273,10927,26305,43377,36690,2
0,0,0,15273,10963,26305,43472,36310,2
0,0,0,15288,10987,26253,43235,36272,2
0,0,0,15335,11012,26253,43282,36160,2
0,0,0,15335,11060,26305,43093,35898,2
0,0,0,15412,11072,26253,43235,35712,2
0,0,0,15412,11096,26253,43140,35528,2
0,0,0,15428,11133,26331,43140,35455,2
0,0,0,15428,11157,26331,43093,35418,2
0,0,0,15475,11170,26279,43000,35272,2
0,0,0,15506,11182,26305,42953,35199,2
0,0,0,15459,11170,26305,43046,35199,2
0,0,0,15459,11157,26305,42953,35127,2
0,0,0,15553,11231,26305,42953,35055,2
0,0,0,15568,11255,26305,42953,34982,2
0,0,0,15584,11255,26279,42906,35018,2
0,0,0,15584,11255,26331,42953,34874,2
0,0,0,15584,11255,26305,43046,34874,2
0,0,0,15631,11304,26279,42953,34910,2
0,0,0,15647,11317,26253,43000,34839,2
0,0,0,15741,11341,26305,43046,35018,2
0,0,0,15757,11354,26305,42906,35127,2
0,0,0,15773,11354,26305,43000,35199,2
0,0,0,15741,11317,26331,43093,35127,2
0,0,0,15773,11317,26305,43046,35127,2
0,0,0,15805,11304,26253,42953,35272,2
0,0,0,15837,11255,26253,43093,35127,2
0,0,0,15884,11072,26253,43046,34767,2
0,0,0,16044,10891,26253,43329,34910,2
0,0,0,16157,10795,26047,43046,35528,2
0,0,0,16254,10771,25843,42626,35565,2
0,0,0,16303,10748,25641,42029,35565,2
0,0,0,16352,10759,25490,41399,35345,2
0,0,0,16287,10795,25390,41221,35163,2
0,0,0,16287,10819,25390,41044,34982,2
0,0,0,16352,10855,25440,41044,34910,2
0,0,0,16417,10915,25390,41044,34767,2
0,0,0,16549,10987,25440,41132,34553,2
0,0,0,16582,11036,25440,41132,34412,2
0,0,0,16615,11072,25440,41088,34200,2
0,0,0,16615,11109,25515,40912,34412,2
0,0,0,16615,11084,25490,40868,33921,2
0,0,0,16615,11121,25490,40912,33991,2
0,0,0,16615,11133,25440,40868,33887,2
0,0,0,16582,11206,25440,40868,33852,2
0,0,0,16615,11206,25440,40780,33921,2
0,0,0,16582,11255,25440,40780,33748,2
0,0,0,16565,11255,25440,40693,33817,2
0,0,0,16565,11304,25490,40736,33748,2
0,0,0,16549,11317,25440,40780,33645,2
0,0,0,16565,11354,25440,40824,33679,2
0,0,0,16565,11379,25515,40693,33714,2
0,0,0,16582,11403,25591,40780,33783,2
0,0,0,16532,11453,25515,40693,33748,2
0,0,0,16549,11453,25591,40824,33748,2
0,0,0,16549,11503,25591,40824,33783,2
0,0,0,16549,11465,25515,40693,33714,2
0,0,0,16549,11515,25515,40605,33748,2
0,0,0,16549,11528,25515,40736,33748,2
0,0,0,16549,11503,25515,40693,33576,2
0,0,0,16516,11490,25490,40780,33611,2
0,0,0,16549,11478,25465,40736,33611,2
0,0,0,16549,11528,25465,40780,33508,2
0,0,0,16549,11503,25490,40693,33542,2
0,0,0,16549,11553,25465,40693,33439,2
0,0,0,16516,11528,25490,40736,33371,2
0,0,0,16549,11553,25440,40605,33508,2
0,0,0,16582,11565,25490,40693,33439,2
0,0,0,16615,11565,25440,40605,33679,2
0,0,0,16615,11578,25490,40693,33542,2
0,0,0,16615,11553,25490,40605,33405,2
0,0,0,16582,11578,25465,40562,33371,2
0,0,0,16582,11603,25440,40562,33371,2
0,0,0,16615,11578,25440,40605,33439,2
0,0,0,16632,11590,25440,40562,33371,2
0,0,0,16615,11603,25515,40519,33337,2
0,0,0,16615,11603,25490,40432,33303,2
0,0,0,16582,11578,25490,40562,33303,2
0,0,0,16565,11603,25490,40562,33303,2
0,0,0,16565,11603,25515,40605,33236,2
0,0,0,16549,11628,25515,40562,33236,2
0,0,0,16582,11665,25490,40475,33236,2
0,0,0,16565,11678,25490,40432,33236,2
0,0,0,16549,11703,25540,40605,33168,2
0,0,0,16565,11703,25540,40432,33100,2
0,0,0,16516,11716,25540,40519,33202,2
0,0,0,16549,11754,25515,40432,33134,2
0,0,0,16565,11779,25591,40519,33033,2
0,0,0,16549,11754,25540,40432,33100,2
0,0,0,16549,11754,25591,40432,33033,2
0,0,0,16549,11754,25540,40475,33100,2
0,0,0,16549,11766,25515,40346,33100,2
0,0,0,16549,11754,25490,40389,33067,2
0,0,0,16499,11728,25515,40432,32932,2
0,0,0,16549,11716,25490,40389,33033,2
0,0,0,16499,11728,25540,40302,33100,2
0,0,0,16516,11779,25490,40475,32999,2
0,0,0,16549,11754,25490,40346,32966,2
0,0,0,16549,11779,25490,40346,33067,2
0,0,0,16549,11766,25490,40346,32966,2
0,0,0,16516,11754,25515,40259,33067,2
0,0,0,16532,11754,25490,40432,32932,2
0,0,0,16598,11779,25540,40519,32932,2
0,0,0,16582,11779,25515,40432,32966,2
0,0,0,16615,11766,25490,40302,33067,2
0,0,0,16582,11779,25515,40432,32899,2
0,0,0,16582,11804,25515,40346,32899,2
0,0,0,16565,11779,25490,40346,32899,2
0,0,0,16582,11817,25515,40259,33033,2
0,0,0,16598,11804,25540,40346,33033,2
0,0,0,16565,11779,25515,40346,32966,2
0,0,0,16582,11804,25490,40302,32966,2
0,0,0,16582,11804,25490,40346,32966,2
0,0,0,16565,11804,25540,40216,32966,2
0,0,0,16598,11804,25540,40346,32932,2
0,0,0,16582,11804,25490,40346,32966,2
0,0,0,16582,11804,25490,40259,32899,2
0,0,0,16615,11804,25515,40216,32832,2
0,0,0,16582,11817,25515,40259,32932,2
0,0,0,16582,11804,25540,40259,32966,2
0,0,0,16565,11779,25540,40346,32899,2
0,0,0,16615,11754,25540,40346,32899,2
0,0,0,16765,11515,25591,40389,32832,2
0,0,0,16915,11304,25641,40562,32899,2
0,0,0,16915,11157,25591,40519,32932,2
0,0,0,16932,11024,25490,40173,33236,2
0,0,0,16765,10963,25390,40002,33887,2
0,0,0,16681,10951,25341,39960,33714,2
0,0,0,16582,10963,25341,39832,33714,2
0,0,0,16483,10963,25390,39917,33576,2
0,0,0,16648,10999,25793,40173,33611,2
0,0,0,16303,10963,26513,40955,34412,2
0,0,0,15521,10927,27229,42580,35749,2
0,0,0,14726,10867,27554,43711,37191,2
0,0,0,13821,10819,27581,44048,37980,2
0,0,0,12797,10819,27856,44242,40002,2
0,0,0,12372,10724,28527,44683,42442,2
0,0,0,12346,10748,29071,44782,42029,2
0,0,0,12320,10759,29304,44981,41757,2
0,0,0,12280,10748,29274,44832,41309,2
0,0,0,12424,10771,29274,44585,41265,2
0,0,0,12690,10748,29216,44389,41848,2
0,0,0,12959,10676,28984,44585,42534,2
0,0,0,13122,10511,28640,44733,42395,2
0,0,0,13232,10394,28442,45081,42488,2
0,0,0,13412,10301,28077,45281,41622,2
0,0,0,13650,10255,27911,45181,40868,2
0,0,0,13721,10186,27636,45483,40736,2
0,0,0,13792,10163,27202,45787,40389,2
0,0,0,13821,10129,26749,46198,40605,2
0,0,0,13735,10129,25996,46095,40780,2
0,0,0,13566,10094,25641,45685,40736,2
0,0,0,13412,10094,25515,45432,41044,2
0,0,0,13343,10071,25465,44881,41309,2
0,0,0,13329,10071,25465,44193,41132,2
0,0,0,13287,10071,25241,43235,39663,2
0,0,0,13122,10071,24897,42304,38422,2
0,0,0,12972,10071,24606,41667,37191,2
0,0,0,12878,10071,24390,40868,35898,2
0,0,0,12824,10071,24318,40432,35127,2
0,0,0,12797,10083,24271,40173,34767,2
0,0,0,12743,10094,24223,40002,34874,2
0,0,0,12716,10117,24223,40131,34767,2
0,0,0,12716,10117,24129,39874,34767,2
0,0,0,12716,10117,24129,39917,34624,2
0,0,0,12716,10163,24129,39494,34341,2
0,0,0,12716,10152,23987,39119,33991,2
0,0,0,12663,10163,23917,38995,33991,2
0,0,0,12649,10152,23870,38666,33645,2
0,0,0,12610,10163,23522,37741,32932,2
0,0,0,12636,10140,22932,36310,32238,2
0,0,0,12716,10140,22313,34982,31593,2
0,0,0,12851,10117,21669,34341,30962,2
0,0,0,13068,10129,21458,33921,30561,2
0,0,0,13122,10117,21333,33474,30226,2
0,0,0,13040,10117,21208,33033,29538,2
0,0,0,12972,10117,21043,32566,29042,2
0,0,0,12959,10094,20920,32108,28555,2
0,0,0,12959,10071,20798,31881,28357,2
0,0,0,12986,10071,20716,31624,28161,2
0,0,0,13013,10049,20656,31497,28022,2
0,0,0,13232,10071,20676,31497,28022,2
0,0,0,13454,10071,20838,31817,27994,2
0,0,0,13721,10071,21563,33168,28077,2
0,0,0,13906,10094,22798,34200,28022,2
0,0,0,14180,10140,23707,34482,28133,2
0,0,0,14399,10209,24366,34341,28022,2
0,0,0,14429,10232,24534,34060,27828,2
0,0,0,14458,10301,24702,33714,27418,2
0,0,0,14547,10278,24946,33645,27148,2
0,0,0,14756,10301,25093,33371,26935,2
0,0,0,15043,10290,25241,33236,27041,2
0,0,0,15273,10301,25291,33236,26961,2
0,0,0,15726,10348,25666,33852,26961,2
0,0,0,15996,10371,25641,33921,27041,2
0,0,0,16125,10371,25591,33991,27095,2
0,0,0,16222,10394,25616,34200,27122,2
0,0,0,16222,10371,25515,34060,27148,2
0,0,0,16206,10394,25291,33714,27095,2
0,0,0,16189,10348,25192,33817,27202,2
0,0,0,16303,10371,25192,33714,27256,2
0,0,0,16417,10348,25093,33645,27310,2
0,0,0,16467,10394,25093,33714,27499,2
0,0,0,16483,10394,25044,33852,27581,2
0,0,0,16499,10394,24995,33748,27718,2
0,0,0,16516,10394,24995,33783,27718,2
0,0,0,16499,10394,24946,33645,27745,2
0,0,0,16499,10418,24995,33679,27636,2
0,0,0,16549,10418,24946,33576,27581,2
0,0,0,16532,10406,24897,33508,27581,2
0,0,0,16483,10418,24897,33439,27527,2
0,0,0,16499,10406,24848,33439,27445,2
0,0,0,16483,10441,24824,33405,27472,2
0,0,0,16532,10418,24897,33439,27472,2
0,0,0,16549,10441,24799,33405,27472,2
0,0,0,16549,10464,24799,33508,27472,2
0,0,0,16549,10464,24799,33576,27499,2
0,0,0,16582,10488,24775,33508,27472,2
0,0,0,16582,10488,24799,33576,27472,2
0,0,0,16615,10488,24799,33508,27527,2
0,0,0,16632,10488,24799,33576,27499,2
0,0,0,16665,10511,24751,33576,27472,2
0,0,0,16665,10488,24775,33542,27418,2
0,0,0,16715,10499,24751,33645,27472,2
0,0,0,16748,10488,24751,33576,27418,2
0,0,0,16715,10499,24775,33611,27391,2
0,0,0,16798,10535,24799,33576,27472,2
0,0,0,16748,10511,24727,33611,27391,2
0,0,0,16748,10511,24751,33679,27364,2
0,0,0,16748,10499,24727,33645,27418,2
0,0,0,16748,10488,24751,33748,27364,2
0,0,0,16765,10488,24702,33714,27364,2
0,0,0,16698,10558,24654,33645,27445,2
0,0,0,16698,10582,24678,33679,27391,2
0,0,0,16748,10582,24654,33611,27364,2
0,0,0,16748,10582,24702,33645,27499,2
0,0,0,16748,10594,24678,33645,27472,2
0,0,0,16748,10629,24654,33714,27472,2
0,0,0,16748,10629,24630,33645,27472,2
0,0,0,16715,10629,24654,33645,27445,2
0,0,0,16698,10676,24702,33714,27581,2
0,0,0,16748,10676,24654,33714,27472,2
0,0,0,16748,10724,24606,33679,27472,2
0,0,0,16748,10748,24654,33679,27472,2
0,0,0,16781,10748,24630,33611,27499,2
0,0,0,16781,10748,24606,33714,27472,2
0,0,0,16765,10748,24654,33714,27472,2
0,0,0,16765,10748,24630,33714,27445,2
0,0,0,16798,10771,24606,33748,27472,2
0,0,0,16748,10748,24606,33645,27472,2
0,0,0,16748,10771,24630,33714,27472,2
0,0,0,16748,10771,24630,33714,27472,2
0,0,0,16815,10771,24654,33714,27445,2
0,0,0,16815,10783,24606,33645,27472,2
0,0,0,16831,10783,24606,33645,27472,2
0,0,0,16848,10819,24630,33714,27472,2
0,0,0,16798,10819,24606,33714,27527,2
0,0,0,16831,10831,24606,33748,27554,2
0,0,0,16831,10831,24582,33714,27472,2
0,0,0,16865,10831,24606,33817,27554,2
0,0,0,16882,10819,24558,33783,27527,2
0,0,0,16882,10843,24606,33783,27527,2
0,0,0,16882,10843,24606,33783,27554,2
0,0,0,16882,10867,24582,33714,27472,2
0,0,0,16898,10915,24606,33748,27472,2
0,0,0,16882,10915,24606,33714,27527,2
0,0,0,16882,10939,24606,33783,27581,2
0,0,0,16831,10939,24606,33748,27581,2
0,0,0,16915,10963,24606,33714,27554,2
0,0,0,16882,10975,24630,33714,27581,2
0,0,0,16848,10987,24558,33714,27581,2
0,0,0,16882,10987,24534,33576,27581,2
0,0,0,16831,10999,24558,33714,27636,2
0,0,0,16882,11012,24606,33611,27581,2
0,0,0,16915,11060,24534,33645,27581,2
0,0,0,16966,11072,24558,33679,27499,2
0,0,0,16949,11060,24558,33576,27581,2
0,0,0,16949,11060,24510,33645,27581,2
0,0,0,16949,11012,24510,33576,27472,2
0,0,0,17016,10963,24558,33645,27581,2
0,0,0,17050,10963,24534,33645,27554,2
0,0,0,17084,10975,24534,33679,27581,2
0,0,0,17084,10963,24606,33714,27663,2
0,0,0,17152,10963,24558,33679,27609,2
0,0,0,17237,11012,24510,33611,27609,2
0,0,0,17254,11012,24534,33714,27691,2
0,0,0,17374,10987,24510,33783,27745,2
0,0,0,17426,10975,24462,33852,27663,2
0,0,0,17495,10975,24462,33714,27718,2
0,0,0,17600,10987,24462,33645,27691,2
0,0,0,17704,10987,24438,33714,27745,2
0,0,0,17915,11012,24438,33611,27828,2
0,0,0,18075,11060,24438,33645,28133,2
0,0,0,18075,11060,24702,34165,28583,2
0,0,0,17774,11157,25341,35492,29627,2
0,0,0,17443,11206,26047,36690,31402,2
0,0,0,17289,11304,26882,38544,33508,2
0,0,0,17084,11366,27883,41221,36690,2
0,0,0,16681,11478,28414,43424,40259,2
0,0,0,16287,11465,28669,44048,41176,2
0,0,0,15932,11465,28783,44291,41132,2
0,0,0,15412,11453,28612,44000,40519,2
0,0,0,14488,11465,28105,42580,39705,2
0,0,0,13707,11453,27800,41443,39244,2
0,0,0,13246,11478,27472,41000,39077,2
0,0,0,13095,11515,27364,40780,39202,2
0,0,0,13136,11553,27364,41088,39917,2
0,0,0,13177,11590,27581,42120,41577,2
0,0,0,13246,11528,27581,42766,43235,2
0,0,0,13357,11665,27527,43472,43951,2
0,0,0,13287,11817,27202,43807,42488,2
0,0,0,13177,11881,26670,44145,41221,2
0,0,0,13398,11766,26202,43424,39578,2
0,0,0,13440,11465,25691,42673,38260,2
0,0,0,14050,11170,25192,42120,37543,2
0,0,0,14429,10999,24946,41622,36843,2
0,0,0,14726,10879,24654,41132,36197,2
0,0,0,15165,10843,24247,40519,36160,2
0,0,0,15273,10819,23940,39917,35676,2
0,0,0,15335,10819,23754,39494,35345,2
0,0,0,15335,10807,23569,39202,34982,2
0,0,0,15366,10819,23431,38748,34982,2
0,0,0,15521,10891,23431,38463,34482,2
0,0,0,15741,10963,23431,38260,34095,2
0,0,0,15837,10975,23385,38180,33817,2
0,0,0,15837,10975,23294,38019,33714,2
0,0,0,15837,10927,23248,37940,33645,2
0,0,0,15837,10867,23203,37781,33508,2
0,0,0,15789,10843,23112,37701,33439,2
0,0,0,15773,10807,22977,37543,33134,2
0,0,0,15726,10795,22932,37386,32966,2
0,0,0,15773,10795,22820,37230,32832,2
0,0,0,15789,10843,22776,37075,32832,2
0,0,0,15868,10915,22731,36959,32899,2
0,0,0,15932,10963,22754,36998,32799,2
0,0,0,16028,11072,22798,37075,32765,2
0,0,0,16093,11157,22754,36998,32633,2
0,0,0,16076,11231,22709,37075,32666,2
0,0,0,16173,11255,22754,37075,32599,2
0,0,0,16141,11255,22754,37036,32533,2
0,0,0,16157,11304,22754,36959,32666,2
0,0,0,16125,11304,22798,37075,32765,2
0,0,0,16093,11354,22776,36920,32633,2
0,0,0,16093,11354,22798,37036,32467,2
0,0,0,16060,11366,22776,36920,32500,2
0,0,0,16060,11354,22843,36959,32402,2
0,0,0,16060,11391,22843,36998,32402,2
0,0,0,16093,11366,22843,36959,32500,2
0,0,0,16060,11403,22843,36959,32369,2
0,0,0,16028,11416,22843,36920,32271,2
0,0,0,16060,11403,22843,36998,32271,2
0,0,0,16028,11403,22865,36920,32303,2
0,0,0,16028,11403,22887,36920,32369,2
0,0,0,16028,11453,22910,36920,32369,2
0,0,0,15964,11453,22887,36920,32369,2
0,0,0,16028,11453,22932,36920,32303,2
0,0,0,15964,11503,22910,36920,32435,2
0,0,0,15996,11540,22932,36882,32435,2
0,0,0,15996,11528,22977,36920,32369,2
0,0,0,15964,11565,22887,36920,32369,2
0,0,0,16028,11528,22932,36843,32500,2
0,0,0,16060,11503,22932,36959,32173,2
0,0,0,16060,11503,22887,36959,32205,2
0,0,0,15996,11515,22932,36959,32238,2
0,0,0,15964,11453,22932,36998,32173,2
0,0,0,15916,11403,22932,37075,32140,2
0,0,0,15916,11317,22932,37075,32108,2
0,0,0,15900,11219,22865,36959,32108,2
0,0,0,15884,11206,22843,36998,32108,2
0,0,0,15916,11170,22843,36959,32173,2
0,0,0,15900,11145,22865,36843,32108,2
0,0,0,15900,11170,22843,36843,32238,2
0,0,0,15900,11170,22865,36843,32238,2
0,0,0,15900,11170,22865,36843,32238,2
0,0,0,15916,11206,22843,36882,32043,2
0,0,0,15964,11255,22865,36920,32043,2
0,0,0,15916,11255,22843,36882,31978,2
0,0,0,15932,11255,22843,36920,31946,2
0,0,0,15900,11255,22865,36920,32010,2
0,0,0,15964,11304,22910,36882,31913,2
0,0,0,15932,11304,22887,36920,31881,2
0,0,0,15932,11304,22865,36805,31978,2
0,0,0,15964,11354,22887,36843,31946,2
0,0,0,15932,11379,22955,36920,31913,2
0,0,0,15932,11379,22887,36959,31913,2
0,0,0,15964,11428,22932,36920,31785,2
0,0,0,15948,11403,22932,36882,31785,2
0,0,0,15948,11379,22865,36920,31785,2
0,0,0,15964,11403,22932,36920,31946,2
0,0,0,15964,11403,22955,36920,31849,2
0,0,0,15964,11453,22932,36920,31849,2
0,0,0,15948,11428,22932,36920,31881,2
0,0,0,15964,11453,22932,36920,31849,2
0,0,0,15932,11428,22932,36843,31849,2
0,0,0,15964,11465,22955,36805,31785,2
0,0,0,15932,11503,22932,36920,31785,2
0,0,0,15948,11478,22932,36920,31752,2
0,0,0,15964,11503,22955,36843,31785,2
0,0,0,15964,11503,22955,36843,31817,2
0,0,0,15964,11503,22932,36843,31785,2
0,0,0,15964,11503,22932,36805,31849,2
0,0,0,15932,11503,22955,36843,31849,2
0,0,0,15916,11528,23022,36843,31720,2
0,0,0,15932,11528,22999,36959,31720,2
0,0,0,15932,11553,22977,36843,31720,2
0,0,0,15932,11565,22977,36843,31785,2
0,0,0,15916,11578,22932,36805,31752,2
0,0,0,15948,11578,22955,36843,31720,2
0,0,0,15948,11565,22955,36805,31752,2
0,0,0,15916,11578,22977,36767,31785,2
0,0,0,15900,11503,22955,36767,31720,2
0,0,0,15900,11403,22932,36920,31720,2
0,0,0,15900,11304,22932,36882,31720,2
0,0,0,15900,11280,22887,36882,31624,2
0,0,0,15900,11206,22843,36805,31785,2
0,0,0,15868,11194,22887,36843,31656,2
0,0,0,15900,11206,22865,36843,31593,2
0,0,0,15852,11219,22843,36805,31593,2
0,0,0,15868,11255,22843,36767,31593,2
0,0,0,15900,11304,22843,36843,31593,2
0,0,0,15900,11317,22843,36767,31561,2
0,0,0,15900,11317,22887,36767,31593,2
0,0,0,15932,11354,22887,36767,31593,2
0,0,0,15996,11354,22932,36767,31593,2
0,0,0,15964,11379,22887,36882,31593,2
0,0,0,15964,11403,22843,36805,31561,2
0,0,0,15980,11453,22910,36805,31624,2
0,0,0,15980,11440,22932,36843,31529,2
0,0,0,15980,11478,22932,36767,31593,2
0,0,0,15996,11478,22932,36767,31529,2
0,0,0,15996,11465,22910,36767,31561,2
0,0,0,15980,11503,22887,36767,31656,2
0,0,0,15996,11503,22910,36767,31593,2
0,0,0,15996,11503,22887,36805,31593,2
0,0,0,15964,11540,22887,36728,31561,2
0,0,0,15996,11553,22932,36767,31593,2
0,0,0,15980,11565,22887,36767,31529,2
0,0,0,15964,11553,22865,36690,31593,2
0,0,0,15980,11603,22887,36690,31465,2
0,0,0,15932,11603,22932,36767,31593,2
0,0,0,15980,11615,22865,36767,31497,2
0,0,0,15980,11615,22865,36690,31497,2
0,0,0,15964,11653,22865,36805,31465,2
0,0,0,15996,11653,22887,36728,31465,2
0,0,0,15964,11665,22887,36767,31465,2
0,0,0,15996,11678,22910,36767,31497,2
0,0,0,15996,11678,22887,36767,31465,2
0,0,0,15980,11678,22865,36728,31497,2
0,0,0,15996,11703,22887,36767,31402,2
0,0,0,16012,11703,22932,36767,31497,2
0,0,0,15964,11703,22865,36690,31434,2
0,0,0,15996,11703,22932,36805,31465,2
0,0,0,15980,11703,22932,36767,31465,2
0,0,0,15996,11728,22932,36690,31497,2
0,0,0,15996,11703,22887,36690,31465,2
0,0,0,16028,11716,22932,36728,31402,2
0,0,0,16028,11691,22865,36690,31402,2
0,0,0,15996,11703,22887,36767,31402,2
0,0,0,15996,11703,22955,36767,31402,2
0,0,0,15964,11728,22932,36690,31370,2
0,0,0,15996,11716,22910,36767,31465,2
0,0,0,15964,11716,22887,36767,31370,2
0,0,0,15980,11741,22910,36690,31465,2
0,0,0,15996,11716,22887,36690,31465,2
0,0,0,15980,11754,22932,36767,31339,2
0,0,0,15996,11728,22865,36690,31465,2
0,0,0,15996,11766,22932,36690,31370,2
0,0,0,15980,11766,22887,36690,31529,2
0,0,0,15996,11779,22932,36690,31402,2
0,0,0,15964,11754,22932,36614,31339,2
0,0,0,15964,11766,22932,36652,31307,2
0,0,0,15980,11779,22932,36728,31402,2
0,0,0,15996,11779,22932,36614,31339,2
0,0,0,16012,11792,22955,36690,31370,2
0,0,0,15996,11766,22932,36728,31339,2
0,0,0,15996,11792,22932,36767,31370,2
0,0,0,16060,11766,22932,36805,31402,2
0,0,0,16012,11804,22932,36690,31402,2
0,0,0,16028,11754,22887,36614,31370,2
0,0,0,16028,11779,22932,36690,31339,2
0,0,0,16028,11779,22887,36690,31370,2
0,0,0,16028,11804,22932,36614,31276,2
0,0,0,15996,11779,22887,36690,31339,2
0,0,0,16060,11779,22910,36767,31339,2
0,0,0,16028,11804,22932,36690,31339,2
0,0,0,16028,11754,22865,36652,31181,2
0,0,0,16028,11766,22932,36690,31339,2
0,0,0,16028,11779,22932,36690,31402,2
0,0,0,16028,11754,22887,36614,31307,2
0,0,0,15964,11754,22932,36690,31370,2
0,0,0,16028,11779,22932,36690,31339,2
0,0,0,16012,11766,22887,36690,31276,2
0,0,0,15996,11817,22932,36728,31307,2
0,0,0,16028,11817,22887,36767,31339,2
0,0,0,16012,11817,22932,36652,31213,2
0,0,0,15996,11804,22932,36767,31276,2
0,0,0,15996,11855,22932,36690,31213,2
0,0,0,15980,11855,22887,36652,31119,2
0,0,0,16012,11957,22977,36767,31307,2
0,0,0,15996,11944,22977,36767,31213,2
0,0,0,15964,11944,22887,36690,31244,2
0,0,0,15980,11957,22955,36614,31181,2
0,0,0,15980,11932,22932,36614,31150,2
0,0,0,15964,11906,22887,36614,31119,2
0,0,0,15980,11932,22887,36690,31213,2
0,0,0,15980,11932,22932,36614,31213,2
0,0,0,15996,11919,22932,36614,31213,2
0,0,0,15964,11932,22887,36576,31150,2
0,0,0,15964,11932,22887,36538,31213,2
0,0,0,15980,11906,22932,36690,31244,2
0,0,0,15964,11919,22887,36614,31150,2
0,0,0,15932,11906,22865,36538,31213,2
0,0,0,15964,11906,22887,36690,31213,2
0,0,0,15932,11868,22887,36538,31087,2
0,0,0,15964,11881,22865,36614,31213,2
0,0,0,15900,11906,22887,36499,31087,2
0,0,0,15900,11855,22865,36538,31150,2
0,0,0,15900,11830,22865,36538,31087,2
0,0,0,15868,11653,22798,36538,31213,2
0,0,0,15884,11403,22776,36576,31150,2
0,0,0,15852,11219,22843,36576,31213,2
0,0,0,15980,11084,22776,36690,31276,2
0,0,0,15964,11060,22754,36690,31561,2
0,0,0,15475,11012,22776,36767,32075,2
0,0,0,15028,10987,22887,37152,32402,2
0,0,0,14518,10987,23339,37543,33168,2
0,0,0,14079,10975,23847,37543,33783,2
0,0,0,13594,10915,24534,36690,33817,2
0,0,0,13343,10783,24606,35565,31624,2
0,0,0,13232,10688,24510,35272,30317,2
0,0,0,13246,10629,24799,35749,29805,2
0,0,0,13510,10605,25341,36085,28583,2
0,0,0,14166,10617,25742,36047,26988,2
0,0,0,15273,10676,26176,36348,26829,2
0,0,0,16222,10676,26435,36538,27175,2
0,0,0,16681,10676,26409,36690,27418,2
0,0,0,16549,10605,26124,35639,26988,2
0,0,0,16319,10582,25742,34660,26829,2
0,0,0,16060,10594,25316,33576,26829,2
0,0,0,15900,10629,24654,32533,27636,2
0,0,0,15631,10629,24223,31688,30075,2
0,0,0,15412,10676,23847,30994,30715,2
0,0,0,15288,10676,23754,30838,30499,2
0,0,0,15227,10724,23661,30499,30226,2
0,0,0,15119,10748,23431,30286,30105,2
0,0,0,15058,10748,23339,30045,29984,2
0,0,0,15028,10748,23225,29746,29925,2
0,0,0,14967,10748,23157,29686,29686,2
0,0,0,14967,10771,23225,29955,29450,2
0,0,0,15028,10771,23294,30045,29421,2
0,0,0,14997,10795,23248,30165,29304,2
0,0,0,15028,10795,23248,30105,29158,2
0,0,0,15058,10819,23294,30226,29216,2
0,0,0,15089,10831,23339,30286,29391,2
0,0,0,15135,10843,23316,30347,29333,2
0,0,0,15150,10819,23339,30347,29391,2
0,0,0,15150,10843,23339,30377,29333,2
0,0,0,15150,10867,23294,30256,29216,2
0,0,0,15104,10891,23294,30226,29216,2
0,0,0,15150,10867,23316,30286,28754,2
0,0,0,15165,10855,23316,30286,28726,2
0,0,0,15211,10867,23339,30286,28697,2
0,0,0,15242,10891,23385,30347,28669,2
0,0,0,15335,10915,23431,30469,28612,2
0,0,0,15428,10915,23431,30561,28640,2
0,0,0,15521,10915,23477,30653,28640,2
0,0,0,15584,10951,23522,30715,28640,2
0,0,0,15647,11012,23615,30715,28612,2
0,0,0,15663,11084,23615,30745,28640,2
0,0,0,15710,11109,23592,30776,28726,2
0,0,0,15837,11206,23661,30838,28754,2
0,0,0,15789,11304,23707,30838,28783,2
0,0,0,15757,11354,23707,30869,28726,2
0,0,0,15741,11391,23730,30838,28840,2
0,0,0,15647,11403,23754,30838,28812,2
0,0,0,15663,11403,23707,30745,28840,2
0,0,0,15647,11354,23730,30838,28726,2
0,0,0,15678,11219,23707,31025,28612,2
0,0,0,15647,11206,23661,31087,28498,2
0,0,0,15600,11182,23592,30962,28527,2
0,0,0,15584,11206,23615,30962,28640,2
0,0,0,15584,11255,23615,30962,28612,2
0,0,0,15584,11255,23707,31025,28697,2
0,0,0,15600,11268,23707,31025,28640,2
0,0,0,15615,11317,23707,31025,28754,2
0,0,0,15584,11280,23754,31087,28697,2
0,0,0,15584,11292,23754,30962,28697,2
0,0,0,15615,11304,23707,30994,28726,2
0,0,0,15584,11304,23707,30962,28726,2
0,0,0,15584,11280,23684,30962,28812,2
0,0,0,15615,11304,23707,31025,28754,2
0,0,0,15584,11304,23684,30962,28754,2
0,0,0,15584,11317,23707,31119,28783,2
0,0,0,15615,11329,23707,31025,28812,2
0,0,0,15615,11304,23730,31150,28697,2
0,0,0,15710,11317,23800,31150,28754,2
0,0,0,15741,11366,23777,31213,28640,2
0,0,0,15741,11379,23754,31150,28669,2
0,0,0,15789,11403,23754,31181,28754,2
0,0,0,15741,11403,23800,31150,28726,2
0,0,0,15773,11354,23777,31276,28840,2
0,0,0,15773,11379,23754,31276,28754,2
0,0,0,15773,11366,23754,31181,28812,2
0,0,0,15773,11379,23754,31213,28783,2
0,0,0,15773,11379,23754,31244,28697,2
0,0,0,15837,11403,23730,31244,28754,2
0,0,0,15852,11391,23754,31307,28726,2
0,0,0,15837,11416,23754,31276,28726,2
0,0,0,15837,11366,23754,31276,28697,2
0,0,0,15837,11416,23707,31276,28640,2
0,0,0,15916,11403,23707,31402,28726,2
0,0,0,15980,11416,23800,31465,28697,2
0,0,0,16044,11478,23824,31497,28754,2
0,0,0,16060,11453,23824,31593,28640,2
0,0,0,16093,11465,23940,31593,28640,2
0,0,0,16093,11503,23940,31561,28697,2
0,0,0,16109,11503,23940,31593,28697,2
0,0,0,16109,11503,23940,31529,28754,2
0,0,0,16109,11478,23917,31593,28697,2
0,0,0,16109,11503,23940,31529,28783,2
0,0,0,16125,11528,23964,31593,28754,2
0,0,0,16125,11515,23940,31624,28754,2
0,0,0,16157,11553,23894,31593,28697,2
0,0,0,16157,11553,23940,31529,28697,2
0,0,0,16157,11528,23940,31593,28726,2
0,0,0,16157,11565,23940,31593,28754,2
0,0,0,16157,11528,23964,31624,28697,2
0,0,0,16157,11553,23940,31656,28754,2
0,0,0,16173,11590,23964,31624,28726,2
0,0,0,16173,11565,24034,31720,28697,2
0,0,0,16222,11553,24011,31656,28812,2
0,0,0,16222,11565,24034,31720,28754,2
0,0,0,16254,11578,24081,31656,28726,2
0,0,0,16254,11553,24058,31720,28812,2
0,0,0,16303,11578,24034,31720,28812,2
0,0,0,16303,11565,24129,31720,28754,2
0,0,0,16319,11603,24081,31720,28812,2
0,0,0,16336,11590,24105,31624,28754,2
0,0,0,16352,11578,24081,31656,28840,2
0,0,0,16319,11565,24129,31752,28812,2
0,0,0,16352,11578,24081,31688,28812,2
0,0,0,16319,11565,24081,31785,28754,2
0,0,0,16238,11553,24129,31752,28812,2
0,0,0,16157,11553,24129,31720,28783,2
0,0,0,16157,11503,24176,31817,28726,2
0,0,0,16093,11465,24129,31785,28726,2
0,0,0,16093,11403,24129,31720,28754,2
0,0,0,16093,11379,24129,31785,28754,2
0,0,0,16109,11317,24129,31849,28754,2
0,0,0,16303,11317,24318,32173,28869,2
0,0,0,16765,11304,24678,33542,29597,2
0,0,0,16915,11268,24897,35455,31276,2
0,0,0,16648,11255,25167,36538,32435,2
0,0,0,16450,11219,25316,37075,33236,2
0,0,0,16254,11182,25742,38503,34982,2
0,0,0,15900,11206,26305,40432,37230,2
0,0,0,15964,11182,26435,41443,39077,2
0,0,0,16271,11182,26592,42395,40173,2
0,0,0,16831,11133,26829,43140,40693,2
0,0,0,17237,11170,27068,43951,38912,2
0,0,0,17272,11157,26723,43807,37940,2
0,0,0,17016,11060,26150,43093,36920,2
0,0,0,16781,11012,25920,42719,36386,2
0,0,0,16665,10987,25843,42304,35749,2
0,0,0,16483,10927,25641,41984,35272,2
0,0,0,16319,10867,25440,41533,35055,2
0,0,0,16060,10759,25390,41044,34910,2
0,0,0,15821,10641,25316,40346,34482,2
0,0,0,15600,10558,25192,39411,34412,2
0,0,0,15521,10582,24995,38830,34271,2
0,0,0,15459,10546,24727,38341,34235,2
0,0,0,15475,10582,24510,37940,33887,2
0,0,0,15490,10582,24366,37781,33714,2
0,0,0,15366,10535,24318,37543,33748,2
0,0,0,15319,10511,24271,37504,33474,2
0,0,0,15304,10511,24271,37543,33576,2
0,0,0,15273,10499,24223,37583,33439,2
0,0,0,15242,10464,24152,37543,33303,2
0,0,0,15319,10499,24129,37504,33371,2
0,0,0,15366,10499,24129,37465,33371,2
0,0,0,15443,10535,24034,37465,33371,2
0,0,0,15443,10582,24034,37543,33303,2
0,0,0,15459,10582,24034,37426,33439,2
0,0,0,15412,10605,24034,37465,33303,2
0,0,0,15397,10676,24105,37543,33236,2
0,0,0,15412,10700,24105,37622,33236,2
0,0,0,15397,10736,24129,37583,33100,2
0,0,0,15397,10748,24152,37504,33067,2
0,0,0,15397,10771,24129,37583,33033,2
0,0,0,15397,10771,24129,37543,33067,2
0,0,0,15397,10771,24105,37465,33168,2
0,0,0,15443,10771,24105,37426,33067,2
0,0,0,15459,10795,24105,37504,33067,2
0,0,0,15506,10783,24129,37465,33033,2
0,0,0,15521,10795,24129,37583,33033,2
0,0,0,15490,10795,24223,37622,33067,2
0,0,0,15459,10831,24318,37781,33067,2
0,0,0,15459,10879,24366,37781,32765,2
0,0,0,15459,10891,24271,37860,32238,2
0,0,0,15600,10879,24342,38301,32765,2
0,0,0,15553,10867,24414,38789,33236,2
0,0,0,15521,10915,24510,39036,33067,2
0,0,0,15521,10963,24606,39494,33303,2
0,0,0,15647,11109,24606,39790,33303,2
0,0,0,15773,11133,24630,39747,33748,2
0,0,0,15900,11157,24606,39790,33783,2
0,0,0,16012,11206,24534,39663,33783,2
0,0,0,16109,11219,24534,39705,33679,2
0,0,0,16368,11255,24654,39747,33714,2
0,0,0,16516,11268,24702,39578,33714,2
0,0,0,16882,11304,24702,39536,33714,2
0,0,0,17084,11304,24630,39578,33679,2
0,0,0,17067,11255,24558,39494,33611,2
0,0,0,17152,11231,24510,39578,33576,2
0,0,0,17220,11255,24462,39494,33439,2
0,0,0,17169,11206,24318,39327,33371,2
0,0,0,17118,11157,24081,38871,33439,2
0,0,0,17565,11060,23615,38140,33303,2
0,0,0,17739,10915,23294,37465,33033,2
0,0,0,18057,10831,23135,37152,32832,2
0,0,0,18057,10748,23067,36998,32699,2
0,0,0,17933,10748,23022,36843,32633,2
0,0,0,17739,10771,23022,36690,32599,2
0,0,0,17774,10783,22955,36538,32699,2
0,0,0,17880,10855,22843,36085,32500,2
0,0,0,18057,10915,22665,36010,32435,2
0,0,0,18236,11024,22576,36047,32303,2
0,0,0,18272,11109,22510,36010,32238,2
0,0,0,18236,11109,22510,36310,32075,2
0,0,0,18129,11182,22554,36386,32108,2
0,0,0,18057,11182,22643,36499,32010,2
0,0,0,17986,11194,22687,36614,31913,2
0,0,0,17933,11206,22754,36690,31978,2
0,0,0,17652,11206,22798,36614,31913,2
0,0,0,17495,11255,22776,36614,31881,2
0,0,0,17374,11255,22776,36538,31849,2
0,0,0,17357,11268,22843,36690,31913,2
0,0,0,17357,11255,22843,36614,31785,2
0,0,0,17323,11280,22843,36767,31881,2
0,0,0,17323,11304,22865,36767,31849,2
0,0,0,17272,11354,23022,36843,31849,2
0,0,0,17152,11416,23112,36920,31817,2
0,0,0,17101,11379,23112,36920,32043,2
0,0,0,17084,11403,23112,36998,31978,2
0,0,0,17050,11428,23112,37036,31913,2
0,0,0,17050,11453,23135,37114,31946,2
0,0,0,16983,11503,23135,37191,31913,2
0,0,0,16983,11503,23203,37152,31881,2
0,0,0,16983,11503,23225,37152,31913,2
0,0,0,17050,11503,23225,37114,31946,2
0,0,0,17033,11503,23225,36998,31849,2
0,0,0,16999,11478,23248,37075,31913,2
0,0,0,16999,11503,23294,37075,31849,2
0,0,0,17033,11553,23248,36882,31881,2
0,0,0,17016,11565,23339,37075,31785,2
0,0,0,16983,11553,23339,36998,31849,2
0,0,0,17016,11603,23294,36920,31849,2
0,0,0,17016,11615,23294,36959,31849,2
0,0,0,17033,11653,23316,36920,31752,2
0,0,0,17033,11615,23316,36920,31849,2
0,0,0,17084,11615,23316,36959,31785,2
0,0,0,17067,11603,23316,36959,31785,2
0,0,0,17050,11590,23294,36920,31817,2
0,0,0,17033,11578,23339,36959,31720,2
0,0,0,17016,11615,23362,36998,31785,2
0,0,0,17033,11590,23339,36920,31785,2
0,0,0,17050,11603,23385,36920,31720,2
0,0,0,17050,11528,23294,36998,31720,2
0,0,0,17426,11453,23294,36998,31849,2
0,0,0,17933,11304,23248,37308,31881,2
0,0,0,18057,11255,23294,37386,31849,2
0,0,0,17915,11255,23477,37781,32765,2
0,0,0,17792,11280,24152,38100,34482,2
0,0,0,16483,11329,25341,39832,38100,2
0,0,0,15335,11317,25316,39494,38503,2
0,0,0,15058,11366,25291,39494,38830,2
0,0,0,14907,11304,25341,39578,38995,2
0,0,0,14311,11354,25142,39160,38341,2
0,0,0,13735,11292,24799,38059,36843,2
0,0,0,13482,11231,24462,37230,35492,2
0,0,0,13287,11206,24176,36805,34731,2
0,0,0,13150,11060,24129,36920,34026,2
0,0,0,13027,11060,24223,37465,33371,2
0,0,0,12918,11060,24199,37781,34026,2
0,0,0,12905,11060,24247,37940,36122,2
0,0,0,12905,11060,24318,38707,36386,2
0,0,0,12959,11060,24582,39369,35639,2
0,0,0,13013,11072,24848,39832,35127,2
0,0,0,13068,11060,25192,40216,34910,2
0,0,0,13122,11048,25894,40432,34589,2
0,0,0,13177,11012,26435,39917,34412,2
0,0,0,13315,10987,26409,39244,33714,2
0,0,0,13538,10987,26618,39036,33168,2
0,0,0,13849,10975,26618,38382,32500,2
0,0,0,14801,10987,26988,38100,31817,2
0,0,0,16632,11060,27175,37741,31370,2
0,0,0,17933,11096,27283,37386,31276,2
0,0,0,18654,11109,27095,37075,31339,2
0,0,0,18912,11109,26935,36843,31339,2
0,0,0,18875,11133,26749,36767,31497,2
0,0,0,18857,11157,26566,36499,31593,2
0,0,0,18709,11157,26331,35787,31720,2
0,0,0,18783,11133,26202,35602,31785,2
0,0,0,18820,11133,26124,35492,31593,2
0,0,0,18875,11170,26047,35418,31529,2
0,0,0,18968,11182,26047,35345,31497,2
0,0,0,19043,11206,26047,35382,31561,2
0,0,0,19118,11219,26022,35492,31593,2
0,0,0,19155,11255,25996,35492,31624,2
0,0,0,19155,11255,26047,35492,31624,2
0,0,0,19155,11268,26022,35492,31785,2
0,0,0,19155,11280,25971,35639,31913,2
0,0,0,19099,11255,25894,35639,31913,2
0,0,0,19155,11268,25894,35639,31913,2
0,0,0,19155,11255,25945,35676,31978,2
0,0,0,19099,11219,25793,35528,32238,2
0,0,0,19099,11255,25767,35565,32108,2
0,0,0,19099,11255,25818,35492,32010,2
0,0,0,19118,11255,25793,35492,31849,2
0,0,0,19099,11268,25793,35455,31785,2
0,0,0,19099,11304,25793,35418,31752,2
0,0,0,19136,11329,25843,35492,31881,2
0,0,0,19155,11304,25767,35455,31849,2
0,0,0,19155,11304,25742,35565,31978,2
0,0,0,19174,11280,25767,35565,32043,2
0,0,0,19155,11304,25717,35565,32043,2
0,0,0,19155,11304,25742,35492,32043,2
0,0,0,19155,11268,25691,35639,32010,2
0,0,0,19099,11268,25717,35602,31978,2
0,0,0,19155,11304,25691,35602,31913,2
0,0,0,19155,11304,25641,35639,32010,2
0,0,0,19174,11304,25691,35639,31978,2
0,0,0,19193,11317,25641,35639,32043,2
0,0,0,19193,11329,25691,35712,31978,2
0,0,0,19249,11304,25691,35712,31978,2
0,0,0,19231,11304,25691,35712,31978,2
0,0,0,19231,11341,25641,35787,32043,2
0,0,0,19306,11329,25616,35861,32108,2
0,0,0,19306,11317,25666,35861,32010,2
0,0,0,19306,11366,25616,35749,32043,2
0,0,0,19382,11317,25691,35861,32043,2
0,0,0,19363,11304,25616,36010,32010,2
0,0,0,19382,11280,25616,35898,31946,2
0,0,0,19363,11304,25591,35861,31849,2
0,0,0,19306,11341,25591,35565,31720,2
0,0,0,19193,11379,25591,35492,31624,2
0,0,0,19249,11465,25591,35492,31497,2
0,0,0,19212,11503,25515,35382,31402,2
0,0,0,19043,11503,25440,35272,31465,2
0,0,0,18949,11528,25390,35309,31849,2
0,0,0,18709,11553,25316,35565,32633,2
0,0,0,17862,11578,25490,36690,34341,2
0,0,0,17152,11779,26047,38019,36047,2
0,0,0,16385,12034,26670,39747,38180,2
0,0,0,15584,12267,27256,41667,40216,2
0,0,0,15227,12451,27095,42120,41221,2
0,0,0,15119,12663,26776,42349,42120,2
0,0,0,15028,12864,26099,42349,40693,2
0,0,0,14741,12959,25490,42212,37940,2
0,0,0,14801,12932,25093,41712,36614,2
0,0,0,15459,12743,24630,41132,35787,2
0,0,0,16238,12047,24176,40868,35309,2
0,0,0,16648,11403,23684,40259,34910,2
0,0,0,16765,11133,23385,39578,34589,2
0,0,0,16949,11024,23135,38789,34271,2
0,0,0,17101,11024,22798,37543,33371,2
0,0,0,17084,11109,22488,36047,32500,2
0,0,0,16748,11121,22096,34696,32010,2
0,0,0,16681,11072,21627,33991,31881,2
0,0,0,16681,10963,21375,33202,31817,2
0,0,0,16731,10879,21208,32832,31881,2
0,0,0,16882,10843,21584,33236,32866,2
0,0,0,16815,10819,21882,33576,33783,2
0,0,0,16815,10819,21796,33714,34165,2
0,0,0,16781,10963,21711,33748,34165,2
0,0,0,16731,11084,21669,33817,34341,2
0,0,0,16898,11157,21690,34060,34412,2
0,0,0,17101,11255,21648,34200,34910,2
0,0,0,16748,11304,21796,34482,36235,2
0,0,0,16254,11268,21733,34341,35824,2
0,0,0,16093,11231,21606,34026,35382,2
0,0,0,16189,11072,21458,33991,35091,2
0,0,0,16352,11012,21250,33817,34839,2
0,0,0,16582,10927,21146,33679,34696,2
0,0,0,16648,10915,21125,33645,34412,2
0,0,0,16549,10915,21125,33371,34341,2
0,0,0,16352,10915,21125,33303,34235,2
0,0,0,16222,10927,21146,33269,34482,2
0,0,0,16060,10987,21208,33168,34341,2
0,0,0,15964,11036,21270,33236,34341,2
0,0,0,15916,11072,21395,33303,34341,2
0,0,0,15900,11096,21458,33337,34412,2
0,0,0,15852,11133,21479,33236,34447,2
0,0,0,15868,11182,21542,33337,34447,2
0,0,0,15837,11243,21542,33405,34447,2
0,0,0,15837,11280,21542,33439,34553,2
0,0,0,15837,11317,21542,33439,34553,2
0,0,0,15837,11366,21606,33611,34482,2
0,0,0,15789,11379,21627,33474,34412,2
0,0,0,15884,11416,21627,33645,34412,2
0,0,0,15964,11403,21669,33714,34482,2
0,0,0,15996,11465,21648,33714,34482,2
0,0,0,16012,11503,21690,33852,34412,2
0,0,0,16060,11503,21669,33852,34412,2
0,0,0,15996,11553,21648,33852,34447,2
0,0,0,15980,11553,21648,33852,34447,2
0,0,0,15948,11603,21711,33887,34412,2
0,0,0,15900,11665,21648,33783,34412,2
0,0,0,15900,11665,21627,33748,34341,2
0,0,0,15868,11716,21627,33852,34341,2
0,0,0,15852,11754,21627,33714,34306,2
0,0,0,15852,11817,21648,33714,34376,2
0,0,0,15837,11855,21627,33714,34341,2
0,0,0,15837,11868,21648,33645,34341,2
0,0,0,15773,11893,21648,33714,34341,2
0,0,0,15773,11906,21690,33748,34306,2
0,0,0,15726,11957,21669,33748,34235,2
0,0,0,15741,11932,21690,33714,34200,2
0,0,0,15710,11957,21711,33714,34200,2
0,0,0,15678,12009,21711,33714,34200,2
0,0,0,15678,12021,21648,33714,34165,2
0,0,0,15678,12086,21648,33576,34200,2
0,0,0,15678,12060,21754,33714,34235,2
0,0,0,15710,12009,21818,33714,34200,2
0,0,0,15631,11970,21903,34130,34341,2
0,0,0,15647,11957,22010,33887,35055,2
0,0,0,15837,11957,22075,34200,35018,2
0,0,0,16303,11983,22248,34767,35163,2
0,0,0,16615,12086,22510,35127,34731,2
0,0,0,16598,12086,22709,35272,34271,2
0,0,0,16565,12163,22798,35492,34271,2
0,0,0,16966,12636,23477,37075,35236,2
0,0,0,16632,13013,24678,38748,37465,2
0,0,0,15678,13013,25843,40780,39077,2
0,0,0,14771,12477,26202,42212,40088,2
0,0,0,13935,11957,26202,42953,41221,2
0,0,0,13343,11603,26202,44096,42075,2
0,0,0,13054,11453,26150,44193,41622,2
0,0,0,12959,11366,25996,43663,40955,2
0,0,0,12972,11317,26047,43711,40824,2
0,0,0,13040,11304,26305,43615,40868,2
0,0,0,13177,11255,26749,43903,41044,2
0,0,0,13136,11170,26935,43329,40389,2
0,0,0,12596,11109,26961,42953,39160,2
0,0,0,12504,11060,26961,42258,38301,2
0,0,0,12636,10987,26961,41938,37152,2
0,0,0,12918,10819,27095,41044,35455,2
0,0,0,13122,10759,27202,40562,34624,2
0,0,0,13538,10748,27718,40475,34376,2
0,0,0,14195,10771,28357,40346,34095,2
0,0,0,15089,10783,28583,40045,33439,2
0,0,0,15980,10783,28612,39705,32999,2
0,0,0,16549,10819,28812,39705,33303,2
0,0,0,16815,10831,28869,39874,33576,2
0,0,0,17050,10867,28812,39790,33956,2
0,0,0,17220,10831,28697,39747,33991,2
0,0,0,17254,10843,28640,39578,34412,2
0,0,0,17152,10843,28583,39411,34482,2
0,0,0,17084,10831,28527,39244,34553,2
0,0,0,17101,10831,28357,39077,34731,2
0,0,0,17152,10867,28357,38995,34341,2
0,0,0,17152,10867,28217,38748,34060,2
0,0,0,17186,10867,28189,38707,33921,2
0,0,0,17220,10867,28049,38707,33991,2
0,0,0,17426,10867,28077,38666,33991,2
0,0,0,17495,10915,27994,38666,34026,2
0,0,0,17617,10915,28022,38585,34130,2
0,0,0,17722,10915,28022,38544,34060,2
0,0,0,17669,10891,27966,38503,34165,2
0,0,0,17565,10831,27966,38503,34026,2
0,0,0,17565,10831,27911,38585,33991,2
0,0,0,17530,10843,27911,38422,34130,2
0,0,0,17495,10867,27911,38585,34130,2
0,0,0,17495,10867,27856,38666,34026,2
0,0,0,17426,10831,27828,38585,33783,2
0,0,0,17289,10831,27800,38422,33714,2
0,0,0,17152,10831,27718,38422,33679,2
0,0,0,17152,10819,27691,38503,33576,2
0,0,0,17101,10831,27636,38341,33645,2
0,0,0,17084,10867,27609,38301,33645,2
0,0,0,17084,10867,27581,38260,33645,2
0,0,0,17016,10867,27554,38341,33645,2
0,0,0,16915,10819,27472,38180,33714,2
0,0,0,16815,10771,27364,38180,33714,2
0,0,0,16765,10748,27175,38100,33852,2
0,0,0,16715,10724,27095,37940,33645,2
0,0,0,16715,10688,27068,37820,33576,2
0,0,0,16648,10641,26961,37701,33645,2
0,0,0,16582,10582,26855,37543,33645,2
0,0,0,16417,10441,26644,37152,33439,2
0,0,0,16287,10348,26305,36690,33236,2
0,0,0,16060,10255,26047,36310,33033,2
0,0,0,15932,10197,25843,36010,32832,2
0,0,0,15837,10140,25843,35749,32799,2
0,0,0,15852,10094,25894,35712,32765,2
0,0,0,15789,10071,25793,35712,32765,2
0,0,0,15805,10026,25742,35639,32633,2
0,0,0,15678,10037,25390,34910,32369,2
0,0,0,15537,10026,25019,34412,32173,2
0,0,0,15366,10003,24606,33991,32566,2
0,0,0,15227,10003,24390,33679,33852,2
0,0,0,14876,9980,24152,33439,34130,2
0,0,0,14666,10026,24058,33303,35018,2
0,0,0,14681,10071,24129,34412,36690,2
0,0,0,14861,10140,24462,36767,38220,2
0,0,0,15335,10232,24873,38830,39285,2
0,0,0,16189,10441,25565,41044,40519,2
0,0,0,16549,10641,26305,43282,41221,2
0,0,0,16648,10724,27229,44981,42075,2
0,0,0,16483,10843,28049,46249,42719,2
0,0,0,16417,10987,28357,47140,43140,2
0,0,0,16385,11354,28470,47675,43807,2
0,0,0,16450,11804,28301,47729,42442,2
0,0,0,16401,11804,27966,46770,41443,2
