GyroX,GyroY,GyroZ,Thumb,Index,Middle,Ring,Pinky,Gesture
0.0,0.0,0.0,12372,10383,35127,47945,44683,2
0.0,0.0,0.0,12385,10394,35236,47891,44733,2
0.0,0.0,0.0,12346,10348,35127,47729,44683,2
0.0,0.0,0.0,12372,10383,35055,47783,44634,2
0.0,0.0,0.0,12372,10371,35127,47837,44782,2
0.0,0.0,0.0,12385,10383,35055,47621,44634,2
0.0,0.0,0.0,12346,10348,34982,47460,44389,2
0.0,0.0,0.0,12438,10371,34731,45889,43663,2
0.0,0.0,0.0,12411,10301,34271,44981,42859,2
0.0,0.0,0.0,12477,10301,33991,44438,42488,2
0.0,0.0,0.0,12477,10278,33748,44096,42304,2
0.0,0.0,0.0,12504,10267,33508,43615,41938,2
0.0,0.0,0.0,12543,10267,33236,43046,41443,2
0.0,0.0,0.0,12945,10278,32732,41399,40868,2
0.0,0.0,0.0,13177,10325,32500,41221,40605,2
0.0,0.0,0.0,13468,10348,32238,40955,40432,2
0.0,0.0,0.0,13482,10336,32108,40868,40389,2
0.0,0.0,0.0,13454,10325,32043,40736,40605,2
0.0,0.0,0.0,13287,10301,32205,41044,41221,2
0.0,0.0,0.0,13205,10325,32173,41893,42488,2
0.0,0.0,0.0,13122,10313,32633,43046,44193,2
0.0,0.0,0.0,13122,10348,33921,46249,46928,2
0.0,0.0,0.0,13301,10441,34200,48881,48548,2
0.0,0.0,0.0,13315,10499,34130,49330,50711,2
0.0,0.0,0.0,13246,10653,34589,49556,51723,2
0.0,0.0,0.0,13122,10879,35565,51006,52148,2
0.0,0.0,0.0,13122,10963,35749,51904,51422,2
0.0,0.0,0.0,13205,10987,35824,52454,51904,2
0.0,0.0,0.0,13343,11012,36047,54282,53961,2
0.0,0.0,0.0,13482,11012,36047,55065,55330,2
0.0,0.0,0.0,13454,11024,36386,55999,55396,2
0.0,0.0,0.0,13357,11060,36767,56407,54934,2
0.0,0.0,0.0,12959,11133,37075,56203,54282,2
0.0,0.0,0.0,12716,11206,37114,55797,53263,2
0.0,0.0,0.0,12477,11255,37426,55999,52763,2
0.0,0.0,0.0,12530,11366,37543,56135,52577,2
0.0,0.0,0.0,12451,11379,37504,56475,52454,2
0.0,0.0,0.0,12438,11304,37269,56271,52148,2
0.0,0.0,0.0,12451,11280,37191,56067,51783,2
0.0,0.0,0.0,12504,11231,37036,55596,51542,2
0.0,0.0,0.0,12438,11255,37114,55330,51422,2
0.0,0.0,0.0,12254,11304,37386,55463,51124,2
0.0,0.0,0.0,11957,11453,37543,55663,49443,2
0.0,0.0,0.0,11957,11615,38100,55932,49670,2
0.0,0.0,0.0,11957,11553,37940,56271,49217,2
0.0,0.0,0.0,11881,11453,38180,55932,48658,2
0.0,0.0,0.0,11855,11194,38301,55330,48437,2
0.0,0.0,0.0,12112,10891,38707,54803,48108,2
0.0,0.0,0.0,12424,10617,38625,54542,47460,2
0.0,0.0,0.0,13040,10558,38544,53961,47140,2
0.0,0.0,0.0,13566,10594,38260,54025,46613,2
0.0,0.0,0.0,13735,10605,38260,53263,45941,2
0.0,0.0,0.0,13566,10748,38100,53389,45992,2
0.0,0.0,0.0,13301,11012,38912,54282,48327,2
0.0,0.0,0.0,12891,11292,39917,55197,55330,2
0.0,0.0,0.0,12649,11640,40259,55330,56339,2
0.0,0.0,0.0,12797,11804,39874,55330,55999,2
0.0,0.0,0.0,13287,11754,39621,55131,52577,2
0.0,0.0,0.0,13650,11565,38995,54412,49899,2
0.0,0.0,0.0,13622,11304,38503,53137,48492,2
0.0,0.0,0.0,13524,10915,38260,52639,47729,2
0.0,0.0,0.0,13468,10653,38140,52148,47567,2
0.0,0.0,0.0,13524,10488,37940,51482,45838,2
0.0,0.0,0.0,13622,10418,37622,50653,46095,2
0.0,0.0,0.0,13665,10348,37230,50072,46095,2
0.0,0.0,0.0,13566,10255,37114,49443,45889,2
0.0,0.0,0.0,13398,10163,37230,48548,45685,2
0.0,0.0,0.0,13095,10129,37386,47783,45331,2
0.0,0.0,0.0,12878,10094,37543,47299,44832,2
0.0,0.0,0.0,12636,10094,37622,46823,44585,2
0.0,0.0,0.0,12451,10083,37741,46457,44389,2
0.0,0.0,0.0,12346,10071,37741,45992,45181,2
0.0,0.0,0.0,12202,10049,37583,45992,44881,2
0.0,0.0,0.0,12060,10026,37386,45787,45081,2
0.0,0.0,0.0,12021,10026,37191,45584,44683,2
0.0,0.0,0.0,11970,10071,37230,45584,44389,2
0.0,0.0,0.0,11957,10037,37191,45382,44683,2
0.0,0.0,0.0,11957,10049,37230,45432,44832,2
0.0,0.0,0.0,11957,10049,37230,45331,44634,2
0.0,0.0,0.0,11906,10037,37230,45382,44683,2
0.0,0.0,0.0,11932,10049,37230,45031,44487,2
0.0,0.0,0.0,11906,10049,37075,45181,44389,2
0.0,0.0,0.0,11906,10049,37152,45081,44438,2
0.0,0.0,0.0,11906,10071,37114,45181,44340,2
0.0,0.0,0.0,11893,10071,37152,45081,44242,2
0.0,0.0,0.0,11932,10049,36998,45081,44389,2
0.0,0.0,0.0,11957,10071,37036,44981,44193,2
0.0,0.0,0.0,11983,10060,36959,44981,44145,2
0.0,0.0,0.0,11983,10083,36998,44981,44193,2
0.0,0.0,0.0,11996,10071,36959,44832,44048,2
0.0,0.0,0.0,11983,10071,36843,44881,44000,2
0.0,0.0,0.0,11957,10071,36920,44832,44048,2
0.0,0.0,0.0,11957,10071,36920,44881,43903,2
0.0,0.0,0.0,11932,10083,36767,44881,43903,2
0.0,0.0,0.0,11906,10071,36843,44733,43807,2
0.0,0.0,0.0,11932,10071,36767,44881,43807,2
0.0,0.0,0.0,11919,10083,36728,44683,43711,2
0.0,0.0,0.0,11906,10071,36767,44683,43711,2
0.0,0.0,0.0,11906,10106,36690,44733,43615,2
0.0,0.0,0.0,11919,10094,36614,44585,43519,2
0.0,0.0,0.0,11919,10083,36690,44634,43663,2
0.0,0.0,0.0,11893,10083,36614,44585,43424,2
0.0,0.0,0.0,11919,10071,36652,44487,43472,2
0.0,0.0,0.0,11906,10071,36538,44438,43424,2
0.0,0.0,0.0,11906,10037,36614,44291,43235,2
0.0,0.0,0.0,11881,10037,36652,43855,43235,2
0.0,0.0,0.0,11881,10026,36805,43807,43140,2
0.0,0.0,0.0,11830,10026,36690,43759,43093,2
0.0,0.0,0.0,11804,10026,36690,43711,43046,2
0.0,0.0,0.0,11817,10026,37075,43663,43188,2
0.0,0.0,0.0,11830,10026,36920,43519,43046,2
0.0,0.0,0.0,11817,10037,36767,43663,42859,2
0.0,0.0,0.0,11906,10049,36690,44000,42953,2
0.0,0.0,0.0,12034,10071,36998,46405,44000,2
0.0,0.0,0.0,12009,10071,37308,47034,44634,2
0.0,0.0,0.0,11830,10117,37269,47299,44389,2
0.0,0.0,0.0,11855,10117,37152,47945,44536,2
0.0,0.0,0.0,11932,10163,36690,47675,44291,2
0.0,0.0,0.0,12021,10186,36386,47299,44536,2
0.0,0.0,0.0,12112,10301,36010,47353,44291,2
0.0,0.0,0.0,12215,10418,36047,47891,44832,2
0.0,0.0,0.0,12034,10641,36690,48881,45584,2
0.0,0.0,0.0,11970,10855,37230,49727,46249,2
0.0,0.0,0.0,11944,10927,37114,50129,46613,2
0.0,0.0,0.0,11932,10999,37152,50770,46718,2
0.0,0.0,0.0,12543,11036,37230,51243,47353,2
0.0,0.0,0.0,13068,10963,37230,51303,47729,2
0.0,0.0,0.0,13150,10783,36843,50947,47460,2
0.0,0.0,0.0,13260,10641,36843,50303,47034,2
0.0,0.0,0.0,13454,10594,36920,49443,46770,2
0.0,0.0,0.0,13398,10558,36959,48548,46405,2
0.0,0.0,0.0,13343,10535,36767,48108,46043,2
0.0,0.0,0.0,13412,10511,36959,47837,45838,2
0.0,0.0,0.0,13412,10488,37152,47460,45533,2
0.0,0.0,0.0,13343,10453,37075,47140,45382,2
0.0,0.0,0.0,13426,10464,36882,47513,45787,2
0.0,0.0,0.0,13329,10511,36538,47675,45889,2
0.0,0.0,0.0,13081,10795,35787,48163,45992,2
0.0,0.0,0.0,12810,10831,35676,48108,46043,2
0.0,0.0,0.0,12477,10771,35528,48108,46457,2
0.0,0.0,0.0,12477,10867,35712,48658,47246,2
0.0,0.0,0.0,12703,11255,36197,49443,47891,2
0.0,0.0,0.0,12810,11678,36767,50361,47513,2
0.0,0.0,0.0,12851,11830,36690,50477,47246,2
0.0,0.0,0.0,12596,11804,36690,50361,47140,2
0.0,0.0,0.0,12477,11804,36310,50303,47087,2
0.0,0.0,0.0,12636,11728,36386,49899,47513,2
0.0,0.0,0.0,13594,11716,36920,49784,47567,2
0.0,0.0,0.0,14137,11766,37230,48881,47034,2
0.0,0.0,0.0,14224,11741,37152,48548,46613,2
0.0,0.0,0.0,14108,11503,37114,48163,46457,2
0.0,0.0,0.0,13978,11366,36959,47783,46249,2
0.0,0.0,0.0,13935,11354,36920,47460,46043,2
0.0,0.0,0.0,13863,11255,36843,47193,45838,2
0.0,0.0,0.0,13806,11255,37465,47034,45787,2
0.0,0.0,0.0,13735,11109,37347,46613,45483,2
0.0,0.0,0.0,13792,11096,37543,46509,45533,2
0.0,0.0,0.0,13749,11060,37504,46249,45584,2
0.0,0.0,0.0,13749,11036,37386,46301,45584,2
0.0,0.0,0.0,13679,11012,37269,46198,45382,2
0.0,0.0,0.0,13566,10748,37386,46146,45081,2
0.0,0.0,0.0,13246,10406,37543,45736,44487,2
0.0,0.0,0.0,13013,10371,37543,45685,44389,2
0.0,0.0,0.0,12918,10371,37662,45483,44291,2
0.0,0.0,0.0,12851,10278,37622,45432,44242,2
0.0,0.0,0.0,12743,10209,37583,45432,44048,2
0.0,0.0,0.0,12743,10163,37583,45281,44242,2
0.0,0.0,0.0,12636,10129,37583,45181,44096,2
0.0,0.0,0.0,12636,10049,37543,45081,43951,2
0.0,0.0,0.0,12636,10026,37543,44782,44000,2
0.0,0.0,0.0,12623,9980,37543,44438,44096,2
0.0,0.0,0.0,12649,9958,37230,44145,44000,2
0.0,0.0,0.0,12636,9958,37152,44048,43855,2
0.0,0.0,0.0,12610,9935,36998,44000,43903,2
0.0,0.0,0.0,12610,9912,36959,43807,43807,2
0.0,0.0,0.0,12583,9935,36920,43807,43711,2
0.0,0.0,0.0,12530,9935,36843,43711,43615,2
0.0,0.0,0.0,12504,9935,36690,43759,43567,2
0.0,0.0,0.0,12424,9946,36538,43424,43711,2
0.0,0.0,0.0,12320,10003,36348,43567,43663,2
0.0,0.0,0.0,12346,10037,36499,43615,43519,2
0.0,0.0,0.0,12228,10071,36386,43711,43567,2
0.0,0.0,0.0,12215,10071,36386,43567,43615,2
0.0,0.0,0.0,12215,10060,36310,43519,43472,2
0.0,0.0,0.0,12176,10071,36235,43519,43329,2
0.0,0.0,0.0,12176,10071,36235,43424,43235,2
0.0,0.0,0.0,12163,10071,36197,43329,43235,2
0.0,0.0,0.0,12163,10071,36197,43424,43235,2
0.0,0.0,0.0,12124,10071,36235,43329,43329,2
0.0,0.0,0.0,12112,10094,36160,43235,43140,2
0.0,0.0,0.0,12112,10071,35972,43046,43093,2
0.0,0.0,0.0,12112,10003,35861,43093,42859,2
0.0,0.0,0.0,12124,9980,35861,42766,43046,2
0.0,0.0,0.0,12215,9958,35749,42766,43140,2
0.0,0.0,0.0,12215,9935,35712,42766,43188,2
0.0,0.0,0.0,12228,9946,35787,42580,43140,2
0.0,0.0,0.0,12189,9946,35602,42580,42859,2
0.0,0.0,0.0,12124,9958,35565,42673,43046,2
0.0,0.0,0.0,12086,10049,35676,42766,43000,2
0.0,0.0,0.0,12060,10186,36122,43282,42953,2
0.0,0.0,0.0,12060,10267,36386,43615,43140,2
0.0,0.0,0.0,12112,10301,36462,43807,43282,2
0.0,0.0,0.0,12086,10267,36310,43759,43093,2
0.0,0.0,0.0,12086,10209,36160,43759,42906,2
0.0,0.0,0.0,12112,10117,35935,43282,42812,2
0.0,0.0,0.0,12060,10129,35861,43235,42534,2
0.0,0.0,0.0,12086,10174,35898,43329,42859,2
0.0,0.0,0.0,12060,10221,35898,43424,42673,2
0.0,0.0,0.0,12060,10255,35861,43282,42673,2
0.0,0.0,0.0,12112,10117,35565,43140,42580,2
0.0,0.0,0.0,12163,10026,35455,42859,42488,2
0.0,0.0,0.0,12137,10026,35418,42953,42580,2
0.0,0.0,0.0,12163,10003,35309,42766,42534,2
0.0,0.0,0.0,12112,10026,35382,42859,42488,2
0.0,0.0,0.0,12112,10071,35418,42766,42534,2
0.0,0.0,0.0,12124,10071,35492,42812,42395,2
0.0,0.0,0.0,12124,10094,35309,42673,42395,2
0.0,0.0,0.0,12163,10026,35272,42488,42442,2
0.0,0.0,0.0,12163,10003,35272,42395,42304,2
0.0,0.0,0.0,12163,10003,35236,42488,42349,2
0.0,0.0,0.0,12086,10037,35127,42395,42304,2
0.0,0.0,0.0,12124,10026,35055,42304,42258,2
0.0,0.0,0.0,12176,10003,35163,42258,42304,2
0.0,0.0,0.0,12189,10014,35345,42120,42488,2
0.0,0.0,0.0,12189,10003,35199,42029,42534,2
0.0,0.0,0.0,12215,10003,35163,42120,42626,2
0.0,0.0,0.0,12163,10003,35055,42120,42673,2
0.0,0.0,0.0,12124,10003,35055,42212,42580,2
0.0,0.0,0.0,12112,10003,35127,42120,42534,2
0.0,0.0,0.0,12112,10003,35091,42029,42488,2
0.0,0.0,0.0,12124,10003,35055,42166,42534,2
0.0,0.0,0.0,12124,10026,35018,42212,42488,2
0.0,0.0,0.0,12112,10026,34982,42212,42442,2
0.0,0.0,0.0,12137,10026,35055,42120,42488,2
0.0,0.0,0.0,12124,10026,35055,42212,42488,2
0.0,0.0,0.0,12150,10026,35272,42580,42766,2
0.0,0.0,0.0,12124,10049,35418,42488,42673,2
0.0,0.0,0.0,12124,10026,35309,42580,42766,2
0.0,0.0,0.0,12163,10037,35382,42488,42719,2
0.0,0.0,0.0,12112,10037,35236,42488,42534,2
0.0,0.0,0.0,12163,10003,35309,42304,42766,2
0.0,0.0,0.0,12137,10026,35199,42488,42673,2
0.0,0.0,0.0,12112,10026,35309,42488,42580,2
0.0,0.0,0.0,12073,10026,35418,42488,42673,2
0.0,0.0,0.0,12021,10117,35455,42580,42766,2
0.0,0.0,0.0,11983,10209,35528,42673,42766,2
0.0,0.0,0.0,12009,10255,35639,42673,42812,2
0.0,0.0,0.0,11996,10301,35565,42859,42766,2
0.0,0.0,0.0,12009,10267,35492,42859,42906,2
0.0,0.0,0.0,12009,10186,35345,42859,42534,2
0.0,0.0,0.0,11983,10209,35272,42766,42488,2
0.0,0.0,0.0,12009,10174,35345,42766,42488,2
0.0,0.0,0.0,11957,10255,35272,42812,42488,2
0.0,0.0,0.0,11957,10325,35418,42859,42673,2
0.0,0.0,0.0,11983,10313,35418,43093,42859,2
0.0,0.0,0.0,11957,10267,35345,42859,42580,2
0.0,0.0,0.0,12021,10255,35272,42673,42029,2
0.0,0.0,0.0,11957,10255,35199,42534,41488,2
0.0,0.0,0.0,11983,10255,35127,42212,41088,2
0.0,0.0,0.0,11983,10221,35127,42166,41044,2
0.0,0.0,0.0,12009,10255,35055,42395,41044,2
0.0,0.0,0.0,12009,10232,35055,42580,41044,2
0.0,0.0,0.0,12202,10301,34946,43329,41000,2
0.0,0.0,0.0,12320,10348,34946,43807,41443,2
0.0,0.0,0.0,12385,10441,35127,44000,42304,2
0.0,0.0,0.0,12398,10488,35418,45081,44881,2
0.0,0.0,0.0,12346,10535,35824,46095,46405,2
0.0,0.0,0.0,12320,10582,36010,46198,46718,2
0.0,0.0,0.0,12320,10594,36085,46666,46823,2
0.0,0.0,0.0,12346,10676,36310,46981,46457,2
0.0,0.0,0.0,12320,10748,36462,47087,46198,2
0.0,0.0,0.0,12320,10795,36499,47034,45081,2
0.0,0.0,0.0,12320,10867,36538,46928,44782,2
0.0,0.0,0.0,12346,10867,36538,46666,44683,2
0.0,0.0,0.0,12346,10915,36499,46928,44291,2
0.0,0.0,0.0,12346,10975,36499,46928,44242,2
0.0,0.0,0.0,12372,11024,36386,46928,44389,2
0.0,0.0,0.0,12372,11012,36348,47299,44096,2
0.0,0.0,0.0,12411,11036,36272,47299,44242,2
0.0,0.0,0.0,12490,10975,35935,46928,43424,2
0.0,0.0,0.0,12649,10939,35676,45382,42029,2
0.0,0.0,0.0,12649,10891,35418,44782,41443,2
0.0,0.0,0.0,12610,10843,35199,44291,41309,2
0.0,0.0,0.0,12583,10831,34874,44193,41667,2
0.0,0.0,0.0,12504,10867,35055,44193,41803,2
0.0,0.0,0.0,12477,10879,35018,44096,42673,2
0.0,0.0,0.0,12424,10963,35127,44048,43807,2
0.0,0.0,0.0,12464,10927,35055,43903,43329,2
0.0,0.0,0.0,12424,10963,35018,44000,43329,2
0.0,0.0,0.0,12424,10915,34982,43903,43093,2
0.0,0.0,0.0,12477,10987,35018,44096,42953,2
0.0,0.0,0.0,12690,10963,35345,44242,42166,2
0.0,0.0,0.0,12743,10879,35272,44000,41848,2
0.0,0.0,0.0,12878,10879,35345,44000,41757,2
0.0,0.0,0.0,12918,10915,35455,43903,41848,2
0.0,0.0,0.0,12972,11012,35565,44536,41533,2
0.0,0.0,0.0,13191,11109,35272,44981,41622,2
0.0,0.0,0.0,13357,11157,35163,45281,41577,2
0.0,0.0,0.0,13454,11182,35272,45787,41848,2
0.0,0.0,0.0,13524,11170,35199,46095,41803,2
0.0,0.0,0.0,13510,11157,35199,46198,41848,2
0.0,0.0,0.0,13468,10819,35345,46043,41757,2
0.0,0.0,0.0,13426,10464,35272,45584,41309,2
0.0,0.0,0.0,13315,10255,35127,44683,41132,2
0.0,0.0,0.0,13136,10163,34731,44193,41000,2
0.0,0.0,0.0,13081,10117,34518,44048,40780,2
0.0,0.0,0.0,12972,10117,34412,43807,40693,2
0.0,0.0,0.0,12959,10094,34200,43615,40649,2
0.0,0.0,0.0,12932,10071,34200,43615,40780,2
0.0,0.0,0.0,12905,10083,34165,43424,40562,2
0.0,0.0,0.0,12797,10071,34026,43615,40605,2
0.0,0.0,0.0,12770,10071,33748,43807,40912,2
0.0,0.0,0.0,12690,10049,33645,43615,41088,2
0.0,0.0,0.0,12636,10071,33508,43663,41044,2
0.0,0.0,0.0,12556,10071,33474,43615,40955,2
0.0,0.0,0.0,12490,10071,33508,43519,41000,2
0.0,0.0,0.0,12398,10083,33439,43472,40780,2
0.0,0.0,0.0,12346,10094,33236,43235,40780,2
0.0,0.0,0.0,12346,10094,33168,43759,40605,2
0.0,0.0,0.0,12398,10129,32932,44291,40693,2
0.0,0.0,0.0,12477,10163,32699,44832,40562,2
0.0,0.0,0.0,12398,10174,32832,45231,40693,2
0.0,0.0,0.0,12424,10197,32966,45181,40868,2
0.0,0.0,0.0,12438,10209,33033,45181,40780,2
0.0,0.0,0.0,12477,10221,33168,45432,40693,2
0.0,0.0,0.0,12477,10232,33168,45787,40693,2
0.0,0.0,0.0,12464,10232,33134,45787,40868,2
0.0,0.0,0.0,12424,10255,33303,46249,41399,2
0.0,0.0,0.0,12293,10278,34200,47837,43235,2
0.0,0.0,0.0,12241,10359,34447,48548,45281,2
0.0,0.0,0.0,12215,10394,34553,48992,47034,2
0.0,0.0,0.0,12241,10453,34624,49499,47945,2
0.0,0.0,0.0,12267,10499,34803,49556,48937,2
0.0,0.0,0.0,12293,10546,34874,49556,50014,2
0.0,0.0,0.0,12306,10546,34731,49386,50888,2
0.0,0.0,0.0,12372,10558,34839,49330,51783,2
0.0,0.0,0.0,12385,10582,34696,49048,52209,2
0.0,0.0,0.0,12424,10570,34803,48937,52639,2
0.0,0.0,0.0,12464,10582,34767,48769,52148,2
0.0,0.0,0.0,12530,10558,34839,48382,50829,2
0.0,0.0,0.0,12743,10535,34874,48108,49556,2
0.0,0.0,0.0,13232,10535,34589,48163,49556,2
0.0,0.0,0.0,13792,10535,34271,48382,49899,2
0.0,0.0,0.0,14224,10641,33991,48437,51124,2
0.0,0.0,0.0,14429,10867,33887,49048,51663,2
0.0,0.0,0.0,14151,10963,33783,48881,51965,2
0.0,0.0,0.0,14195,11084,33611,49048,51783,2
0.0,0.0,0.0,14311,11133,33236,48992,51904,2
0.0,0.0,0.0,14311,11121,33033,49048,51783,2
0.0,0.0,0.0,14253,11121,32932,48992,51783,2
0.0,0.0,0.0,14050,11084,32765,48992,51783,2
0.0,0.0,0.0,13665,11036,32633,48881,51542,2
0.0,0.0,0.0,13343,11012,32435,48548,51783,2
0.0,0.0,0.0,13232,10963,32303,48382,51422,2
0.0,0.0,0.0,13260,10963,32108,47891,51243,2
0.0,0.0,0.0,13426,10915,31913,47567,51184,2
0.0,0.0,0.0,14137,10879,31656,47406,50888,2
0.0,0.0,0.0,15242,10771,31561,47034,50594,2
0.0,0.0,0.0,16125,10629,31087,46198,50129,2
0.0,0.0,0.0,16748,10582,30776,45685,50072,2
0.0,0.0,0.0,16949,10535,30591,45181,49613,2
0.0,0.0,0.0,17118,10488,30226,44585,49330,2
0.0,0.0,0.0,17582,10535,30015,43855,48992,2
0.0,0.0,0.0,17792,10582,29746,43140,48658,2
0.0,0.0,0.0,17739,10546,29450,42580,48437,2
0.0,0.0,0.0,17495,10546,29362,42580,48382,2
0.0,0.0,0.0,17186,10558,29333,43000,48218,2
0.0,0.0,0.0,17186,10582,29450,43235,48327,2
0.0,0.0,0.0,17289,10605,29333,43282,48327,2
0.0,0.0,0.0,17357,10629,29362,43235,48327,2
0.0,0.0,0.0,17478,10676,29333,43235,48382,2
0.0,0.0,0.0,17634,10629,29245,43140,48218,2
0.0,0.0,0.0,17582,10594,29274,42953,48218,2
0.0,0.0,0.0,17426,10535,29362,43282,48000,2
0.0,0.0,0.0,17306,10371,29304,42580,47675,2
0.0,0.0,0.0,17152,10267,29509,41622,46876,2
0.0,0.0,0.0,17084,10209,29391,40955,46249,2
0.0,0.0,0.0,17067,10163,29100,40346,45736,2
0.0,0.0,0.0,16966,10174,29129,40173,45584,2
0.0,0.0,0.0,16815,10163,29071,40002,45281,2
0.0,0.0,0.0,16748,10186,28984,39874,45081,2
0.0,0.0,0.0,16748,10186,28984,39790,45181,2
0.0,0.0,0.0,16748,10163,28984,39790,44981,2
0.0,0.0,0.0,16715,10186,28927,39790,44782,2
0.0,0.0,0.0,16681,10186,29042,39536,44881,2
0.0,0.0,0.0,16648,10174,28840,39285,45081,2
0.0,0.0,0.0,16565,10174,28927,39244,45031,2
0.0,0.0,0.0,16532,10221,28927,39036,44389,2
0.0,0.0,0.0,16516,10232,28840,38830,44242,2
0.0,0.0,0.0,16549,10221,28754,38748,44048,2
0.0,0.0,0.0,16598,10255,28898,38503,43377,2
0.0,0.0,0.0,16648,10278,28783,38422,43377,2
0.0,0.0,0.0,16549,10255,28955,38503,43329,2
0.0,0.0,0.0,16352,10244,29013,38544,43855,2
0.0,0.0,0.0,16287,10267,28984,38748,44193,2
0.0,0.0,0.0,16189,10267,29071,38748,43903,2
0.0,0.0,0.0,16109,10301,28984,38748,44096,2
0.0,0.0,0.0,15980,10290,29071,38789,44242,2
0.0,0.0,0.0,15884,10301,29100,38871,44096,2
0.0,0.0,0.0,15773,10325,28984,38830,44096,2
0.0,0.0,0.0,15710,10313,28955,38789,44000,2
0.0,0.0,0.0,15789,10301,28869,38503,44000,2
0.0,0.0,0.0,15964,10371,29042,38463,43807,2
0.0,0.0,0.0,16287,10394,29071,38422,43807,2
0.0,0.0,0.0,16565,10418,28984,38422,43855,2
0.0,0.0,0.0,16681,10511,28927,38382,43807,2
0.0,0.0,0.0,16434,10535,29042,38585,44000,2
0.0,0.0,0.0,16385,10535,29042,38585,43903,2
0.0,0.0,0.0,16368,10558,28955,38382,43807,2
0.0,0.0,0.0,16303,10546,29013,38503,43711,2
0.0,0.0,0.0,16303,10582,28984,38422,43807,2
0.0,0.0,0.0,16303,10594,28984,38422,43711,2
0.0,0.0,0.0,16287,10582,29042,38341,43807,2
0.0,0.0,0.0,16319,10582,28984,38382,43711,2
0.0,0.0,0.0,16385,10594,29042,38341,43519,2
0.0,0.0,0.0,16352,10582,29042,38301,43519,2
0.0,0.0,0.0,16352,10546,28984,38463,43567,2
0.0,0.0,0.0,16303,10511,28927,38422,43519,2
0.0,0.0,0.0,16352,10453,28812,38260,43519,2
0.0,0.0,0.0,16385,10406,28612,37860,43282,2
0.0,0.0,0.0,16565,10394,28217,37426,43472,2
0.0,0.0,0.0,16748,10371,27966,37075,43519,2
0.0,0.0,0.0,16898,10394,27911,37347,44096,2
0.0,0.0,0.0,17220,10441,27994,37426,44242,2
0.0,0.0,0.0,17513,10535,28133,37940,44242,2
0.0,0.0,0.0,17774,10629,27966,37741,43759,2
0.0,0.0,0.0,17827,10676,27911,37543,43615,2
0.0,0.0,0.0,17862,10748,27800,37701,43282,2
0.0,0.0,0.0,17809,10748,27800,37622,43235,2
0.0,0.0,0.0,17862,10748,27773,37583,42906,2
0.0,0.0,0.0,17862,10748,27773,37583,42626,2
0.0,0.0,0.0,17862,10748,27745,37465,42212,2
0.0,0.0,0.0,17809,10700,27718,37426,42029,2
0.0,0.0,0.0,17757,10688,27800,37347,41667,2
0.0,0.0,0.0,17704,10724,27911,37308,41622,2
0.0,0.0,0.0,17495,10783,28022,37465,41712,2
0.0,0.0,0.0,17443,10879,28245,37465,42029,2
0.0,0.0,0.0,17392,10939,28161,37504,42120,2
0.0,0.0,0.0,17323,10915,28133,37543,42258,2
0.0,0.0,0.0,17220,10891,28133,37583,42120,2
0.0,0.0,0.0,17118,10879,28189,37465,42304,2
0.0,0.0,0.0,17016,10879,28357,37622,42395,2
0.0,0.0,0.0,16966,10951,28301,37662,42395,2
0.0,0.0,0.0,17016,10915,28301,37662,42488,2
0.0,0.0,0.0,16966,10867,28245,37622,42212,2
0.0,0.0,0.0,17016,10867,28161,37543,42304,2
0.0,0.0,0.0,16983,10783,28077,37504,42120,2
0.0,0.0,0.0,16949,10676,28133,37269,42395,2
0.0,0.0,0.0,16898,10629,28022,37152,43046,2
0.0,0.0,0.0,16815,10558,28022,37075,42953,2
0.0,0.0,0.0,16681,10535,28022,36998,42859,2
0.0,0.0,0.0,16731,10499,28022,36998,42859,2
0.0,0.0,0.0,16715,10499,28049,36920,42673,2
0.0,0.0,0.0,16681,10488,28133,36920,42395,2
0.0,0.0,0.0,16632,10429,28022,36805,42395,2
0.0,0.0,0.0,16615,10394,28077,36920,42258,2
0.0,0.0,0.0,16483,10371,28133,36767,42166,2
0.0,0.0,0.0,16206,10267,28470,37075,42120,2
0.0,0.0,0.0,15900,10255,28640,37230,42029,2
0.0,0.0,0.0,15773,10267,28640,37191,42075,2
0.0,0.0,0.0,15757,10301,28612,37308,41893,2
0.0,0.0,0.0,15726,10348,28612,37036,41848,2
0.0,0.0,0.0,15710,10418,28697,37191,41622,2
0.0,0.0,0.0,15647,10453,28697,37230,41577,2
0.0,0.0,0.0,15647,10406,28640,37036,41577,2
0.0,0.0,0.0,15584,10418,28697,37036,41399,2
0.0,0.0,0.0,15584,10441,28697,37036,41622,2
0.0,0.0,0.0,15521,10406,28669,37152,41399,2
0.0,0.0,0.0,15412,10359,28583,37036,41488,2
0.0,0.0,0.0,15350,10209,28470,36843,41488,2
0.0,0.0,0.0,15335,10174,28470,36690,41265,2
0.0,0.0,0.0,15242,10163,28329,36690,41221,2
0.0,0.0,0.0,15288,10140,28385,36652,41132,2
0.0,0.0,0.0,15273,10094,28357,36614,41088,2
0.0,0.0,0.0,15273,10071,28357,36538,41221,2
0.0,0.0,0.0,15258,10071,28301,36538,41221,2
0.0,0.0,0.0,15242,10083,28329,36538,41221,2
0.0,0.0,0.0,15211,10083,28301,36462,41044,2
0.0,0.0,0.0,15119,10163,28329,36499,41088,2
0.0,0.0,0.0,14997,10232,28385,36538,41000,2
0.0,0.0,0.0,14876,10255,28470,36690,40912,2
0.0,0.0,0.0,14846,10301,28470,36767,41000,2
0.0,0.0,0.0,14801,10301,28414,36728,40868,2
0.0,0.0,0.0,14786,10301,28357,36614,40824,2
0.0,0.0,0.0,14801,10301,28357,36614,40693,2
0.0,0.0,0.0,14801,10255,28357,36538,40562,2
0.0,0.0,0.0,14997,10232,28133,36235,40389,2
0.0,0.0,0.0,15381,10290,27800,35565,39494,2
0.0,0.0,0.0,15900,10209,27554,35345,40259,2
0.0,0.0,0.0,16222,10255,27527,35309,42534,2
0.0,0.0,0.0,16632,10244,27527,35091,42534,2
0.0,0.0,0.0,16949,10232,27499,34731,41757,2
0.0,0.0,0.0,17033,10244,27310,34235,40736,2
0.0,0.0,0.0,17016,10232,27175,33921,39578,2
0.0,0.0,0.0,16781,10232,26644,33371,39578,2
0.0,0.0,0.0,16352,10232,26829,33852,40868,2
0.0,0.0,0.0,16173,10278,26961,34553,41803,2
0.0,0.0,0.0,16125,10301,27095,35055,41938,2
0.0,0.0,0.0,16157,10348,26961,34874,41577,2
0.0,0.0,0.0,16189,10348,26935,34803,41399,2
0.0,0.0,0.0,16173,10394,26961,34982,41088,2
0.0,0.0,0.0,16125,10453,27095,34982,40780,2
0.0,0.0,0.0,16060,10570,27122,34874,40780,2
0.0,0.0,0.0,15916,10629,27202,34910,40605,2
0.0,0.0,0.0,15726,10594,27148,34874,40173,2
0.0,0.0,0.0,15647,10582,27068,34839,40045,2
0.0,0.0,0.0,15678,10546,27041,34839,40131,2
0.0,0.0,0.0,15615,10594,27095,34874,40045,2
0.0,0.0,0.0,15521,10605,27068,34767,40002,2
0.0,0.0,0.0,15490,10617,27041,34696,39874,2
0.0,0.0,0.0,15475,10535,27068,34624,39747,2
0.0,0.0,0.0,15459,10488,26935,34518,39832,2
0.0,0.0,0.0,15428,10325,26935,34553,40131,2
0.0,0.0,0.0,15459,10267,26855,34482,40088,2
0.0,0.0,0.0,15397,10209,26855,34412,39917,2
0.0,0.0,0.0,15397,10209,26802,34341,40002,2
0.0,0.0,0.0,15428,10209,26723,34200,40002,2
0.0,0.0,0.0,15428,10163,26776,34026,39832,2
0.0,0.0,0.0,15350,10163,26802,33991,40002,2
0.0,0.0,0.0,15242,10174,26935,33991,40002,2
0.0,0.0,0.0,15288,10163,26935,33852,39960,2
0.0,0.0,0.0,15273,10163,26855,33887,39960,2
0.0,0.0,0.0,15273,10163,26882,33921,40045,2
0.0,0.0,0.0,15304,10163,26882,33921,39960,2
0.0,0.0,0.0,15242,10186,26855,33921,40002,2
0.0,0.0,0.0,15196,10186,26988,34130,40131,2
0.0,0.0,0.0,15119,10209,27041,34060,40088,2
0.0,0.0,0.0,15028,10186,26988,34165,40216,2
0.0,0.0,0.0,15013,10174,26988,34271,40088,2
0.0,0.0,0.0,14967,10209,27041,34341,40259,2
0.0,0.0,0.0,14846,10163,27310,34482,40389,2
0.0,0.0,0.0,14786,10174,27636,34910,40389,2
0.0,0.0,0.0,14741,10209,27745,35127,40693,2
0.0,0.0,0.0,14786,10244,27800,35455,41088,2
0.0,0.0,0.0,14786,10325,27883,35972,42534,2
0.0,0.0,0.0,14922,10441,28301,37465,43855,2
0.0,0.0,0.0,15058,10582,28498,38912,44782,2
0.0,0.0,0.0,14636,10724,28726,39874,45081,2
0.0,0.0,0.0,14253,11024,29538,41443,45736,2
0.0,0.0,0.0,14137,11219,29984,42349,45889,2
0.0,0.0,0.0,14021,11206,30195,42488,45889,2
0.0,0.0,0.0,13964,11280,30226,42766,46095,2
0.0,0.0,0.0,13863,11403,30469,43282,46249,2
0.0,0.0,0.0,13764,11515,30869,44000,46613,2
0.0,0.0,0.0,13849,11553,30994,44585,46876,2
0.0,0.0,0.0,13806,11603,31150,44881,46823,2
0.0,0.0,0.0,13849,11678,31434,45181,46876,2
0.0,0.0,0.0,13778,11653,31529,45181,47034,2
0.0,0.0,0.0,13510,11653,31688,45584,47140,2
0.0,0.0,0.0,13205,11465,31785,45787,47513,2
0.0,0.0,0.0,13095,11317,32010,46301,47783,2
0.0,0.0,0.0,12932,11036,32108,46509,48273,2
0.0,0.0,0.0,12770,10712,32369,46146,48548,2
0.0,0.0,0.0,12543,10546,32633,45889,48603,2
0.0,0.0,0.0,12451,10394,32699,45787,48382,2
0.0,0.0,0.0,12346,10301,32732,45081,47675,2
0.0,0.0,0.0,12293,10255,32765,44487,47087,2
0.0,0.0,0.0,12124,10232,32899,44242,46928,2
0.0,0.0,0.0,11983,10232,33168,44193,46928,2
0.0,0.0,0.0,11855,10278,33576,44193,46823,2
0.0,0.0,0.0,11766,10301,34306,44389,47087,2
0.0,0.0,0.0,11728,10301,34412,44389,47087,2
0.0,0.0,0.0,11716,10325,34482,44487,47460,2
0.0,0.0,0.0,11983,10394,33714,44733,47675,2
0.0,0.0,0.0,12424,10535,33134,45281,47034,2
0.0,0.0,0.0,12905,10582,32899,44981,46823,2
0.0,0.0,0.0,12703,10724,32799,44832,46666,2
0.0,0.0,0.0,11453,10688,32732,44683,46928,2
0.0,0.0,0.0,11255,10688,32666,44487,47246,2
0.0,0.0,0.0,11391,10700,32732,44487,47299,2
0.0,0.0,0.0,11653,11012,32799,45131,47460,2
0.0,0.0,0.0,11919,11255,32899,45787,47406,2
0.0,0.0,0.0,11855,11255,32999,45635,47299,2
0.0,0.0,0.0,11741,11255,33100,45584,46981,2
0.0,0.0,0.0,11855,11219,33236,45635,46613,2
0.0,0.0,0.0,12530,11453,33576,45941,45838,2
0.0,0.0,0.0,12756,11553,33645,45787,45483,2
0.0,0.0,0.0,12878,11578,33852,46146,45584,2
0.0,0.0,0.0,12905,11528,34130,46405,45584,2
0.0,0.0,0.0,12824,11478,34060,46509,46043,2
0.0,0.0,0.0,12770,11379,34026,46353,46146,2
0.0,0.0,0.0,12797,11379,33991,46301,45941,2
0.0,0.0,0.0,12905,11354,33852,46301,45992,2
0.0,0.0,0.0,13287,11354,33991,45992,46095,2
0.0,0.0,0.0,13580,11317,33921,45992,46146,2
0.0,0.0,0.0,13566,11157,34095,45281,46095,2
0.0,0.0,0.0,13454,10927,34060,44782,45736,2
0.0,0.0,0.0,13398,10748,33921,44048,45584,2
0.0,0.0,0.0,13232,10676,33576,43711,45533,2
0.0,0.0,0.0,13068,10795,33067,43424,44981,2
0.0,0.0,0.0,13013,11024,33067,43046,44585,2
0.0,0.0,0.0,12959,11012,32832,42719,44291,2
0.0,0.0,0.0,12905,10891,32699,42673,44242,2
0.0,0.0,0.0,12824,10771,32500,42488,43807,2
0.0,0.0,0.0,12703,10641,32238,42120,43519,2
0.0,0.0,0.0,12636,10546,32108,41893,43329,2
0.0,0.0,0.0,12543,10441,31978,41667,43235,2
0.0,0.0,0.0,12477,10325,31913,41577,43093,2
0.0,0.0,0.0,12438,10232,32010,41309,43329,2
0.0,0.0,0.0,12385,10267,32075,41309,43140,2
0.0,0.0,0.0,12424,10197,32010,40912,43235,2
0.0,0.0,0.0,12424,10152,32108,40693,43329,2
0.0,0.0,0.0,12451,10129,31978,40519,43377,2
0.0,0.0,0.0,12424,10129,31752,40389,43377,2
0.0,0.0,0.0,12424,10186,31593,40432,43000,2
0.0,0.0,0.0,12372,10348,31624,40302,42953,2
0.0,0.0,0.0,12385,10406,31561,40259,42673,2
0.0,0.0,0.0,12346,10418,31656,40216,42349,2
0.0,0.0,0.0,12228,10418,32173,39832,40955,2
0.0,0.0,0.0,12163,10394,32765,38830,39327,2
0.0,0.0,0.0,12163,10418,32666,38625,39077,2
0.0,0.0,0.0,12163,10441,32402,38707,38912,2
0.0,0.0,0.0,12228,10441,32402,38585,38748,2
0.0,0.0,0.0,12241,10441,32303,38748,37781,2
0.0,0.0,0.0,12267,10418,32303,38625,37781,2
0.0,0.0,0.0,12346,10394,32271,38748,37860,2
0.0,0.0,0.0,12556,10406,32402,38830,38019,2
0.0,0.0,0.0,12583,10383,32633,38912,38100,2
0.0,0.0,0.0,12596,10371,33405,38995,37701,2
0.0,0.0,0.0,12636,10371,33337,38995,37701,2
0.0,0.0,0.0,12797,10394,33100,39244,37230,2
0.0,0.0,0.0,13027,10418,32866,38180,37426,2
0.0,0.0,0.0,13343,10418,32238,37701,37465,2
0.0,0.0,0.0,13468,10313,31656,37386,37308,2
0.0,0.0,0.0,13566,10301,31150,37075,37386,2
0.0,0.0,0.0,13580,10267,30745,36767,37230,2
0.0,0.0,0.0,13594,10255,30286,36499,37230,2
0.0,0.0,0.0,13440,10278,30195,36310,37386,2
0.0,0.0,0.0,13357,10325,30408,36576,37465,2
0.0,0.0,0.0,13496,10394,30745,37152,37820,2
0.0,0.0,0.0,13964,10511,31276,38260,38220,2
0.0,0.0,0.0,14166,10831,31785,39160,39327,2
0.0,0.0,0.0,14518,11157,32043,39494,39244,2
0.0,0.0,0.0,14473,11268,32140,39747,39411,2
0.0,0.0,0.0,14224,11317,31978,39790,39285,2
0.0,0.0,0.0,14108,11403,31785,39494,39411,2
0.0,0.0,0.0,14311,11553,31402,39160,39327,2
0.0,0.0,0.0,14726,11716,31087,38748,39494,2
0.0,0.0,0.0,15165,11855,30900,38341,39077,2
0.0,0.0,0.0,15553,11983,30653,38301,38871,2
0.0,0.0,0.0,15741,12021,30591,38301,38503,2
0.0,0.0,0.0,15996,12009,30469,38180,38422,2
0.0,0.0,0.0,16352,11906,30256,38180,38220,2
0.0,0.0,0.0,16467,11804,30165,37940,38180,2
0.0,0.0,0.0,16483,11628,30286,37820,37980,2
0.0,0.0,0.0,16815,11317,30499,37426,38019,2
0.0,0.0,0.0,17050,11157,30469,37114,38100,2
0.0,0.0,0.0,16983,11084,30195,36920,38059,2
0.0,0.0,0.0,16882,10987,30075,36767,37860,2
0.0,0.0,0.0,16798,10963,29984,36538,37860,2
0.0,0.0,0.0,16698,10975,29984,36538,37701,2
0.0,0.0,0.0,16565,11060,30286,36920,37781,2
0.0,0.0,0.0,16549,11255,30347,36998,37741,2
0.0,0.0,0.0,16450,11354,30347,36920,37622,2
0.0,0.0,0.0,16483,11403,30408,36843,37701,2
0.0,0.0,0.0,16417,11528,30530,37230,37622,2
0.0,0.0,0.0,16303,11553,30622,37386,37622,2
0.0,0.0,0.0,16222,11528,30715,37504,37622,2
0.0,0.0,0.0,16125,11453,30715,37386,37583,2
0.0,0.0,0.0,15980,11304,30684,37465,37622,2
0.0,0.0,0.0,15868,11219,30653,37543,37543,2
0.0,0.0,0.0,15789,11157,30561,37465,37504,2
0.0,0.0,0.0,15726,10867,30347,37191,37543,2
0.0,0.0,0.0,15741,10795,30256,37230,37504,2
0.0,0.0,0.0,15726,10771,30226,37152,37386,2
0.0,0.0,0.0,15741,10653,30256,36959,37426,2
0.0,0.0,0.0,15741,10594,30256,36920,37308,2
0.0,0.0,0.0,15773,10605,30165,36920,37308,2
0.0,0.0,0.0,15678,10558,30075,36805,37308,2
0.0,0.0,0.0,15615,10676,30165,36805,37308,2
0.0,0.0,0.0,15553,10915,30256,36882,37308,2
0.0,0.0,0.0,15459,10975,30226,36843,37230,2
0.0,0.0,0.0,15412,10963,30347,36843,37269,2
0.0,0.0,0.0,15335,11084,30347,36920,37152,2
0.0,0.0,0.0,15288,11133,30347,36728,37191,2
0.0,0.0,0.0,15242,11133,30469,36920,37386,2
0.0,0.0,0.0,15104,11048,30591,36690,37308,2
0.0,0.0,0.0,14967,10867,30469,36614,36998,2
0.0,0.0,0.0,14876,10712,30377,36462,36805,2
0.0,0.0,0.0,14967,10453,30045,36272,36767,2
0.0,0.0,0.0,14952,10394,30045,36160,36920,2
0.0,0.0,0.0,15028,10418,30015,36010,37075,2
0.0,0.0,0.0,15058,10394,30015,35861,36998,2
0.0,0.0,0.0,15028,10406,29895,35824,36882,2
0.0,0.0,0.0,14907,10629,29925,35861,36843,2
0.0,0.0,0.0,14741,10939,29984,35787,36690,2
0.0,0.0,0.0,14621,10819,30075,35787,36690,2
0.0,0.0,0.0,14488,10700,30075,35712,36614,2
0.0,0.0,0.0,14370,10558,30165,35712,36462,2
0.0,0.0,0.0,14224,10476,30165,35676,36576,2
0.0,0.0,0.0,14137,10418,30530,35749,36614,2
0.0,0.0,0.0,14137,10476,30962,36010,36767,2
0.0,0.0,0.0,14166,10418,30776,35935,36728,2
0.0,0.0,0.0,14079,10406,30653,35898,36499,2
0.0,0.0,0.0,14050,10348,30561,35824,36272,2
0.0,0.0,0.0,14079,10313,30469,35787,36272,2
0.0,0.0,0.0,14108,10348,30347,35749,36235,2
0.0,0.0,0.0,14108,10348,30469,35749,36235,2
0.0,0.0,0.0,14137,10348,30499,35861,36160,2
0.0,0.0,0.0,14224,10301,30408,35861,36235,2
0.0,0.0,0.0,14370,10453,30347,35749,36310,2
0.0,0.0,0.0,14458,10453,30226,35639,36348,2
0.0,0.0,0.0,14399,10453,30165,35565,36310,2
0.0,0.0,0.0,14268,10879,30226,35492,36348,2
0.0,0.0,0.0,14151,10939,30226,35492,36197,2
0.0,0.0,0.0,14151,10748,30165,35528,36310,2
0.0,0.0,0.0,14137,10676,30226,35565,36160,2
0.0,0.0,0.0,14224,10831,30195,35602,36160,2
0.0,0.0,0.0,14195,10939,30226,35528,36197,2
0.0,0.0,0.0,14195,11109,30347,35528,36160,2
0.0,0.0,0.0,14253,10700,30105,35455,36235,2
0.0,0.0,0.0,14370,10359,30105,35309,36160,2
0.0,0.0,0.0,14370,10325,30165,35199,36160,2
0.0,0.0,0.0,14399,10313,30105,35055,36272,2
0.0,0.0,0.0,14399,10267,30165,34982,36122,2
0.0,0.0,0.0,14282,10255,30045,35018,36010,2
0.0,0.0,0.0,14224,10267,30015,34982,36160,2
0.0,0.0,0.0,14166,10453,30195,35055,36010,2
0.0,0.0,0.0,14166,10582,30105,35055,36160,2
0.0,0.0,0.0,14488,10629,30135,35127,36160,2
0.0,0.0,0.0,14666,10348,30165,35127,36160,2
0.0,0.0,0.0,14607,10255,30105,35127,36235,2
0.0,0.0,0.0,14444,10348,30045,35055,36085,2
0.0,0.0,0.0,14370,10676,30105,35127,36010,2
0.0,0.0,0.0,14326,10724,30105,35055,36010,2
0.0,0.0,0.0,14253,10676,30105,35163,35898,2
0.0,0.0,0.0,14268,10759,30165,35163,36010,2
0.0,0.0,0.0,14311,10867,30286,35345,36122,2
0.0,0.0,0.0,14311,10867,30377,35272,35935,2
0.0,0.0,0.0,14311,10915,30347,35272,36010,2
0.0,0.0,0.0,14311,10939,30317,35345,35972,2
0.0,0.0,0.0,14268,10963,30286,35272,36010,2
0.0,0.0,0.0,14282,11024,30286,35272,36010,2
0.0,0.0,0.0,14195,11060,30347,35055,35787,2
0.0,0.0,0.0,14238,11060,30347,35199,35935,2
0.0,0.0,0.0,14253,11060,30286,35272,36010,2
0.0,0.0,0.0,14195,11060,30317,35272,35898,2
0.0,0.0,0.0,14209,11060,30286,35345,36010,2
0.0,0.0,0.0,14224,11060,30226,35272,36010,2
0.0,0.0,0.0,14209,11121,30317,35272,35935,2
0.0,0.0,0.0,14253,11109,30347,35272,36010,2
0.0,0.0,0.0,14253,11157,30347,35309,35935,2
0.0,0.0,0.0,14311,11157,30286,35309,35898,2
0.0,0.0,0.0,14224,11170,30286,35272,35935,2
0.0,0.0,0.0,14209,11194,30347,35236,35898,2
0.0,0.0,0.0,14209,11182,30347,35199,35935,2
0.0,0.0,0.0,14166,11206,30286,35236,35861,2
0.0,0.0,0.0,14180,11255,30377,35163,35935,2
0.0,0.0,0.0,14151,11255,30347,35272,35935,2
0.0,0.0,0.0,14180,11243,30347,35272,35861,2
0.0,0.0,0.0,14166,11268,30347,35272,35861,2
0.0,0.0,0.0,14151,11280,30347,35199,35861,2
0.0,0.0,0.0,14151,11280,30408,35272,35787,2
0.0,0.0,0.0,14151,11304,30377,35163,35824,2
0.0,0.0,0.0,14195,11280,30377,35272,35787,2
0.0,0.0,0.0,14151,11268,30347,35199,35787,2
0.0,0.0,0.0,14151,11268,30347,35163,35861,2
0.0,0.0,0.0,14166,11255,30347,35199,35787,2
0.0,0.0,0.0,14166,11280,30347,35199,35787,2
0.0,0.0,0.0,14151,11280,30347,35199,35861,2
0.0,0.0,0.0,14166,11280,30347,35127,35787,2
0.0,0.0,0.0,14166,11304,30347,35199,35787,2
0.0,0.0,0.0,14137,11304,30347,35199,35787,2
0.0,0.0,0.0,14137,11304,30347,35272,35712,2
0.0,0.0,0.0,14137,11304,30347,35199,35749,2
0.0,0.0,0.0,14137,11354,30286,35163,35676,2
0.0,0.0,0.0,14137,11379,30286,35199,35787,2
0.0,0.0,0.0,14137,11403,30347,35163,35712,2
0.0,0.0,0.0,14137,11428,30286,35199,35824,2
0.0,0.0,0.0,14166,11416,30286,35272,35787,2
0.0,0.0,0.0,14137,11416,30286,35236,35787,2
0.0,0.0,0.0,14151,11416,30347,35163,35787,2
0.0,0.0,0.0,14137,11453,30377,35199,35712,2
0.0,0.0,0.0,14166,11416,30317,35199,35749,2
0.0,0.0,0.0,14166,11453,30317,35127,35712,2
0.0,0.0,0.0,14137,11478,30256,35163,35861,2
0.0,0.0,0.0,14195,11453,30317,35199,35787,2
0.0,0.0,0.0,14137,11453,30317,35163,35712,2
0.0,0.0,0.0,14137,11465,30347,35199,35712,2
0.0,0.0,0.0,14166,11453,30377,35236,35676,2
0.0,0.0,0.0,14166,11453,30347,35272,35639,2
0.0,0.0,0.0,14166,11453,30286,35199,35787,2
0.0,0.0,0.0,14166,11453,30286,35272,35824,2
0.0,0.0,0.0,14166,11453,30347,35163,35749,2
0.0,0.0,0.0,14195,11465,30347,35127,35712,2
0.0,0.0,0.0,14137,11465,30347,35163,35639,2
0.0,0.0,0.0,14166,11478,30377,35127,35749,2
0.0,0.0,0.0,14137,11453,30347,35163,35676,2
0.0,0.0,0.0,14166,11453,30347,35199,35676,2
0.0,0.0,0.0,14151,11465,30317,35127,35712,2
0.0,0.0,0.0,14108,11478,30347,35127,35712,2
0.0,0.0,0.0,14108,11478,30317,35127,35787,2
0.0,0.0,0.0,14108,11503,30347,35199,35712,2
0.0,0.0,0.0,14108,11478,30286,35127,35749,2
0.0,0.0,0.0,14108,11503,30347,35199,35749,2
0.0,0.0,0.0,14108,11503,30347,35163,35712,2
0.0,0.0,0.0,14137,11528,30347,35163,35639,2
0.0,0.0,0.0,14137,11540,30347,35163,35602,2
0.0,0.0,0.0,14108,11553,30347,35127,35602,2
0.0,0.0,0.0,14108,11553,30347,35091,35712,2
0.0,0.0,0.0,14108,11553,30347,35127,35712,2
0.0,0.0,0.0,14108,11553,30347,35163,35639,2
0.0,0.0,0.0,14108,11553,30286,35127,35712,2
0.0,0.0,0.0,14108,11578,30317,35091,35712,2
0.0,0.0,0.0,14108,11578,30347,35199,35749,2
0.0,0.0,0.0,14108,11653,30347,35163,35639,2
0.0,0.0,0.0,14108,11603,30226,35163,35565,2
0.0,0.0,0.0,14137,11565,30286,35055,35712,2
0.0,0.0,0.0,14108,11503,30256,35018,35639,2
0.0,0.0,0.0,14151,11379,30195,35127,35712,2
0.0,0.0,0.0,14166,11317,30165,35127,35639,2
0.0,0.0,0.0,14209,11072,29925,35018,35565,2
0.0,0.0,0.0,14253,10771,29775,34874,35749,2
0.0,0.0,0.0,14224,10700,29805,34982,35712,2
0.0,0.0,0.0,14224,10629,29805,34910,35749,2
0.0,0.0,0.0,14180,10535,29805,34767,35602,2
0.0,0.0,0.0,14166,10488,29805,34767,35565,2
0.0,0.0,0.0,14079,10594,29895,34910,35749,2
0.0,0.0,0.0,13992,10499,29805,34767,35712,2
0.0,0.0,0.0,13863,10336,29835,34696,35528,2
0.0,0.0,0.0,13792,10209,29746,34696,35492,2
0.0,0.0,0.0,13693,10163,29746,34482,35345,2
0.0,0.0,0.0,13650,10117,29805,34482,35272,2
0.0,0.0,0.0,13594,10071,29865,34412,35272,2
0.0,0.0,0.0,13524,10071,29835,34482,35345,2
0.0,0.0,0.0,13468,10071,29805,34447,35199,2
0.0,0.0,0.0,13454,10071,29746,34553,35345,2
0.0,0.0,0.0,13510,10140,29895,34839,35492,2
0.0,0.0,0.0,13679,10301,29775,35455,35127,2
0.0,0.0,0.0,13863,10453,29925,35787,35602,2
0.0,0.0,0.0,13806,10843,30165,36386,36690,2
0.0,0.0,0.0,13650,11206,30347,37426,37230,2
0.0,0.0,0.0,13510,11403,30745,38341,38301,2
0.0,0.0,0.0,13552,11703,31213,40173,39452,2
0.0,0.0,0.0,13594,12215,32238,42580,41265,2
0.0,0.0,0.0,13566,12424,33100,45031,43711,2
0.0,0.0,0.0,13510,12556,33576,45992,44981,2
0.0,0.0,0.0,13594,12864,33887,46666,45941,2
0.0,0.0,0.0,13778,12959,34130,46666,46613,2
0.0,0.0,0.0,13892,12878,34341,46095,46613,2
0.0,0.0,0.0,13849,12797,34341,45281,47460,2
0.0,0.0,0.0,13792,12743,33956,45181,48108,2
0.0,0.0,0.0,13398,12099,33474,45331,47729,2
0.0,0.0,0.0,13068,11957,33303,44981,47246,2
0.0,0.0,0.0,12918,11906,33134,44881,47193,2
0.0,0.0,0.0,12703,11919,32899,44634,47087,2
0.0,0.0,0.0,13040,12583,32966,44881,46928,2
0.0,0.0,0.0,13398,13081,32899,44881,46876,2
0.0,0.0,0.0,13749,13412,32832,45031,46981,2
0.0,0.0,0.0,14282,13735,32966,44931,47460,2
0.0,0.0,0.0,14311,13622,33168,44832,47513,2
0.0,0.0,0.0,14137,13027,33405,43046,46981,2
0.0,0.0,0.0,13992,12530,32666,41044,46405,2
0.0,0.0,0.0,13735,11906,32043,39874,46043,2
0.0,0.0,0.0,13594,11678,31881,39494,45331,2
0.0,0.0,0.0,13398,11691,32108,39327,44000,2
0.0,0.0,0.0,13232,11528,31881,39077,42075,2
0.0,0.0,0.0,13122,11465,31593,38789,40780,2
0.0,0.0,0.0,13027,11354,31276,38830,39077,2
0.0,0.0,0.0,12905,11329,31213,38666,38463,2
0.0,0.0,0.0,12770,11206,31087,38585,37940,2
0.0,0.0,0.0,12623,11060,31025,38341,36538,2
0.0,0.0,0.0,12490,10867,30900,37940,36310,2
0.0,0.0,0.0,12411,10748,30715,37860,34839,2
0.0,0.0,0.0,12372,10688,30745,37583,33611,2
0.0,0.0,0.0,12293,10676,30776,37781,33991,2
0.0,0.0,0.0,12241,10629,30684,38180,34624,2
0.0,0.0,0.0,12150,10535,30530,38019,34696,2
0.0,0.0,0.0,12112,10441,30165,37781,34696,2
0.0,0.0,0.0,12163,10325,30015,37543,34696,2
0.0,0.0,0.0,12124,10255,29775,37269,34553,2
0.0,0.0,0.0,12163,10209,29746,37114,34518,2
0.0,0.0,0.0,12163,10163,29627,36843,34624,2
0.0,0.0,0.0,12124,10117,29538,36728,34482,2
0.0,0.0,0.0,12060,10117,29509,36690,34412,2
0.0,0.0,0.0,12009,10140,29984,36690,34412,2
0.0,0.0,0.0,11906,10163,30256,36843,34341,2
0.0,0.0,0.0,11855,10129,30165,36843,34026,2
0.0,0.0,0.0,11868,10094,29984,36614,33991,2
0.0,0.0,0.0,11868,10026,29805,36576,33887,2
0.0,0.0,0.0,11868,10026,29509,36310,34130,2
0.0,0.0,0.0,11970,10003,29333,36462,34235,2
0.0,0.0,0.0,11868,9958,29304,36690,34341,2
0.0,0.0,0.0,11779,9946,29216,36614,34341,2
0.0,0.0,0.0,11678,9935,29158,36614,34271,2
0.0,0.0,0.0,11603,9935,29304,36690,34341,2
0.0,0.0,0.0,11515,10026,29568,36614,34130,2
0.0,0.0,0.0,11503,10083,29865,36767,34412,2
0.0,0.0,0.0,11478,10049,29775,36767,33991,2
0.0,0.0,0.0,11465,10049,29716,36690,33852,2
0.0,0.0,0.0,11503,9946,29450,36348,33991,2
0.0,0.0,0.0,11528,9958,29391,36462,34165,2
0.0,0.0,0.0,11528,9935,29274,36614,34130,2
0.0,0.0,0.0,11553,9935,29333,36462,34165,2
0.0,0.0,0.0,11528,9935,29274,36614,34271,2
0.0,0.0,0.0,11478,9935,29274,36576,34200,2
0.0,0.0,0.0,11478,9912,29216,36690,34412,2
0.0,0.0,0.0,11465,9924,29100,36614,34271,2
0.0,0.0,0.0,11403,9901,29100,36767,34412,2
0.0,0.0,0.0,11416,9912,29158,36767,34447,2
0.0,0.0,0.0,11403,9935,29245,36767,34482,2
0.0,0.0,0.0,11416,10003,29362,36728,34412,2
0.0,0.0,0.0,11317,10071,29627,36767,34341,2
0.0,0.0,0.0,11354,10083,29568,36843,34200,2
0.0,0.0,0.0,11304,10071,29391,36690,34165,2
0.0,0.0,0.0,11317,9992,28927,36160,33852,2
0.0,0.0,0.0,11317,10003,28527,35565,33852,2
0.0,0.0,0.0,11317,9980,28385,35602,33921,2
0.0,0.0,0.0,11304,9980,28414,35565,33991,2
0.0,0.0,0.0,11317,10003,28555,35639,34376,2
0.0,0.0,0.0,11391,10026,28583,35749,34271,2
0.0,0.0,0.0,11354,10049,28470,35712,34341,2
0.0,0.0,0.0,11403,10026,28357,35639,34306,2
0.0,0.0,0.0,12009,10163,28245,35602,34341,2
0.0,0.0,0.0,12438,10232,28049,35565,34341,2
0.0,0.0,0.0,12663,10313,28049,35382,34341,2
0.0,0.0,0.0,12918,10394,28022,35418,34341,2
0.0,0.0,0.0,13371,10511,27966,35418,34482,2
0.0,0.0,0.0,13735,10605,27939,35418,34553,2
0.0,0.0,0.0,13964,10700,27911,35528,34589,2
0.0,0.0,0.0,14399,10963,28022,35712,34696,2
0.0,0.0,0.0,14562,11060,27911,36047,34731,2
0.0,0.0,0.0,14696,11109,28022,36614,34589,2
0.0,0.0,0.0,14696,11084,27939,36614,34553,2
0.0,0.0,0.0,14696,11084,27939,36843,34767,2
0.0,0.0,0.0,14666,11109,28357,37114,34696,2
0.0,0.0,0.0,14518,11182,28927,37036,34341,2
0.0,0.0,0.0,14488,11379,29391,37386,34060,2
0.0,0.0,0.0,14592,11553,29865,37741,33991,2
0.0,0.0,0.0,14801,11653,30165,38019,34130,2
0.0,0.0,0.0,15181,11703,30135,38019,34341,2
0.0,0.0,0.0,15288,11691,29805,38301,34589,2
0.0,0.0,0.0,15521,11716,29450,38341,34910,2
0.0,0.0,0.0,15773,11453,28984,38180,34696,2
0.0,0.0,0.0,15868,11206,28754,38019,34624,2
0.0,0.0,0.0,15964,11024,28414,37741,34553,2
0.0,0.0,0.0,16093,11012,28301,37543,34341,2
0.0,0.0,0.0,16254,10927,28329,37426,34341,2
0.0,0.0,0.0,16254,10819,28245,37308,34235,2
0.0,0.0,0.0,16028,10688,28357,37308,34060,2
0.0,0.0,0.0,15741,10641,28840,37504,33887,2
0.0,0.0,0.0,15506,10915,29245,37465,33748,2
0.0,0.0,0.0,15242,10843,29274,37230,33576,2
0.0,0.0,0.0,15089,10927,29216,37269,33371,2
0.0,0.0,0.0,15490,11157,29013,37114,33236,2
0.0,0.0,0.0,16093,11403,28869,37152,33168,2
0.0,0.0,0.0,16483,11453,28669,37075,33202,2
0.0,0.0,0.0,16748,11503,28612,36920,33303,2
0.0,0.0,0.0,16698,11403,28470,36690,33202,2
0.0,0.0,0.0,16681,11503,28498,36882,33371,2
0.0,0.0,0.0,16483,12320,29216,37543,33439,2
0.0,0.0,0.0,16385,12112,29538,37940,33371,2
0.0,0.0,0.0,16303,11983,29657,37860,33303,2
0.0,0.0,0.0,16254,11957,29657,37940,33371,2
0.0,0.0,0.0,16157,11868,29657,37980,33337,2
0.0,0.0,0.0,16125,11906,29657,37860,33202,2
0.0,0.0,0.0,15980,11691,29568,37701,33168,2
0.0,0.0,0.0,15726,11304,29129,37347,32899,2
0.0,0.0,0.0,15521,10748,28697,36614,32899,2
0.0,0.0,0.0,15304,10535,28583,36047,33303,2
0.0,0.0,0.0,15227,10488,28527,35935,33439,2
0.0,0.0,0.0,15242,10453,28498,35712,33202,2
0.0,0.0,0.0,15211,10464,28442,35712,33337,2
0.0,0.0,0.0,15258,10499,28385,35602,33303,2
0.0,0.0,0.0,15211,10499,28357,35565,33236,2
0.0,0.0,0.0,15211,10511,28301,35528,33371,2
0.0,0.0,0.0,15211,10535,28301,35565,33236,2
0.0,0.0,0.0,15211,10582,28301,35565,33303,2
0.0,0.0,0.0,15181,10546,28301,35455,33269,2
0.0,0.0,0.0,15181,10546,28301,35418,33236,2
0.0,0.0,0.0,15211,10558,28217,35418,33236,2
0.0,0.0,0.0,15211,10546,28217,35309,33168,2
0.0,0.0,0.0,15150,10546,28189,35345,33202,2
0.0,0.0,0.0,15211,10546,28189,35272,33168,2
0.0,0.0,0.0,15211,10535,28189,35163,33168,2
0.0,0.0,0.0,15242,10535,28245,35127,33168,2
0.0,0.0,0.0,15227,10488,28357,35055,33269,2
0.0,0.0,0.0,15181,10453,28357,34839,33371,2
0.0,0.0,0.0,15211,10441,28357,34731,33371,2
0.0,0.0,0.0,15211,10453,28301,34589,33202,2
0.0,0.0,0.0,15211,10488,28301,34553,33236,2
0.0,0.0,0.0,15211,10523,28301,34553,33303,2
0.0,0.0,0.0,15165,10499,28189,34553,33168,2
0.0,0.0,0.0,15150,10511,28245,34553,33100,2
0.0,0.0,0.0,15150,10535,28217,34482,33100,2
0.0,0.0,0.0,15119,10582,28470,34839,33134,2
0.0,0.0,0.0,15043,10724,28697,35091,33033,2
0.0,0.0,0.0,14907,10795,28984,35163,33067,2
0.0,0.0,0.0,14607,10783,29274,35455,33236,2
0.0,0.0,0.0,14547,10546,29158,35272,32966,2
0.0,0.0,0.0,14488,10348,28640,34910,32932,2
0.0,0.0,0.0,14488,10325,28583,34803,32899,2
0.0,0.0,0.0,14488,10313,28527,34589,32932,2
0.0,0.0,0.0,14458,10313,28414,34589,32899,2
0.0,0.0,0.0,14385,10313,28470,34553,32932,2
0.0,0.0,0.0,14282,10464,28754,34839,32799,2
0.0,0.0,0.0,14195,11170,29509,35272,32899,2
0.0,0.0,0.0,14137,11133,29716,35345,32966,2
0.0,0.0,0.0,14137,11012,29627,35309,32832,2
0.0,0.0,0.0,14079,11024,29686,35418,32932,2
0.0,0.0,0.0,14064,11012,29805,35492,32832,2
0.0,0.0,0.0,14050,10915,29805,35565,32765,2
0.0,0.0,0.0,14050,10891,29775,35492,32666,2
0.0,0.0,0.0,14007,10867,29746,35455,32765,2
0.0,0.0,0.0,14079,10594,29450,35455,32666,2
0.0,0.0,0.0,14166,10453,29042,35127,32899,2
0.0,0.0,0.0,14253,10301,28927,34839,32765,2
0.0,0.0,0.0,14224,10267,28812,34696,32899,2
0.0,0.0,0.0,14268,10255,28697,34589,32866,2
0.0,0.0,0.0,14224,10244,28640,34553,32799,2
0.0,0.0,0.0,14195,10221,28498,34553,32799,2
0.0,0.0,0.0,14166,10221,28583,34412,32799,2
0.0,0.0,0.0,14166,10232,28612,34553,32666,2
0.0,0.0,0.0,14108,10267,28726,34624,32699,2
0.0,0.0,0.0,14137,10394,28869,34767,32666,2
0.0,0.0,0.0,14108,10582,29100,34767,32666,2
0.0,0.0,0.0,14137,10748,29333,35127,32799,2
0.0,0.0,0.0,14021,11084,29450,35309,32765,2
0.0,0.0,0.0,14021,11145,29509,35418,32832,2
0.0,0.0,0.0,14021,10511,29158,35018,32666,2
0.0,0.0,0.0,13992,10267,28984,34839,32599,2
0.0,0.0,0.0,13964,10221,28812,34624,32599,2
0.0,0.0,0.0,13906,10221,28726,34589,32633,2
0.0,0.0,0.0,13906,10255,28726,34624,32533,2
0.0,0.0,0.0,13906,10301,28754,34696,32599,2
0.0,0.0,0.0,13892,10383,28812,34767,32699,2
0.0,0.0,0.0,13921,10406,28840,34839,32566,2
0.0,0.0,0.0,13878,10406,28869,34803,32732,2
0.0,0.0,0.0,13906,10453,28840,34910,32699,2
0.0,0.0,0.0,13878,10499,28927,34839,32699,2
0.0,0.0,0.0,13849,10523,28984,34910,32666,2
0.0,0.0,0.0,13863,10535,28927,34946,32699,2
0.0,0.0,0.0,13863,10582,28955,35018,32633,2
0.0,0.0,0.0,13949,10582,28984,34982,32599,2
0.0,0.0,0.0,13964,10582,29013,35018,32666,2
0.0,0.0,0.0,13992,10629,28955,34946,32633,2
0.0,0.0,0.0,14021,10748,28927,35018,32633,2
0.0,0.0,0.0,14050,10915,29013,35163,32599,2
0.0,0.0,0.0,14021,10546,29100,35163,32566,2
0.0,0.0,0.0,13849,10267,29158,34982,32566,2
0.0,0.0,0.0,13735,10163,29042,34696,32500,2
0.0,0.0,0.0,13454,10094,28984,34518,32238,2
0.0,0.0,0.0,13301,10083,28927,34412,32467,2
0.0,0.0,0.0,13301,10117,28812,34412,32369,2
0.0,0.0,0.0,13398,10209,28869,34482,32369,2
0.0,0.0,0.0,13524,10488,29042,34624,32402,2
0.0,0.0,0.0,13622,10915,29042,34696,32435,2
0.0,0.0,0.0,13679,11072,29071,34696,32566,2
0.0,0.0,0.0,13764,11366,29158,34803,32500,2
0.0,0.0,0.0,13849,11453,29274,34910,32633,2
0.0,0.0,0.0,13821,11416,29187,34874,32666,2
0.0,0.0,0.0,13849,11403,29216,34910,32533,2
0.0,0.0,0.0,13806,11379,29274,34910,32633,2
0.0,0.0,0.0,13792,11403,29187,34839,32666,2
0.0,0.0,0.0,13821,11403,29216,34910,32566,2
0.0,0.0,0.0,13821,11403,29245,34910,32699,2
0.0,0.0,0.0,13849,11416,29245,34910,32599,2
0.0,0.0,0.0,13821,11379,29216,34839,32566,2
0.0,0.0,0.0,13806,11403,29187,34874,32633,2
0.0,0.0,0.0,13821,11403,29216,34874,32566,2
0.0,0.0,0.0,13821,11416,29216,34910,32566,2
0.0,0.0,0.0,13849,11416,29187,34874,32599,2
0.0,0.0,0.0,13821,11453,29216,34874,32633,2
0.0,0.0,0.0,13849,11403,29274,34946,32633,2
0.0,0.0,0.0,13835,11391,29274,34910,32633,2
0.0,0.0,0.0,13849,11403,29274,34874,32533,2
0.0,0.0,0.0,13821,11391,29274,34946,32500,2
0.0,0.0,0.0,13806,11403,29245,34874,32533,2
0.0,0.0,0.0,13849,11428,29216,34839,32566,2
0.0,0.0,0.0,13835,11416,29274,34874,32566,2
0.0,0.0,0.0,13806,11416,29216,34910,32533,2
0.0,0.0,0.0,13821,11428,29274,34910,32500,2
0.0,0.0,0.0,13821,11416,29274,34874,32566,2
0.0,0.0,0.0,13792,11416,29274,34982,32500,2
0.0,0.0,0.0,13821,11416,29274,34874,32500,2
0.0,0.0,0.0,13849,11403,29216,34839,32500,2
0.0,0.0,0.0,13849,11403,29333,34910,32533,2
0.0,0.0,0.0,13849,11403,29216,34874,32500,2
0.0,0.0,0.0,13849,11403,29362,34946,32566,2
0.0,0.0,0.0,13849,11354,29274,34874,32500,2
0.0,0.0,0.0,13849,11354,29333,34803,32435,2
0.0,0.0,0.0,13863,11366,29304,34839,32500,2
0.0,0.0,0.0,13849,11366,29216,34839,32533,2
0.0,0.0,0.0,13849,11354,29274,34874,32435,2
0.0,0.0,0.0,13863,11317,29274,34839,32402,2
0.0,0.0,0.0,13849,11304,29274,34839,32500,2
0.0,0.0,0.0,13849,11304,29216,34839,32500,2
0.0,0.0,0.0,13849,11268,29216,34839,32467,2
0.0,0.0,0.0,13806,11304,29216,34767,32500,2
0.0,0.0,0.0,13792,11255,29274,34839,32500,2
0.0,0.0,0.0,13693,10676,29274,34839,32369,2
0.0,0.0,0.0,13287,10209,29274,34696,32238,2
0.0,0.0,0.0,12716,10117,29274,34482,32238,2
0.0,0.0,0.0,12228,10049,29187,34271,32043,2
0.0,0.0,0.0,12060,10049,29187,33991,31849,2
0.0,0.0,0.0,11919,10026,29042,33956,31881,2
0.0,0.0,0.0,11919,10003,29042,33991,31849,2
0.0,0.0,0.0,11881,10026,29042,33991,31978,2
0.0,0.0,0.0,11855,10026,28984,34165,31978,2
0.0,0.0,0.0,11881,10026,28927,34060,31849,2
0.0,0.0,0.0,11855,10037,28927,33991,31849,2
0.0,0.0,0.0,11906,10026,28812,33991,31881,2
0.0,0.0,0.0,12163,10071,28812,34130,31978,2
0.0,0.0,0.0,12636,10094,28726,34271,31946,2
0.0,0.0,0.0,13260,10174,28697,34306,31946,2
0.0,0.0,0.0,13707,10221,28726,34235,31913,2
0.0,0.0,0.0,13978,10301,28726,34165,31913,2
0.0,0.0,0.0,14326,10359,28669,33991,31913,2
0.0,0.0,0.0,14488,10429,28612,33921,32010,2
0.0,0.0,0.0,14577,10476,28555,33921,31978,2
0.0,0.0,0.0,14681,10594,28470,34026,31946,2
0.0,0.0,0.0,14577,10629,28527,34130,32043,2
0.0,0.0,0.0,14488,10641,28527,34412,32010,2
0.0,0.0,0.0,14696,10879,28697,34910,32010,2
0.0,0.0,0.0,14756,11121,28640,35272,32271,2
0.0,0.0,0.0,14907,11304,28697,35565,32500,2
0.0,0.0,0.0,14997,11553,28869,36010,32899,2
0.0,0.0,0.0,14967,11590,29071,36310,33508,2
0.0,0.0,0.0,14726,11528,29274,36386,33783,2
0.0,0.0,0.0,14311,11354,29450,36690,34341,2
0.0,0.0,0.0,14137,11317,29509,37036,34839,2
0.0,0.0,0.0,13992,11329,29568,37308,35055,2
0.0,0.0,0.0,13878,11354,29568,37075,34696,2
0.0,0.0,0.0,13878,11354,29627,36998,34624,2
0.0,0.0,0.0,13835,11329,29805,36959,34412,2
0.0,0.0,0.0,13821,11304,29865,36843,34412,2
0.0,0.0,0.0,13849,11329,29925,36920,34341,2
0.0,0.0,0.0,13792,11329,29984,36843,34235,2
0.0,0.0,0.0,13806,11317,30045,36805,34235,2
0.0,0.0,0.0,13792,11341,30045,36767,34271,2
0.0,0.0,0.0,13735,11329,30105,36690,34271,2
0.0,0.0,0.0,13735,11354,30105,36767,34271,2
0.0,0.0,0.0,13764,11354,30105,36690,34200,2
0.0,0.0,0.0,13749,11354,30105,36690,34130,2
0.0,0.0,0.0,13764,11354,30135,36767,34165,2
0.0,0.0,0.0,13749,11391,30165,36690,34341,2
0.0,0.0,0.0,13764,11403,30105,36728,34130,2
0.0,0.0,0.0,13764,11416,30105,36690,34165,2
0.0,0.0,0.0,13792,11379,30105,36690,34165,2
0.0,0.0,0.0,13792,11403,30105,36690,34130,2
0.0,0.0,0.0,13792,11428,30135,36614,34200,2
0.0,0.0,0.0,13835,11416,30045,36499,33991,2
0.0,0.0,0.0,13749,11428,30165,36614,34026,2
0.0,0.0,0.0,13749,11453,30105,36614,33956,2
0.0,0.0,0.0,13735,11453,30045,36538,34026,2
0.0,0.0,0.0,13806,11453,30045,36499,34026,2
0.0,0.0,0.0,13792,11503,30105,36538,33991,2
0.0,0.0,0.0,13792,11478,30075,36538,33921,2
0.0,0.0,0.0,13764,11503,30015,36538,33887,2
0.0,0.0,0.0,13792,11528,30045,36499,33991,2
0.0,0.0,0.0,13806,11528,30075,36538,33921,2
0.0,0.0,0.0,13792,11515,29984,36538,33991,2
0.0,0.0,0.0,13849,11503,30045,36538,33991,2
0.0,0.0,0.0,13792,11503,29925,36499,33852,2
0.0,0.0,0.0,13849,11503,29984,36424,34200,2
0.0,0.0,0.0,13792,11515,29984,36462,34095,2
0.0,0.0,0.0,13806,11503,30075,36499,34026,2
0.0,0.0,0.0,13792,11503,30045,36499,34130,2
0.0,0.0,0.0,13792,11515,29984,36462,34130,2
0.0,0.0,0.0,13792,11503,29984,36462,34200,2
0.0,0.0,0.0,13792,11528,30015,36348,34026,2
0.0,0.0,0.0,13749,11515,29984,36348,34026,2
0.0,0.0,0.0,13764,11503,30045,36348,34130,2
0.0,0.0,0.0,13792,11503,29984,36462,34060,2
0.0,0.0,0.0,13806,11503,29984,36348,34060,2
0.0,0.0,0.0,13792,11515,29984,36386,34026,2
0.0,0.0,0.0,13792,11528,30045,36462,34060,2
0.0,0.0,0.0,13792,11553,30015,36310,34130,2
0.0,0.0,0.0,13792,11528,30045,36424,34060,2
0.0,0.0,0.0,13849,11503,29984,36386,34095,2
0.0,0.0,0.0,13821,11528,30075,36348,33991,2
0.0,0.0,0.0,13792,11515,30045,36348,34026,2
0.0,0.0,0.0,13792,11553,30015,36348,33956,2
0.0,0.0,0.0,13806,11528,30045,36272,34026,2
0.0,0.0,0.0,13821,11553,30045,36348,33991,2
0.0,0.0,0.0,13906,11528,30045,36386,33991,2
0.0,0.0,0.0,13849,11553,30165,36348,33921,2
0.0,0.0,0.0,13849,11528,30165,36348,33852,2
0.0,0.0,0.0,13863,11553,30165,36386,33852,2
0.0,0.0,0.0,13863,11304,30105,36235,33887,2
0.0,0.0,0.0,13764,11109,29984,36085,33748,2
0.0,0.0,0.0,13764,10903,29984,36010,33783,2
0.0,0.0,0.0,13764,10724,29984,35898,33748,2
0.0,0.0,0.0,13693,10453,29984,35787,33748,2
0.0,0.0,0.0,13566,10255,29984,35602,33576,2
0.0,0.0,0.0,13343,10301,29925,35091,33303,2
0.0,0.0,0.0,13232,10348,29865,34874,33033,2
0.0,0.0,0.0,13068,10267,29775,34624,32932,2
0.0,0.0,0.0,12851,10174,29657,34660,32765,2
0.0,0.0,0.0,12703,10049,29627,34412,32765,2
0.0,0.0,0.0,12610,10003,29538,34341,32799,2
0.0,0.0,0.0,12583,9980,29450,34341,32832,2
0.0,0.0,0.0,12530,9980,29362,34412,32732,2
0.0,0.0,0.0,12530,10003,29333,34341,32866,2
0.0,0.0,0.0,12504,9980,29158,34376,32866,2
0.0,0.0,0.0,12451,10026,29129,34412,32866,2
0.0,0.0,0.0,12490,10014,29158,34412,32899,2
0.0,0.0,0.0,12490,10003,29158,34376,32832,2
0.0,0.0,0.0,12477,10026,29042,34271,32899,2
0.0,0.0,0.0,12504,10060,29042,34412,32899,2
0.0,0.0,0.0,12596,10221,29274,34482,32866,2
0.0,0.0,0.0,12649,10605,29509,34767,33033,2
0.0,0.0,0.0,12743,11354,29686,34982,33033,2
0.0,0.0,0.0,12743,12034,29865,35272,33033,2
0.0,0.0,0.0,12716,12504,29775,35236,32999,2
0.0,0.0,0.0,12716,12636,29865,35345,33033,2
0.0,0.0,0.0,12730,12797,29955,35455,33100,2
0.0,0.0,0.0,12743,12424,29984,35418,33134,2
0.0,0.0,0.0,12703,11703,30045,35345,33100,2
0.0,0.0,0.0,12703,11565,30015,35309,33100,2
0.0,0.0,0.0,12743,11515,30045,35309,32999,2
0.0,0.0,0.0,12743,11528,30015,35272,32932,2
0.0,0.0,0.0,12770,11528,30015,35272,32999,2
0.0,0.0,0.0,12797,11478,29984,35309,32999,2
0.0,0.0,0.0,12797,11453,30045,35199,32899,2
0.0,0.0,0.0,12797,11428,30015,35272,32899,2
0.0,0.0,0.0,12851,11453,29984,35163,32932,2
0.0,0.0,0.0,12905,11453,30015,35272,32899,2
0.0,0.0,0.0,12905,11453,30045,35199,32999,2
0.0,0.0,0.0,12905,11478,30015,35163,32932,2
0.0,0.0,0.0,12905,11453,30075,35199,32932,2
0.0,0.0,0.0,12905,11453,30045,35272,32832,2
0.0,0.0,0.0,12918,11440,30015,35236,32899,2
0.0,0.0,0.0,12905,11453,29955,35272,32966,2
0.0,0.0,0.0,12905,11478,30015,35272,32932,2
0.0,0.0,0.0,12905,11478,30015,35272,32932,2
0.0,0.0,0.0,12959,11453,29925,35163,32832,2
0.0,0.0,0.0,12959,11465,29984,35199,32932,2
0.0,0.0,0.0,12959,11453,30045,35272,32899,2
0.0,0.0,0.0,13013,11503,30105,35272,32832,2
0.0,0.0,0.0,12972,11528,30015,35272,32799,2
0.0,0.0,0.0,12972,11528,30015,35272,32866,2
