GyroX,GyroY,GyroZ,Thumb,Index,Middle,Ring,Pinky,Gesture
0.0,0.0,0.0,14666,11109,9755,37075,30900,3
0.0,0.0,0.0,14636,11109,9755,37152,30838,3
0.0,0.0,0.0,14607,11109,9755,37075,30869,3
0.0,0.0,0.0,14636,11109,9755,36959,30994,3
0.0,0.0,0.0,14666,11121,9755,37075,30807,3
0.0,0.0,0.0,14636,11157,9777,37075,30776,3
0.0,0.0,0.0,14607,11157,9800,37152,30776,3
0.0,0.0,0.0,14636,11170,9800,37114,30807,3
0.0,0.0,0.0,14636,11182,9811,37075,30745,3
0.0,0.0,0.0,14621,11182,9811,37114,30715,3
0.0,0.0,0.0,14621,11206,9845,37114,30653,3
0.0,0.0,0.0,14621,11182,9856,37075,30622,3
0.0,0.0,0.0,14666,11206,9822,36998,30653,3
0.0,0.0,0.0,14621,11182,9811,37114,30653,3
0.0,0.0,0.0,14666,11478,9912,37308,30591,3
0.0,0.0,0.0,14636,11540,9935,37269,30469,3
0.0,0.0,0.0,14607,11354,10049,37308,30469,3
0.0,0.0,0.0,14562,11219,10003,37075,30377,3
0.0,0.0,0.0,14547,11157,9935,36998,30347,3
0.0,0.0,0.0,14547,11133,9890,37075,30347,3
0.0,0.0,0.0,14562,11157,9845,36998,30256,3
0.0,0.0,0.0,14562,11182,9811,36998,30347,3
0.0,0.0,0.0,14562,11157,9766,37230,30408,3
0.0,0.0,0.0,14547,11170,9800,37075,30347,3
0.0,0.0,0.0,14518,11170,9755,37152,30408,3
0.0,0.0,0.0,14518,11206,9777,37230,30347,3
0.0,0.0,0.0,14503,11219,9766,37230,30286,3
0.0,0.0,0.0,14518,11206,9766,37308,30317,3
0.0,0.0,0.0,14488,11231,9766,37230,30347,3
0.0,0.0,0.0,14503,11231,9800,37152,30256,3
0.0,0.0,0.0,14488,11231,9800,37152,30377,3
0.0,0.0,0.0,14488,11231,9788,37230,30286,3
0.0,0.0,0.0,14488,11255,9800,37269,30195,3
0.0,0.0,0.0,14458,11255,9811,37152,30286,3
0.0,0.0,0.0,14458,11268,9811,37230,30256,3
0.0,0.0,0.0,14473,11268,9800,37075,30286,3
0.0,0.0,0.0,14458,11268,9800,37075,30256,3
0.0,0.0,0.0,14429,11280,9800,37152,30165,3
0.0,0.0,0.0,14444,11219,9811,37152,30195,3
0.0,0.0,0.0,14444,11268,9811,37114,30226,3
0.0,0.0,0.0,14458,11280,9822,37075,30165,3
0.0,0.0,0.0,14429,11280,9811,37114,30226,3
0.0,0.0,0.0,14429,11304,9811,37152,30105,3
0.0,0.0,0.0,14444,11304,9845,37075,30105,3
0.0,0.0,0.0,14414,11317,9811,37114,30105,3
0.0,0.0,0.0,14458,11304,9845,36998,30226,3
0.0,0.0,0.0,14444,11317,9811,36959,30045,3
0.0,0.0,0.0,14399,11268,9811,36767,30105,3
0.0,0.0,0.0,14518,11157,9811,36805,30015,3
0.0,0.0,0.0,14518,11060,9777,36690,30015,3
0.0,0.0,0.0,14577,10927,9755,36690,30045,3
0.0,0.0,0.0,14532,10795,9755,36614,29925,3
0.0,0.0,0.0,14547,10641,9710,36690,29895,3
0.0,0.0,0.0,14518,10535,9666,36538,29746,3
0.0,0.0,0.0,14562,10488,9666,36538,29805,3
0.0,0.0,0.0,14488,10441,9677,36499,29865,3
0.0,0.0,0.0,14547,10453,9666,36462,29805,3
0.0,0.0,0.0,14503,10441,9666,36462,29865,3
0.0,0.0,0.0,14488,10453,9666,36386,29955,3
0.0,0.0,0.0,14458,10488,9666,36386,29955,3
0.0,0.0,0.0,14458,10488,9666,36348,29895,3
0.0,0.0,0.0,14429,10488,9666,36348,29865,3
0.0,0.0,0.0,14429,10488,9666,36310,29805,3
0.0,0.0,0.0,14429,10535,9654,36348,29805,3
0.0,0.0,0.0,14414,10511,9643,36310,29925,3
0.0,0.0,0.0,14429,10511,9666,36386,29775,3
0.0,0.0,0.0,14399,10488,9643,36310,29775,3
0.0,0.0,0.0,14399,10535,9666,36462,29865,3
0.0,0.0,0.0,14429,10546,9643,36310,29865,3
0.0,0.0,0.0,14385,10546,9666,36348,29746,3
0.0,0.0,0.0,14385,10582,9666,36386,29805,3
0.0,0.0,0.0,14370,10594,9666,36310,29895,3
0.0,0.0,0.0,14370,10594,9666,36348,29925,3
0.0,0.0,0.0,14370,10629,9666,36348,29984,3
0.0,0.0,0.0,14326,10629,9688,36197,30045,3
0.0,0.0,0.0,14370,10629,9688,36235,29984,3
0.0,0.0,0.0,14326,10617,9688,36272,30045,3
0.0,0.0,0.0,14326,10629,9688,36348,29984,3
0.0,0.0,0.0,14326,10641,9688,36310,29925,3
0.0,0.0,0.0,14311,10594,9677,36160,29955,3
0.0,0.0,0.0,14429,10441,9666,36047,29805,3
0.0,0.0,0.0,14458,10418,9666,35787,29805,3
0.0,0.0,0.0,14429,10371,9666,35861,29746,3
0.0,0.0,0.0,14429,10290,9755,35861,29746,3
0.0,0.0,0.0,14458,10186,9755,35712,29716,3
0.0,0.0,0.0,14429,10163,9800,35712,29657,3
0.0,0.0,0.0,14355,10186,9845,35898,29627,3
0.0,0.0,0.0,14282,10244,9710,36235,29421,3
0.0,0.0,0.0,14195,10629,9710,36843,29391,3
0.0,0.0,0.0,14166,10795,9699,36843,29362,3
0.0,0.0,0.0,14166,10676,9688,36614,29333,3
0.0,0.0,0.0,14137,10605,9666,36652,29216,3
0.0,0.0,0.0,14137,10582,9710,36767,29274,3
0.0,0.0,0.0,14108,10594,9755,36805,29333,3
0.0,0.0,0.0,14108,10915,9777,37036,29274,3
0.0,0.0,0.0,14108,11157,9755,37075,29216,3
0.0,0.0,0.0,14021,11121,9688,37075,29158,3
0.0,0.0,0.0,14036,10867,9666,36843,29274,3
0.0,0.0,0.0,14036,10771,9643,36843,29158,3
0.0,0.0,0.0,14021,10748,9632,36767,29100,3
0.0,0.0,0.0,14007,10771,9666,36920,29129,3
0.0,0.0,0.0,14021,10771,9621,36767,29158,3
0.0,0.0,0.0,13978,10748,9632,36767,29158,3
0.0,0.0,0.0,13964,10879,9621,36843,29071,3
0.0,0.0,0.0,13964,11072,9621,36920,29187,3
0.0,0.0,0.0,13964,11133,9632,36690,29100,3
0.0,0.0,0.0,13964,11060,9621,36499,29042,3
0.0,0.0,0.0,13964,11012,9632,36235,29071,3
0.0,0.0,0.0,14108,10915,9621,35972,29042,3
0.0,0.0,0.0,14108,10903,9621,35712,29071,3
0.0,0.0,0.0,14108,10879,9621,35565,28984,3
0.0,0.0,0.0,14079,10819,9621,35749,28984,3
0.0,0.0,0.0,14021,10748,9621,35861,28984,3
0.0,0.0,0.0,14050,10748,9632,36160,29042,3
0.0,0.0,0.0,14021,10748,9621,36122,29071,3
0.0,0.0,0.0,14021,10724,9599,36160,29071,3
0.0,0.0,0.0,14021,10771,9621,36235,29042,3
0.0,0.0,0.0,14007,10771,9599,36160,29100,3
0.0,0.0,0.0,13978,10771,9621,36235,29216,3
0.0,0.0,0.0,13978,10771,9621,36160,29129,3
0.0,0.0,0.0,13992,10795,9621,36272,29071,3
0.0,0.0,0.0,13992,10795,9621,36160,29129,3
0.0,0.0,0.0,13964,10795,9599,36197,29100,3
0.0,0.0,0.0,13978,10819,9621,36160,29071,3
0.0,0.0,0.0,13964,10807,9621,36085,29100,3
0.0,0.0,0.0,14021,10795,9621,36047,29100,3
0.0,0.0,0.0,13992,10783,9621,36010,29129,3
0.0,0.0,0.0,13992,10819,9621,36160,29042,3
0.0,0.0,0.0,14021,11182,9621,36235,29100,3
0.0,0.0,0.0,14021,11084,9610,36160,29042,3
0.0,0.0,0.0,13992,10939,9621,36010,28984,3
0.0,0.0,0.0,13964,10879,9621,36010,28955,3
0.0,0.0,0.0,14021,10867,9621,36085,28955,3
0.0,0.0,0.0,13978,10867,9621,35935,29042,3
0.0,0.0,0.0,14021,10843,9621,36010,28955,3
0.0,0.0,0.0,13964,10867,9621,36010,29071,3
0.0,0.0,0.0,13964,10867,9621,35972,28955,3
0.0,0.0,0.0,13964,10867,9621,36010,29071,3
0.0,0.0,0.0,13978,10843,9610,36047,29042,3
0.0,0.0,0.0,13964,10867,9599,36010,29013,3
0.0,0.0,0.0,13964,10831,9621,36010,28984,3
0.0,0.0,0.0,13978,10867,9621,36010,28927,3
0.0,0.0,0.0,13964,10867,9599,36047,29042,3
0.0,0.0,0.0,13964,10831,9599,36047,29071,3
0.0,0.0,0.0,13964,10867,9621,36047,28984,3
0.0,0.0,0.0,13978,10855,9610,36047,28984,3
0.0,0.0,0.0,13964,10867,9621,36085,29100,3
0.0,0.0,0.0,13964,10831,9632,36085,29042,3
0.0,0.0,0.0,13992,10867,9621,36160,29042,3
0.0,0.0,0.0,13964,10867,9621,36010,29071,3
0.0,0.0,0.0,13978,10867,9599,36047,29071,3
0.0,0.0,0.0,13964,10879,9621,36047,29042,3
0.0,0.0,0.0,13964,10879,9621,36085,28955,3
0.0,0.0,0.0,13964,10867,9621,36010,28898,3
0.0,0.0,0.0,13978,10867,9621,36085,28984,3
0.0,0.0,0.0,13964,10843,9621,36047,28984,3
0.0,0.0,0.0,13964,10843,9621,36085,28869,3
0.0,0.0,0.0,13978,10843,9621,36160,28927,3
0.0,0.0,0.0,13964,10843,9599,36160,28927,3
0.0,0.0,0.0,13964,10831,9621,36160,28927,3
0.0,0.0,0.0,13978,10867,9599,36160,28984,3
0.0,0.0,0.0,13964,10867,9621,36160,28955,3
0.0,0.0,0.0,13964,10843,9599,36160,28927,3
0.0,0.0,0.0,13964,10843,9599,36235,28869,3
0.0,0.0,0.0,13964,10867,9599,36085,28869,3
0.0,0.0,0.0,13978,10867,9621,36160,28927,3
0.0,0.0,0.0,13992,10879,9621,36160,28869,3
0.0,0.0,0.0,13964,10867,9621,36197,28869,3
0.0,0.0,0.0,13964,10867,9621,36197,28869,3
0.0,0.0,0.0,13935,10843,9610,36160,28812,3
0.0,0.0,0.0,13921,10843,9621,36085,28927,3
0.0,0.0,0.0,13964,10843,9599,36010,28869,3
0.0,0.0,0.0,13964,10867,9621,36085,28812,3
0.0,0.0,0.0,13935,10867,9621,36047,28812,3
0.0,0.0,0.0,13964,10843,9621,36085,28812,3
0.0,0.0,0.0,13964,10843,9610,36085,28869,3
0.0,0.0,0.0,13935,10867,9621,36047,28812,3
0.0,0.0,0.0,13964,10867,9621,36085,28869,3
0.0,0.0,0.0,13964,10867,9621,36010,28840,3
0.0,0.0,0.0,13964,10867,9621,36047,28812,3
0.0,0.0,0.0,13964,10867,9610,36047,28812,3
0.0,0.0,0.0,13964,10867,9599,36010,28754,3
0.0,0.0,0.0,13964,10867,9632,36085,28754,3
0.0,0.0,0.0,13935,10855,9621,36122,28812,3
0.0,0.0,0.0,13949,10867,9599,36047,28783,3
0.0,0.0,0.0,13964,10843,9621,36010,28812,3
0.0,0.0,0.0,13964,10867,9621,36010,28754,3
0.0,0.0,0.0,13978,10867,9621,36085,28783,3
0.0,0.0,0.0,13964,10867,9621,36010,28812,3
0.0,0.0,0.0,13992,10843,9632,36010,28697,3
0.0,0.0,0.0,13978,10867,9621,35972,28840,3
0.0,0.0,0.0,13964,10891,9621,36047,28812,3
0.0,0.0,0.0,13978,10867,9621,36010,28812,3
0.0,0.0,0.0,13964,10891,9621,36010,28754,3
0.0,0.0,0.0,13978,10867,9621,35935,28783,3
0.0,0.0,0.0,13964,10915,9621,36010,28754,3
0.0,0.0,0.0,13978,10927,9599,35935,28726,3
0.0,0.0,0.0,13921,10915,9599,36010,28754,3
0.0,0.0,0.0,13949,10927,9621,35935,28754,3
0.0,0.0,0.0,13964,10915,9599,36010,28754,3
0.0,0.0,0.0,13935,10915,9621,36010,28754,3
0.0,0.0,0.0,13964,10927,9599,35972,28840,3
0.0,0.0,0.0,13978,10867,9621,35935,28812,3
0.0,0.0,0.0,13964,10843,9621,35898,28754,3
0.0,0.0,0.0,13978,10831,9610,35935,28812,3
0.0,0.0,0.0,13992,10748,9621,35861,28783,3
0.0,0.0,0.0,14007,10535,9599,35676,28812,3
0.0,0.0,0.0,14050,10394,9621,35492,28840,3
0.0,0.0,0.0,14137,10301,9621,35455,28783,3
0.0,0.0,0.0,14137,10221,9599,35345,28754,3
0.0,0.0,0.0,14151,10232,9621,35455,28697,3
0.0,0.0,0.0,14137,10209,9621,35382,28726,3
0.0,0.0,0.0,14108,10221,9621,35345,28697,3
0.0,0.0,0.0,14137,10221,9621,35455,28697,3
0.0,0.0,0.0,14137,10221,9621,35492,28869,3
0.0,0.0,0.0,14151,10232,9621,35455,28754,3
0.0,0.0,0.0,14137,10255,9621,35418,28812,3
0.0,0.0,0.0,14079,10255,9610,35492,28812,3
0.0,0.0,0.0,14064,10301,9599,35565,28726,3
0.0,0.0,0.0,14209,10558,9621,35861,28527,3
0.0,0.0,0.0,14786,11084,9599,35787,26566,3
0.0,0.0,0.0,15089,11379,9666,35492,26150,3
0.0,0.0,0.0,15335,11817,9958,35272,26409,3
0.0,0.0,0.0,15428,11983,10140,34839,26618,3
0.0,0.0,0.0,15412,11881,10117,34518,26882,3
0.0,0.0,0.0,15490,11855,10117,34026,27122,3
0.0,0.0,0.0,15490,11855,10071,33542,27202,3
0.0,0.0,0.0,15521,11855,10026,33134,27472,3
0.0,0.0,0.0,15521,11804,9958,32369,28583,3
0.0,0.0,0.0,15600,11855,9946,32173,28726,3
0.0,0.0,0.0,15615,11817,9912,31752,28812,3
0.0,0.0,0.0,15647,11804,9890,31529,28726,3
0.0,0.0,0.0,15694,11653,9755,31339,28697,3
0.0,0.0,0.0,15710,11565,9688,31213,28697,3
0.0,0.0,0.0,15726,11453,9621,31213,28583,3
0.0,0.0,0.0,15647,11317,9621,31434,28470,3
0.0,0.0,0.0,15459,11255,9599,31752,28329,3
0.0,0.0,0.0,15412,11341,9621,31913,28189,3
0.0,0.0,0.0,15710,11983,9621,31849,28133,3
0.0,0.0,0.0,15805,12346,9677,31752,28049,3
0.0,0.0,0.0,15916,12333,9688,31720,28022,3
0.0,0.0,0.0,15916,12267,9699,31720,27939,3
0.0,0.0,0.0,15916,12124,9677,31593,27966,3
0.0,0.0,0.0,15789,11804,9666,31593,27911,3
0.0,0.0,0.0,15600,11553,9621,31529,27911,3
0.0,0.0,0.0,15242,11603,9632,31720,27800,3
0.0,0.0,0.0,15119,12112,9621,31849,27691,3
0.0,0.0,0.0,15089,12320,9643,32010,27554,3
0.0,0.0,0.0,15028,12163,9666,31978,27472,3
0.0,0.0,0.0,14726,11553,9666,31946,27364,3
0.0,0.0,0.0,14224,10903,9643,31849,27310,3
0.0,0.0,0.0,13964,10558,9621,32043,27418,3
0.0,0.0,0.0,13821,10441,9621,32075,27364,3
0.0,0.0,0.0,13594,10278,9621,31849,27691,3
0.0,0.0,0.0,13315,10209,9599,31402,27745,3
0.0,0.0,0.0,13150,10174,9621,31276,27691,3
0.0,0.0,0.0,13122,10186,9621,31181,27636,3
0.0,0.0,0.0,13054,10186,9621,31370,27581,3
0.0,0.0,0.0,13068,10209,9621,31593,27609,3
0.0,0.0,0.0,13068,10255,9610,31720,27609,3
0.0,0.0,0.0,13040,10290,9621,31817,27581,3
0.0,0.0,0.0,13027,10313,9621,32140,27554,3
0.0,0.0,0.0,13027,10371,9610,32205,27581,3
0.0,0.0,0.0,13040,10453,9621,32402,27418,3
0.0,0.0,0.0,13040,10558,9621,32699,27472,3
0.0,0.0,0.0,13013,10582,9632,32633,27499,3
0.0,0.0,0.0,12959,10724,9610,32402,27499,3
0.0,0.0,0.0,12972,11170,9621,32599,27418,3
0.0,0.0,0.0,12972,11255,9621,32633,27391,3
0.0,0.0,0.0,13027,11453,9632,32799,27391,3
0.0,0.0,0.0,12972,11379,9643,32832,27364,3
0.0,0.0,0.0,12999,11528,9632,32899,27527,3
0.0,0.0,0.0,12972,11453,9621,33100,27472,3
0.0,0.0,0.0,12972,11329,9621,33100,27337,3
0.0,0.0,0.0,12959,11329,9599,33168,27418,3
0.0,0.0,0.0,12959,11304,9621,33202,27418,3
0.0,0.0,0.0,12959,11206,9621,33100,27472,3
0.0,0.0,0.0,12972,11084,9621,33067,27418,3
0.0,0.0,0.0,12959,10867,9599,32899,27527,3
0.0,0.0,0.0,12959,10843,9621,33033,27581,3
0.0,0.0,0.0,12972,10771,9621,32966,27581,3
0.0,0.0,0.0,12972,10724,9621,32932,27691,3
0.0,0.0,0.0,13027,10629,9621,32899,27691,3
0.0,0.0,0.0,12972,10582,9599,32932,27691,3
0.0,0.0,0.0,12972,10511,9621,32832,27609,3
0.0,0.0,0.0,12972,10488,9621,32899,27663,3
0.0,0.0,0.0,12972,10499,9621,32866,27636,3
0.0,0.0,0.0,12959,10605,9621,33303,27581,3
0.0,0.0,0.0,12972,10783,9632,33439,27527,3
0.0,0.0,0.0,12972,11084,9621,33576,27581,3
0.0,0.0,0.0,13027,11206,9621,33852,27581,3
0.0,0.0,0.0,13027,11206,9599,33817,27499,3
0.0,0.0,0.0,13027,11206,9621,33921,27581,3
0.0,0.0,0.0,13040,11206,9621,33991,27581,3
0.0,0.0,0.0,13040,11206,9599,33921,27636,3
0.0,0.0,0.0,13040,11206,9621,33991,27581,3
0.0,0.0,0.0,13068,11206,9610,34271,27609,3
0.0,0.0,0.0,12999,11206,9621,34341,27609,3
0.0,0.0,0.0,13027,11206,9610,34130,27636,3
0.0,0.0,0.0,12972,11231,9621,34060,27609,3
0.0,0.0,0.0,13013,11219,9621,34235,27636,3
0.0,0.0,0.0,13013,11231,9610,34130,27581,3
0.0,0.0,0.0,12972,11206,9588,34165,27636,3
0.0,0.0,0.0,13013,11219,9621,34200,27581,3
0.0,0.0,0.0,12986,11231,9621,34341,27691,3
0.0,0.0,0.0,13013,11255,9621,34271,27718,3
0.0,0.0,0.0,12972,11255,9621,34271,27636,3
0.0,0.0,0.0,13040,11255,9621,34271,27691,3
0.0,0.0,0.0,13013,11255,9621,34271,27718,3
0.0,0.0,0.0,13013,11268,9621,34341,27718,3
0.0,0.0,0.0,13013,11304,9599,34341,27745,3
0.0,0.0,0.0,13013,11304,9621,34235,27745,3
0.0,0.0,0.0,13013,11304,9621,34271,27745,3
0.0,0.0,0.0,12986,11268,9621,34341,27745,3
0.0,0.0,0.0,13013,11304,9621,34165,27800,3
0.0,0.0,0.0,13027,11304,9621,34200,27663,3
0.0,0.0,0.0,13013,11268,9621,34165,27691,3
0.0,0.0,0.0,13013,11280,9621,34271,27745,3
0.0,0.0,0.0,13040,11292,9599,34130,27718,3
0.0,0.0,0.0,13027,11304,9621,34200,27691,3
0.0,0.0,0.0,13027,11304,9610,34271,27691,3
0.0,0.0,0.0,13013,11304,9621,34200,27663,3
0.0,0.0,0.0,13027,11304,9621,34271,27691,3
0.0,0.0,0.0,13027,11317,9621,34271,27636,3
0.0,0.0,0.0,13027,11304,9621,34200,27691,3
0.0,0.0,0.0,13040,11317,9621,34271,27691,3
0.0,0.0,0.0,13013,11329,9621,34200,27773,3
0.0,0.0,0.0,13013,11317,9621,34271,27718,3
0.0,0.0,0.0,13040,11317,9621,34271,27691,3
0.0,0.0,0.0,13040,11366,9588,34165,27718,3
0.0,0.0,0.0,13040,11354,9599,34200,27718,3
0.0,0.0,0.0,13013,11354,9599,34200,27663,3
0.0,0.0,0.0,13068,11354,9621,34200,27718,3
0.0,0.0,0.0,13027,11354,9621,34271,27691,3
0.0,0.0,0.0,13013,11379,9621,34130,27718,3
0.0,0.0,0.0,13040,11379,9610,34200,27718,3
0.0,0.0,0.0,13013,11354,9621,34060,27773,3
0.0,0.0,0.0,13054,11366,9621,34095,27691,3
0.0,0.0,0.0,13013,11366,9621,34130,27691,3
0.0,0.0,0.0,13027,11341,9610,34060,27663,3
0.0,0.0,0.0,13013,11304,9621,34095,27581,3
0.0,0.0,0.0,13013,11268,9621,33991,27691,3
0.0,0.0,0.0,12986,11268,9621,33956,27609,3
0.0,0.0,0.0,12999,11243,9621,33991,27581,3
0.0,0.0,0.0,12999,11268,9588,33887,27609,3
0.0,0.0,0.0,12959,11255,9599,34026,27718,3
0.0,0.0,0.0,12972,11255,9621,34060,27609,3
0.0,0.0,0.0,13013,11255,9621,33991,27636,3
0.0,0.0,0.0,12972,11268,9621,33921,27691,3
0.0,0.0,0.0,12972,11268,9610,33887,27745,3
0.0,0.0,0.0,12959,11268,9621,33887,27691,3
0.0,0.0,0.0,12986,11255,9588,33887,27554,3
0.0,0.0,0.0,12959,11268,9632,33887,27609,3
0.0,0.0,0.0,12972,11255,9599,33852,27581,3
0.0,0.0,0.0,12972,11255,9599,33852,27691,3
0.0,0.0,0.0,12972,11280,9621,33817,27609,3
0.0,0.0,0.0,12959,11304,9621,33748,27636,3
0.0,0.0,0.0,12959,11304,9621,33783,27581,3
0.0,0.0,0.0,12972,11292,9621,33645,27609,3
0.0,0.0,0.0,13040,11255,9621,33508,27856,3
0.0,0.0,0.0,13013,11182,9621,33236,27800,3
0.0,0.0,0.0,12972,10653,9621,33100,27966,3
0.0,0.0,0.0,12959,10441,9621,33033,28133,3
0.0,0.0,0.0,12932,10325,9599,33134,28133,3
0.0,0.0,0.0,12905,10255,9621,33067,28105,3
0.0,0.0,0.0,12864,10209,9610,33033,28049,3
0.0,0.0,0.0,12851,10221,9621,33134,28022,3
0.0,0.0,0.0,12810,10267,9621,33168,28022,3
0.0,0.0,0.0,12810,10406,9621,32999,27966,3
0.0,0.0,0.0,12797,10819,9599,32966,27939,3
0.0,0.0,0.0,12770,11024,9621,32932,27911,3
0.0,0.0,0.0,12783,10819,9621,32899,27883,3
0.0,0.0,0.0,12770,10641,9621,32999,27911,3
0.0,0.0,0.0,12797,10748,9610,33439,27966,3
0.0,0.0,0.0,12878,11182,9621,33303,27581,3
0.0,0.0,0.0,12891,11354,9621,33303,27364,3
0.0,0.0,0.0,12905,11206,9632,33168,27175,3
0.0,0.0,0.0,12905,11109,9643,33033,27175,3
0.0,0.0,0.0,12905,10987,9632,32765,27095,3
0.0,0.0,0.0,12905,10879,9621,32566,27095,3
0.0,0.0,0.0,12959,10891,9621,32566,27148,3
0.0,0.0,0.0,13232,10939,9599,32932,27581,3
0.0,0.0,0.0,13821,11060,9621,33067,28385,3
0.0,0.0,0.0,14636,11280,9610,32999,28840,3
0.0,0.0,0.0,14967,11490,9599,33033,29421,3
0.0,0.0,0.0,15058,11653,9621,32866,30015,3
0.0,0.0,0.0,14997,11830,9610,33303,30622,3
0.0,0.0,0.0,14967,12060,9610,33371,30962,3
0.0,0.0,0.0,15428,12202,9621,33337,31087,3
0.0,0.0,0.0,15490,12424,9621,33236,31087,3
0.0,0.0,0.0,15459,12543,9621,33236,31087,3
0.0,0.0,0.0,15397,12543,9643,33202,31025,3
0.0,0.0,0.0,15181,12530,9632,33134,30931,3
0.0,0.0,0.0,15058,12438,9643,33168,30900,3
0.0,0.0,0.0,15028,12636,9766,33303,30900,3
0.0,0.0,0.0,14846,12623,9890,33371,30745,3
0.0,0.0,0.0,14801,12690,10186,33439,30931,3
0.0,0.0,0.0,14846,12703,10301,33991,31276,3
0.0,0.0,0.0,14786,12530,10336,34412,31402,3
0.0,0.0,0.0,14577,12320,10301,35127,31529,3
0.0,0.0,0.0,14326,12137,10232,35935,31688,3
0.0,0.0,0.0,14195,12009,10209,36348,31946,3
0.0,0.0,0.0,13992,12060,10221,36538,32238,3
0.0,0.0,0.0,13964,12060,10255,37075,32108,3
0.0,0.0,0.0,13906,12163,10267,37230,31656,3
0.0,0.0,0.0,13849,12124,10267,36882,31402,3
0.0,0.0,0.0,13792,12060,10255,36805,31370,3
0.0,0.0,0.0,13735,12009,10209,36690,30715,3
0.0,0.0,0.0,13679,11983,10129,36538,28869,3
0.0,0.0,0.0,13679,11957,10094,36122,28049,3
0.0,0.0,0.0,13622,11983,10071,35861,27828,3
0.0,0.0,0.0,13650,11906,10037,35712,27718,3
0.0,0.0,0.0,13622,11932,10037,35639,27581,3
0.0,0.0,0.0,13665,12009,10071,35824,27691,3
0.0,0.0,0.0,13594,11957,10037,35749,27966,3
0.0,0.0,0.0,13622,11944,10003,35565,28189,3
0.0,0.0,0.0,13566,11957,10003,36235,28329,3
0.0,0.0,0.0,13566,11944,10003,36690,28385,3
0.0,0.0,0.0,13482,11906,10003,36882,28245,3
0.0,0.0,0.0,13357,11906,10003,36462,28301,3
0.0,0.0,0.0,13260,11906,10003,36085,28442,3
0.0,0.0,0.0,13260,11855,10037,36538,29158,3
0.0,0.0,0.0,13177,11741,10140,36998,29304,3
0.0,0.0,0.0,13013,11703,10209,37386,29391,3
0.0,0.0,0.0,12959,11804,10394,37781,30105,3
0.0,0.0,0.0,12959,11855,10453,38422,30408,3
0.0,0.0,0.0,13027,11957,10511,39285,30591,3
0.0,0.0,0.0,13027,11932,10511,39244,30499,3
0.0,0.0,0.0,13068,11957,10535,39077,30165,3
0.0,0.0,0.0,13040,11957,10535,38585,29657,3
0.0,0.0,0.0,13081,11983,10511,38422,29391,3
0.0,0.0,0.0,13205,12086,10511,37622,29071,3
0.0,0.0,0.0,13315,12228,10488,36690,28927,3
0.0,0.0,0.0,13398,12267,10488,36462,28697,3
0.0,0.0,0.0,13454,12372,10511,36499,28726,3
0.0,0.0,0.0,13482,12372,10511,36499,28669,3
0.0,0.0,0.0,13454,12293,10488,36652,28754,3
0.0,0.0,0.0,13398,12241,10488,36690,28812,3
0.0,0.0,0.0,13329,12163,10464,36690,28726,3
0.0,0.0,0.0,13232,12009,10394,36538,28640,3
0.0,0.0,0.0,13191,11817,10301,36499,28527,3
0.0,0.0,0.0,13040,11553,10117,36538,28527,3
0.0,0.0,0.0,12851,11206,9677,36462,28470,3
0.0,0.0,0.0,12743,11072,9621,36690,28583,3
0.0,0.0,0.0,12716,11206,9599,36690,28669,3
0.0,0.0,0.0,12690,11206,9621,36728,28612,3
0.0,0.0,0.0,12690,11072,9621,36614,28583,3
0.0,0.0,0.0,12636,10867,9621,36690,28498,3
0.0,0.0,0.0,12556,10464,9599,36690,28697,3
0.0,0.0,0.0,12438,10255,9610,36882,28754,3
0.0,0.0,0.0,12385,10163,9621,36690,28783,3
0.0,0.0,0.0,12293,10163,9610,36386,28697,3
0.0,0.0,0.0,12215,10163,9621,36538,28640,3
0.0,0.0,0.0,12215,10163,9621,36690,28612,3
0.0,0.0,0.0,12163,10186,9599,36386,28583,3
0.0,0.0,0.0,12163,10163,9621,36310,28527,3
0.0,0.0,0.0,12189,10163,9599,36085,28640,3
0.0,0.0,0.0,12176,10163,9621,36085,28527,3
0.0,0.0,0.0,12124,10163,9610,35787,28498,3
0.0,0.0,0.0,12189,10140,9621,35749,28414,3
0.0,0.0,0.0,12176,10140,9621,35787,28470,3
0.0,0.0,0.0,12112,10129,9621,35676,28640,3
0.0,0.0,0.0,12060,10140,9621,35639,28470,3
0.0,0.0,0.0,12086,10163,9621,35749,28414,3
0.0,0.0,0.0,12112,10209,9621,35935,28357,3
0.0,0.0,0.0,12073,10255,9621,36386,28385,3
0.0,0.0,0.0,12073,10278,9621,36462,28470,3
0.0,0.0,0.0,12086,10371,9610,36424,28385,3
0.0,0.0,0.0,12086,10499,9621,36462,28329,3
0.0,0.0,0.0,12112,10629,9621,36462,28301,3
0.0,0.0,0.0,12163,10771,9599,36576,28301,3
0.0,0.0,0.0,12163,10819,9621,36690,28414,3
0.0,0.0,0.0,12163,11012,9621,36767,28357,3
0.0,0.0,0.0,12189,11084,9621,36843,28301,3
0.0,0.0,0.0,12215,11133,9621,36843,28217,3
0.0,0.0,0.0,12189,11145,9610,36882,28245,3
0.0,0.0,0.0,12189,11060,9621,36805,28189,3
0.0,0.0,0.0,12189,10999,9621,36920,28189,3
0.0,0.0,0.0,12215,10879,9621,37075,28133,3
0.0,0.0,0.0,12163,10748,9621,36920,28161,3
0.0,0.0,0.0,12189,10676,9610,36767,28133,3
0.0,0.0,0.0,12189,10676,9621,36690,28049,3
0.0,0.0,0.0,12189,10676,9599,36538,28022,3
0.0,0.0,0.0,12176,10676,9621,36538,27911,3
0.0,0.0,0.0,12202,10664,9621,36462,27966,3
0.0,0.0,0.0,12215,10676,9621,36462,27994,3
0.0,0.0,0.0,12215,10676,9599,36462,27966,3
0.0,0.0,0.0,12189,10700,9621,36499,27939,3
0.0,0.0,0.0,12215,10795,9621,36614,28022,3
0.0,0.0,0.0,12189,10819,9621,36690,28077,3
0.0,0.0,0.0,12189,10963,9643,36805,28077,3
0.0,0.0,0.0,12267,11109,9621,36767,27966,3
0.0,0.0,0.0,12228,11109,9621,36538,27966,3
0.0,0.0,0.0,12228,10963,9621,36462,27911,3
0.0,0.0,0.0,12215,10676,9621,36160,27911,3
0.0,0.0,0.0,12176,10535,9621,36310,27856,3
0.0,0.0,0.0,12189,10511,9599,36235,27911,3
0.0,0.0,0.0,12176,10963,9621,36499,28105,3
0.0,0.0,0.0,12241,11465,9710,36920,28245,3
0.0,0.0,0.0,12320,11728,10003,36998,28357,3
0.0,0.0,0.0,12346,11817,10117,36998,28385,3
0.0,0.0,0.0,12346,11855,10129,36998,28357,3
0.0,0.0,0.0,12385,11868,10163,37036,28357,3
0.0,0.0,0.0,12477,12176,10325,37114,28357,3
0.0,0.0,0.0,12504,12824,10582,37347,28527,3
0.0,0.0,0.0,12596,13343,10795,37386,28498,3
0.0,0.0,0.0,12610,13315,10819,37426,28498,3
0.0,0.0,0.0,12649,13343,10843,37543,28527,3
0.0,0.0,0.0,12636,13343,10843,37465,28583,3
0.0,0.0,0.0,12610,12756,10759,37230,28357,3
0.0,0.0,0.0,12451,11728,10453,36920,28133,3
0.0,0.0,0.0,12438,11578,10348,36690,28189,3
0.0,0.0,0.0,12424,12009,10429,36843,28161,3
0.0,0.0,0.0,12636,13246,10867,37386,28357,3
0.0,0.0,0.0,12878,14253,11553,37622,28612,3
0.0,0.0,0.0,13068,14666,11855,37622,28669,3
0.0,0.0,0.0,13068,14636,11906,37622,28612,3
0.0,0.0,0.0,13122,14547,11855,37622,28612,3
0.0,0.0,0.0,13122,14444,11817,37543,28527,3
0.0,0.0,0.0,13150,14355,11779,37426,28470,3
0.0,0.0,0.0,13122,14268,11716,37230,28527,3
0.0,0.0,0.0,13150,14151,11691,37230,28470,3
0.0,0.0,0.0,13136,14021,11603,37152,28470,3
0.0,0.0,0.0,13109,13863,11553,37114,28527,3
0.0,0.0,0.0,13081,13665,11391,37114,28442,3
0.0,0.0,0.0,13013,13454,11268,37075,28385,3
0.0,0.0,0.0,12959,13343,11182,37075,28245,3
0.0,0.0,0.0,12972,13287,11157,37075,28301,3
0.0,0.0,0.0,12972,13260,11157,36882,28245,3
0.0,0.0,0.0,12905,13122,11072,36959,28245,3
0.0,0.0,0.0,12864,12797,10963,36998,28133,3
0.0,0.0,0.0,12824,12556,10807,36998,27994,3
0.0,0.0,0.0,12770,12189,10653,36920,28022,3
0.0,0.0,0.0,12690,11603,10383,36920,27911,3
0.0,0.0,0.0,12663,11565,10278,36920,27828,3
0.0,0.0,0.0,12583,11565,10094,36805,27745,3
0.0,0.0,0.0,12543,11615,10117,37075,27800,3
0.0,0.0,0.0,12583,11640,10129,37230,27800,3
0.0,0.0,0.0,12543,11855,10163,37230,27745,3
0.0,0.0,0.0,12583,12163,10301,37308,27828,3
0.0,0.0,0.0,12636,12690,10441,37465,27856,3
0.0,0.0,0.0,12649,12690,10464,37347,27883,3
0.0,0.0,0.0,12636,12636,10488,37230,27800,3
0.0,0.0,0.0,12636,12583,10488,37114,27883,3
0.0,0.0,0.0,12649,12543,10488,37114,27856,3
0.0,0.0,0.0,12663,12716,10511,37269,27828,3
0.0,0.0,0.0,12743,12999,10582,37308,27883,3
0.0,0.0,0.0,12690,13136,10594,37386,27911,3
0.0,0.0,0.0,12716,13081,10629,37347,27883,3
0.0,0.0,0.0,12743,13081,10629,37269,27939,3
0.0,0.0,0.0,12770,13068,10629,37114,27911,3
0.0,0.0,0.0,12743,13122,10629,37152,27966,3
0.0,0.0,0.0,12756,13068,10629,37075,27966,3
0.0,0.0,0.0,12797,13068,10617,37075,27939,3
0.0,0.0,0.0,12905,13482,10807,37308,28077,3
0.0,0.0,0.0,13081,13921,11109,37543,28077,3
0.0,0.0,0.0,13122,14166,11255,37504,28301,3
0.0,0.0,0.0,13109,13964,11255,37386,28161,3
0.0,0.0,0.0,13122,13892,11219,37465,28133,3
0.0,0.0,0.0,13081,13878,11219,37386,28245,3
0.0,0.0,0.0,13095,13849,11206,37269,28189,3
0.0,0.0,0.0,13122,13792,11170,37308,28245,3
0.0,0.0,0.0,13095,13622,11109,37230,28133,3
0.0,0.0,0.0,13136,13468,11060,37152,28133,3
0.0,0.0,0.0,13081,13287,11012,37230,28022,3
0.0,0.0,0.0,13068,12932,10963,37230,28077,3
0.0,0.0,0.0,13013,12730,10867,37152,27966,3
0.0,0.0,0.0,12972,12477,10783,37036,27966,3
0.0,0.0,0.0,12959,12385,10748,36998,27911,3
0.0,0.0,0.0,12959,12372,10748,36959,27911,3
0.0,0.0,0.0,12918,12346,10771,36920,27966,3
0.0,0.0,0.0,12959,12320,10867,36920,27966,3
0.0,0.0,0.0,12932,12320,10987,36959,28077,3
0.0,0.0,0.0,12932,12372,10987,36920,28077,3
0.0,0.0,0.0,12959,12372,10939,36843,28022,3
0.0,0.0,0.0,12918,12398,10915,36843,27966,3
0.0,0.0,0.0,12932,12385,10867,36767,27939,3
0.0,0.0,0.0,12918,12320,10795,36767,28022,3
0.0,0.0,0.0,12905,12189,10771,36728,27966,3
0.0,0.0,0.0,12864,12086,10724,36767,27994,3
0.0,0.0,0.0,12810,11944,10688,36690,27966,3
0.0,0.0,0.0,12797,11653,10594,36614,27994,3
0.0,0.0,0.0,12676,11255,10313,36538,28022,3
0.0,0.0,0.0,12649,10712,9666,36690,28049,3
0.0,0.0,0.0,12610,10394,9599,36538,27911,3
0.0,0.0,0.0,12530,10186,9588,36538,28022,3
0.0,0.0,0.0,12530,10071,9621,36160,28077,3
0.0,0.0,0.0,12504,10049,9621,35565,28049,3
0.0,0.0,0.0,12504,10037,9599,35565,28161,3
0.0,0.0,0.0,12477,10026,9610,35676,28189,3
0.0,0.0,0.0,12477,10037,9621,35824,28161,3
0.0,0.0,0.0,12451,10071,9621,35787,28329,3
0.0,0.0,0.0,12451,10071,9621,35861,28442,3
0.0,0.0,0.0,12438,10083,9621,35935,28414,3
0.0,0.0,0.0,12424,10094,9621,35861,28357,3
0.0,0.0,0.0,12411,10117,9610,35861,28555,3
0.0,0.0,0.0,12424,10129,9610,35898,28840,3
0.0,0.0,0.0,12424,10163,9621,35935,28783,3
0.0,0.0,0.0,12424,10163,9621,35972,28754,3
0.0,0.0,0.0,12424,10232,9621,35861,28812,3
0.0,0.0,0.0,12477,10232,9621,35749,28927,3
0.0,0.0,0.0,12477,10255,9621,35749,28754,3
0.0,0.0,0.0,12477,10255,9621,35639,28583,3
0.0,0.0,0.0,12464,10267,9621,35676,28555,3
0.0,0.0,0.0,12424,10255,9588,35639,28414,3
0.0,0.0,0.0,12438,10313,9621,35712,28527,3
0.0,0.0,0.0,12385,10301,9599,35712,28527,3
0.0,0.0,0.0,12372,10371,9621,35712,28470,3
0.0,0.0,0.0,12372,10546,9621,35712,28555,3
0.0,0.0,0.0,12372,10963,9621,35935,28414,3
0.0,0.0,0.0,12372,11206,9621,36235,28498,3
0.0,0.0,0.0,12372,11255,9621,36235,28583,3
0.0,0.0,0.0,12424,11354,9621,36614,28527,3
0.0,0.0,0.0,12424,11354,9621,36690,28555,3
0.0,0.0,0.0,12424,11354,9599,36652,28527,3
0.0,0.0,0.0,12451,11528,9621,36728,28498,3
0.0,0.0,0.0,12451,11779,9621,36767,28640,3
0.0,0.0,0.0,12477,11728,9621,36805,28498,3
0.0,0.0,0.0,12477,11603,9621,36728,28583,3
0.0,0.0,0.0,12477,11465,9621,36614,28414,3
0.0,0.0,0.0,12424,11354,9621,36614,28385,3
0.0,0.0,0.0,12424,11231,9621,36538,28527,3
0.0,0.0,0.0,12385,10987,9599,36424,28498,3
0.0,0.0,0.0,12438,10641,9599,36310,28583,3
0.0,0.0,0.0,12411,10394,9621,36538,28927,3
0.0,0.0,0.0,12477,10163,9621,36348,29274,3
0.0,0.0,0.0,12451,10094,9621,36010,29391,3
0.0,0.0,0.0,12477,10083,9621,35824,29391,3
0.0,0.0,0.0,12424,10083,9610,35861,29627,3
0.0,0.0,0.0,12359,10094,9621,35972,29509,3
0.0,0.0,0.0,12346,10163,9621,36160,29657,3
0.0,0.0,0.0,12346,10186,9621,36160,29627,3
0.0,0.0,0.0,12320,10255,9621,36235,29627,3
0.0,0.0,0.0,12320,10278,9599,36122,29686,3
0.0,0.0,0.0,12293,10301,9621,36386,29895,3
0.0,0.0,0.0,12320,10313,9599,36538,29865,3
0.0,0.0,0.0,12320,10313,9621,36538,29865,3
0.0,0.0,0.0,12320,10325,9599,36614,29865,3
0.0,0.0,0.0,12320,10336,9621,36386,29805,3
0.0,0.0,0.0,12306,10359,9621,36197,29657,3
0.0,0.0,0.0,12320,10394,9621,36122,29421,3
0.0,0.0,0.0,12372,10453,9610,35935,29187,3
0.0,0.0,0.0,12372,10488,9621,35787,28273,3
0.0,0.0,0.0,12398,10499,9610,35565,27202,3
0.0,0.0,0.0,12451,10582,9621,35418,27015,3
0.0,0.0,0.0,12504,10605,9621,35345,26961,3
0.0,0.0,0.0,12451,10641,9610,35272,27202,3
0.0,0.0,0.0,12530,10629,9621,35272,27310,3
0.0,0.0,0.0,12490,10629,9621,35236,27472,3
0.0,0.0,0.0,12530,10843,9599,35345,27472,3
0.0,0.0,0.0,12504,11036,9621,35382,27445,3
0.0,0.0,0.0,12583,11157,9621,35492,27527,3
0.0,0.0,0.0,12690,11109,9621,35127,27472,3
0.0,0.0,0.0,12797,11133,9621,35018,27418,3
0.0,0.0,0.0,12851,11231,9621,34803,27691,3
0.0,0.0,0.0,12959,11304,9621,34767,27636,3
0.0,0.0,0.0,13068,11416,9621,34839,27939,3
0.0,0.0,0.0,13081,11403,9621,34696,28022,3
0.0,0.0,0.0,13136,11403,9621,34624,28022,3
0.0,0.0,0.0,13260,11403,9621,34376,28161,3
0.0,0.0,0.0,13398,11403,9610,34341,28077,3
0.0,0.0,0.0,13580,11317,9621,34306,27966,3
0.0,0.0,0.0,13608,11255,9621,34060,27911,3
0.0,0.0,0.0,13707,11157,9621,33887,27828,3
0.0,0.0,0.0,13693,10987,9621,33991,27800,3
0.0,0.0,0.0,13580,10843,9621,34341,27636,3
0.0,0.0,0.0,13566,10759,9643,34696,27527,3
0.0,0.0,0.0,13482,10582,9621,34624,27527,3
0.0,0.0,0.0,13426,10511,9621,34553,27581,3
0.0,0.0,0.0,13496,10499,9621,33921,27527,3
0.0,0.0,0.0,13580,10535,9621,33236,27310,3
0.0,0.0,0.0,13594,10582,9621,32999,27256,3
0.0,0.0,0.0,13622,10617,9621,32832,27283,3
0.0,0.0,0.0,13707,10629,9621,32732,27202,3
0.0,0.0,0.0,13707,10724,9621,32633,27202,3
0.0,0.0,0.0,13735,11024,9599,32765,27256,3
0.0,0.0,0.0,13679,11036,9621,33033,27283,3
0.0,0.0,0.0,13650,11109,9621,33508,27418,3
0.0,0.0,0.0,13538,11206,9621,34165,28077,3
0.0,0.0,0.0,13524,11503,9621,34982,29129,3
0.0,0.0,0.0,13510,11453,9632,35127,29042,3
0.0,0.0,0.0,13510,11416,9621,35199,29071,3
0.0,0.0,0.0,13426,11366,9632,35418,29042,3
0.0,0.0,0.0,13398,11403,9654,35565,29158,3
0.0,0.0,0.0,13398,11403,9666,35455,29274,3
0.0,0.0,0.0,13398,11403,9666,35382,29509,3
0.0,0.0,0.0,13371,11403,9654,35382,29421,3
0.0,0.0,0.0,13384,11403,9666,35492,29274,3
0.0,0.0,0.0,13343,11403,9666,35418,29274,3
0.0,0.0,0.0,13343,11366,9654,35676,29187,3
0.0,0.0,0.0,13343,11403,9643,35676,29158,3
0.0,0.0,0.0,13343,11391,9666,35639,29274,3
0.0,0.0,0.0,13343,11403,9677,35712,29274,3
0.0,0.0,0.0,13412,11453,9710,35749,29568,3
0.0,0.0,0.0,13454,11453,9721,35861,29509,3
0.0,0.0,0.0,13398,11453,9721,35787,29479,3
0.0,0.0,0.0,13412,11528,9744,35898,29746,3
0.0,0.0,0.0,13440,11528,9800,36348,31529,3
0.0,0.0,0.0,13510,11603,9890,36998,33576,3
0.0,0.0,0.0,13566,11754,10071,38180,35492,3
0.0,0.0,0.0,13566,11970,10313,40045,37426,3
0.0,0.0,0.0,13650,12009,10453,41221,38995,3
0.0,0.0,0.0,13735,12163,10582,41848,40868,3
0.0,0.0,0.0,13792,12163,10594,42580,42166,3
0.0,0.0,0.0,13806,12137,10629,43329,43615,3
0.0,0.0,0.0,13906,11944,10629,44000,44881,3
0.0,0.0,0.0,14166,11932,10653,45181,46928,3
0.0,0.0,0.0,14209,11855,10676,46613,48000,3
0.0,0.0,0.0,14238,11817,10724,47945,49048,3
0.0,0.0,0.0,14224,11754,10748,48327,49161,3
0.0,0.0,0.0,14429,11754,10795,48548,48881,3
0.0,0.0,0.0,14786,11665,10795,48881,48437,3
0.0,0.0,0.0,14876,11603,10783,48992,47353,3
0.0,0.0,0.0,15028,11553,10748,48769,46718,3
0.0,0.0,0.0,14876,11553,10712,48327,45483,3
0.0,0.0,0.0,14532,11528,10700,47837,44438,3
0.0,0.0,0.0,13964,11528,10700,47034,43711,3
0.0,0.0,0.0,13679,11503,10676,46405,42534,3
0.0,0.0,0.0,13622,11515,10676,46301,41848,3
0.0,0.0,0.0,13566,11528,10676,45889,41848,3
0.0,0.0,0.0,13524,11515,10641,45838,41667,3
0.0,0.0,0.0,13510,11528,10664,45838,41667,3
0.0,0.0,0.0,13496,11528,10653,45787,41399,3
0.0,0.0,0.0,13454,11528,10653,45736,41399,3
0.0,0.0,0.0,13454,11515,10641,45584,41399,3
0.0,0.0,0.0,13412,11478,10641,45787,41132,3
0.0,0.0,0.0,13357,11465,10629,45635,40868,3
0.0,0.0,0.0,13343,11453,10605,45736,40693,3
0.0,0.0,0.0,13301,11403,10546,45736,40432,3
0.0,0.0,0.0,13260,11354,10499,45685,40649,3
0.0,0.0,0.0,13232,11206,10371,45992,40216,3
0.0,0.0,0.0,13122,11012,10186,45992,39874,3
0.0,0.0,0.0,13013,10867,9890,45685,39917,3
0.0,0.0,0.0,12851,10771,9755,45685,39494,3
0.0,0.0,0.0,12730,10748,9710,45382,39369,3
0.0,0.0,0.0,12663,10676,9666,45181,39452,3
0.0,0.0,0.0,12610,10605,9632,45281,39202,3
0.0,0.0,0.0,12530,10582,9632,45181,39327,3
0.0,0.0,0.0,12504,10535,9621,45081,39244,3
0.0,0.0,0.0,12398,10546,9621,45081,39244,3
0.0,0.0,0.0,12424,10558,9621,44981,39411,3
0.0,0.0,0.0,12424,10582,9632,44634,38995,3
0.0,0.0,0.0,12385,10664,9666,44536,38707,3
0.0,0.0,0.0,12424,10676,9811,44389,38463,3
0.0,0.0,0.0,12438,10724,9845,44242,38463,3
0.0,0.0,0.0,12477,10748,9856,44096,38382,3
0.0,0.0,0.0,12477,10819,9878,44096,38422,3
0.0,0.0,0.0,12543,11109,10106,44242,38180,3
0.0,0.0,0.0,12583,11366,10301,44048,38100,3
0.0,0.0,0.0,12690,11528,10348,43903,38019,3
0.0,0.0,0.0,12663,11478,10418,43855,37741,3
0.0,0.0,0.0,12649,11453,10394,43711,37781,3
0.0,0.0,0.0,12690,11503,10348,43759,37860,3
0.0,0.0,0.0,12703,11528,10301,43615,37820,3
0.0,0.0,0.0,12703,11503,10313,43615,37781,3
0.0,0.0,0.0,12716,11416,10394,43567,37781,3
0.0,0.0,0.0,12690,11403,10371,43615,37701,3
0.0,0.0,0.0,12690,11453,10371,43519,37701,3
0.0,0.0,0.0,12690,11478,10325,43329,37701,3
0.0,0.0,0.0,12703,11503,10313,43329,37940,3
0.0,0.0,0.0,12649,11465,10301,43282,37701,3
0.0,0.0,0.0,12703,11453,10301,43282,37980,3
0.0,0.0,0.0,12690,11453,10301,43282,37940,3
0.0,0.0,0.0,12636,11416,10301,43329,37701,3
0.0,0.0,0.0,12663,11403,10267,43329,37781,3
0.0,0.0,0.0,12636,11403,10255,43188,37622,3
0.0,0.0,0.0,12636,11391,10232,43046,37781,3
0.0,0.0,0.0,12583,11354,10209,43093,37622,3
0.0,0.0,0.0,12636,11317,10174,43140,37622,3
0.0,0.0,0.0,12636,11268,10129,43235,37543,3
0.0,0.0,0.0,12636,11206,10117,43188,37504,3
0.0,0.0,0.0,12636,11109,10117,43329,37465,3
0.0,0.0,0.0,12636,11060,10106,43235,37426,3
0.0,0.0,0.0,12636,10975,10140,43188,37426,3
0.0,0.0,0.0,12596,10963,10163,43093,37386,3
0.0,0.0,0.0,12610,10951,10163,42953,37386,3
0.0,0.0,0.0,12636,10915,10174,43046,37269,3
0.0,0.0,0.0,12610,10867,10174,43000,37308,3
0.0,0.0,0.0,12583,10771,10174,43046,37191,3
0.0,0.0,0.0,12543,10759,10174,43093,37075,3
0.0,0.0,0.0,12583,10748,10163,43046,37152,3
0.0,0.0,0.0,12543,10748,10163,42906,37114,3
0.0,0.0,0.0,12530,10771,10163,42906,37075,3
0.0,0.0,0.0,12504,10771,10163,42766,37036,3
0.0,0.0,0.0,12517,10783,10163,42859,36959,3
0.0,0.0,0.0,12530,10795,10209,42859,37075,3
0.0,0.0,0.0,12530,10819,10209,42859,36920,3
0.0,0.0,0.0,12530,10795,10232,42766,36998,3
0.0,0.0,0.0,12477,10819,10209,42812,36920,3
0.0,0.0,0.0,12490,10891,10221,42906,37036,3
0.0,0.0,0.0,12490,10963,10232,42859,37075,3
0.0,0.0,0.0,12477,11084,10255,42953,37230,3
0.0,0.0,0.0,12477,10975,10209,42766,37036,3
0.0,0.0,0.0,12477,10987,10232,42766,36920,3
0.0,0.0,0.0,12477,10963,10209,42906,36920,3
0.0,0.0,0.0,12451,10927,10209,42953,36843,3
0.0,0.0,0.0,12438,10927,10186,42859,36805,3
0.0,0.0,0.0,12464,10963,10209,42766,36843,3
0.0,0.0,0.0,12477,10987,10209,42719,36767,3
0.0,0.0,0.0,12477,11048,10221,42673,36728,3
0.0,0.0,0.0,12477,11084,10209,42719,36462,3
0.0,0.0,0.0,12490,11182,10209,42580,36690,3
0.0,0.0,0.0,12451,11255,10209,42580,36805,3
0.0,0.0,0.0,12490,11304,10221,42488,36767,3
0.0,0.0,0.0,12477,11354,10255,42580,36576,3
0.0,0.0,0.0,12477,11366,10232,42580,36538,3
0.0,0.0,0.0,12530,11403,10232,42534,36690,3
0.0,0.0,0.0,12490,11490,10232,42673,36614,3
0.0,0.0,0.0,12517,11503,10232,42442,36690,3
0.0,0.0,0.0,12490,11503,10221,42580,36690,3
0.0,0.0,0.0,12504,11490,10221,42488,36728,3
0.0,0.0,0.0,12490,11528,10221,42488,36652,3
0.0,0.0,0.0,12490,11490,10221,42488,36614,3
0.0,0.0,0.0,12490,11453,10209,42304,36462,3
0.0,0.0,0.0,12490,11453,10197,42395,36538,3
0.0,0.0,0.0,12530,11478,10209,42349,36538,3
0.0,0.0,0.0,12530,11478,10209,42212,36690,3
0.0,0.0,0.0,12530,11503,10209,42304,36614,3
0.0,0.0,0.0,12504,11503,10209,42304,36462,3
0.0,0.0,0.0,12530,11503,10209,42258,36462,3
0.0,0.0,0.0,12530,11503,10209,42304,36424,3
0.0,0.0,0.0,12543,11528,10255,42349,36462,3
0.0,0.0,0.0,12543,11528,10255,42304,36462,3
0.0,0.0,0.0,12543,11540,10232,42258,36424,3
0.0,0.0,0.0,12543,11528,10232,42258,36538,3
0.0,0.0,0.0,12543,11503,10232,42304,36386,3
0.0,0.0,0.0,12530,11503,10221,42166,36348,3
0.0,0.0,0.0,12570,11453,10255,42212,36462,3
0.0,0.0,0.0,12543,11453,10244,42120,36348,3
0.0,0.0,0.0,12556,11428,10232,42120,36499,3
0.0,0.0,0.0,12543,11416,10232,42212,36386,3
0.0,0.0,0.0,12543,11379,10232,42120,36614,3
0.0,0.0,0.0,12530,11403,10255,42075,36462,3
0.0,0.0,0.0,12530,11354,10244,42120,36348,3
0.0,0.0,0.0,12543,11304,10232,42212,36386,3
0.0,0.0,0.0,12530,11255,10232,42120,36576,3
0.0,0.0,0.0,12530,11243,10232,42304,36386,3
0.0,0.0,0.0,12504,11231,10255,42212,36386,3
0.0,0.0,0.0,12530,11206,10221,42120,36462,3
0.0,0.0,0.0,12530,11206,10244,42166,36462,3
0.0,0.0,0.0,12517,11182,10255,42120,36386,3
0.0,0.0,0.0,12530,11157,10255,42166,36272,3
0.0,0.0,0.0,12530,11133,10267,42120,36386,3
0.0,0.0,0.0,12490,11157,10267,42120,36235,3
0.0,0.0,0.0,12490,11133,10267,42120,36310,3
0.0,0.0,0.0,12477,11157,10255,42120,36386,3
0.0,0.0,0.0,12477,11157,10278,42120,36462,3
0.0,0.0,0.0,12477,11145,10278,42166,36424,3
0.0,0.0,0.0,12477,11157,10267,42166,36310,3
0.0,0.0,0.0,12504,11157,10267,42120,36462,3
0.0,0.0,0.0,12477,11157,10278,42029,36462,3
0.0,0.0,0.0,12477,11157,10278,42166,36310,3
0.0,0.0,0.0,12477,11157,10301,42120,36424,3
0.0,0.0,0.0,12477,11255,10267,42212,36348,3
0.0,0.0,0.0,12477,11304,10255,42120,36386,3
0.0,0.0,0.0,12504,11304,10232,42212,36310,3
0.0,0.0,0.0,12504,11280,10209,42166,36310,3
0.0,0.0,0.0,12477,11280,10186,42304,36272,3
0.0,0.0,0.0,12490,11304,10186,42349,36424,3
0.0,0.0,0.0,12490,11416,10186,42534,36310,3
0.0,0.0,0.0,12477,11565,10301,42442,36160,3
0.0,0.0,0.0,12438,11590,10301,42442,36197,3
0.0,0.0,0.0,12490,11628,10348,42534,36160,3
0.0,0.0,0.0,12451,11653,10359,42673,36010,3
0.0,0.0,0.0,12451,11716,10359,42349,36010,3
0.0,0.0,0.0,12451,11703,10359,42395,36010,3
0.0,0.0,0.0,12451,11703,10348,42349,35861,3
0.0,0.0,0.0,12477,11678,10359,42395,35898,3
0.0,0.0,0.0,12424,11691,10348,42212,35972,3
0.0,0.0,0.0,12424,11615,10359,42212,35935,3
0.0,0.0,0.0,12424,11553,10394,42166,35935,3
0.0,0.0,0.0,12398,11528,10394,42120,35935,3
0.0,0.0,0.0,12424,11416,10441,41938,35749,3
0.0,0.0,0.0,12424,11366,10499,42075,35861,3
0.0,0.0,0.0,12398,11341,10535,42120,35749,3
0.0,0.0,0.0,12398,11304,10617,42166,35749,3
0.0,0.0,0.0,12424,11304,10676,42120,35787,3
0.0,0.0,0.0,12411,11280,10748,42120,35712,3
0.0,0.0,0.0,12398,11304,10795,42029,35749,3
0.0,0.0,0.0,12477,11304,10891,42029,35861,3
0.0,0.0,0.0,12504,11317,10915,41938,35749,3
0.0,0.0,0.0,12477,11317,10963,41938,35639,3
0.0,0.0,0.0,12477,11304,11060,41938,35565,3
0.0,0.0,0.0,12477,11317,11036,42029,35861,3
0.0,0.0,0.0,12477,11379,10915,41757,36235,3
0.0,0.0,0.0,12504,11403,10783,41984,36690,3
0.0,0.0,0.0,12583,11453,10748,42029,36843,3
0.0,0.0,0.0,12663,11528,10724,42120,37036,3
0.0,0.0,0.0,12878,11565,10724,42029,36959,3
0.0,0.0,0.0,13027,11615,10700,41265,36920,3
0.0,0.0,0.0,13177,11653,10676,40346,36462,3
0.0,0.0,0.0,13343,11653,10605,39077,34874,3
0.0,0.0,0.0,13510,11678,10582,37940,33508,3
0.0,0.0,0.0,13636,11716,10535,36767,32666,3
0.0,0.0,0.0,13863,11728,10511,36122,31720,3
0.0,0.0,0.0,14108,11703,10394,35163,30900,3
0.0,0.0,0.0,14195,11716,10348,34624,30226,3
0.0,0.0,0.0,14282,11653,10232,33921,29746,3
0.0,0.0,0.0,14311,11603,10152,33576,29042,3
0.0,0.0,0.0,14326,11603,10071,33236,28301,3
0.0,0.0,0.0,14414,11603,10049,32699,28189,3
0.0,0.0,0.0,14488,11578,10026,32271,28077,3
0.0,0.0,0.0,14503,11603,10026,32205,28022,3
0.0,0.0,0.0,14577,11603,10003,32108,27883,3
0.0,0.0,0.0,14636,11578,9980,32010,27911,3
0.0,0.0,0.0,14696,11628,9980,31946,27828,3
0.0,0.0,0.0,14846,11868,10026,31881,27911,3
0.0,0.0,0.0,15119,12267,10117,31752,27911,3
0.0,0.0,0.0,15242,12424,10163,31752,27800,3
0.0,0.0,0.0,15288,12438,10209,31849,27800,3
0.0,0.0,0.0,15273,12490,10209,31913,27856,3
0.0,0.0,0.0,15288,12530,10255,32010,27800,3
0.0,0.0,0.0,15350,12610,10278,32140,27800,3
0.0,0.0,0.0,15459,12851,10325,32369,27939,3
0.0,0.0,0.0,15710,12918,10313,32566,28133,3
0.0,0.0,0.0,15726,12905,10348,32765,28133,3
0.0,0.0,0.0,15773,12932,10325,32799,28189,3
0.0,0.0,0.0,15663,12932,10301,32899,28133,3
0.0,0.0,0.0,15615,12878,10301,33100,28161,3
0.0,0.0,0.0,15521,12864,10290,33168,28077,3
0.0,0.0,0.0,15412,12797,10255,33202,28133,3
0.0,0.0,0.0,15273,12703,10255,33439,28161,3
0.0,0.0,0.0,15181,12743,10255,33439,28077,3
0.0,0.0,0.0,15089,12716,10255,33714,28022,3
0.0,0.0,0.0,15043,12743,10255,33714,28049,3
0.0,0.0,0.0,14967,12797,10232,33714,28022,3
0.0,0.0,0.0,14952,12837,10232,33679,27911,3
0.0,0.0,0.0,14876,12851,10221,33714,27939,3
0.0,0.0,0.0,14907,12797,10232,33714,27911,3
0.0,0.0,0.0,14846,12636,10209,33991,27994,3
0.0,0.0,0.0,14696,12530,10129,34026,27966,3
0.0,0.0,0.0,14651,12663,10140,34060,27966,3
0.0,0.0,0.0,14607,12824,10163,34026,27966,3
0.0,0.0,0.0,14592,13068,10163,34341,28022,3
0.0,0.0,0.0,14607,13068,10163,34412,27911,3
0.0,0.0,0.0,14607,12972,10174,34376,28022,3
0.0,0.0,0.0,14532,12932,10209,34341,27994,3
0.0,0.0,0.0,14518,12905,10209,34341,28022,3
0.0,0.0,0.0,14458,12851,10232,34482,27911,3
0.0,0.0,0.0,14429,12690,10209,34341,27939,3
0.0,0.0,0.0,14429,12556,10174,34412,27939,3
0.0,0.0,0.0,14429,12556,10174,34518,28022,3
0.0,0.0,0.0,14429,12504,10186,34482,27994,3
0.0,0.0,0.0,14429,12424,10163,34482,27994,3
0.0,0.0,0.0,14370,12333,10163,34412,28077,3
0.0,0.0,0.0,14370,12346,10163,34412,28022,3
0.0,0.0,0.0,14297,12333,10163,34589,27966,3
0.0,0.0,0.0,14311,12346,10163,34696,28022,3
0.0,0.0,0.0,14297,12320,10163,34803,28049,3
0.0,0.0,0.0,14311,12385,10163,34767,28189,3
0.0,0.0,0.0,14297,12372,10174,34731,28022,3
0.0,0.0,0.0,14268,12372,10174,34910,28049,3
0.0,0.0,0.0,14282,12372,10209,34910,28022,3
0.0,0.0,0.0,14282,12398,10197,34946,28022,3
0.0,0.0,0.0,14282,12424,10186,34982,28077,3
0.0,0.0,0.0,14253,12398,10186,35272,28049,3
0.0,0.0,0.0,14297,12411,10186,35055,28077,3
0.0,0.0,0.0,14268,12385,10197,35055,28022,3
0.0,0.0,0.0,14253,12385,10209,35127,28022,3
0.0,0.0,0.0,14238,12424,10209,35127,28022,3
0.0,0.0,0.0,14224,12424,10209,35199,27994,3
0.0,0.0,0.0,14224,12490,10244,35418,28022,3
0.0,0.0,0.0,14253,12490,10255,35602,27994,3
0.0,0.0,0.0,14224,12477,10244,35602,28022,3
0.0,0.0,0.0,14238,12438,10255,35602,27966,3
0.0,0.0,0.0,14209,12477,10255,35565,27939,3
0.0,0.0,0.0,14224,12477,10255,35455,28022,3
0.0,0.0,0.0,14195,12517,10255,35455,27911,3
0.0,0.0,0.0,14195,12530,10267,35418,27966,3
0.0,0.0,0.0,14195,12530,10255,35418,28022,3
0.0,0.0,0.0,14166,12530,10255,35492,27966,3
0.0,0.0,0.0,14180,12530,10267,35492,28022,3
0.0,0.0,0.0,14166,12530,10255,35455,27911,3
0.0,0.0,0.0,14166,12530,10278,35418,27911,3
0.0,0.0,0.0,14224,12556,10267,35492,27994,3
0.0,0.0,0.0,14166,12530,10278,35565,27994,3
0.0,0.0,0.0,14195,12530,10267,35676,27856,3
0.0,0.0,0.0,14195,12530,10255,35639,27911,3
0.0,0.0,0.0,14195,12530,10267,35639,27994,3
0.0,0.0,0.0,14195,12530,10267,35749,27966,3
0.0,0.0,0.0,14166,12530,10278,35712,28022,3
0.0,0.0,0.0,14151,12504,10301,35602,27966,3
0.0,0.0,0.0,14151,12530,10278,35712,27994,3
0.0,0.0,0.0,14195,12504,10278,35676,28022,3
0.0,0.0,0.0,14137,12477,10255,35639,28022,3
0.0,0.0,0.0,14151,12504,10290,35565,27939,3
0.0,0.0,0.0,14151,12490,10255,35639,28022,3
0.0,0.0,0.0,14166,12504,10290,35418,28022,3
0.0,0.0,0.0,14166,12477,10255,35565,27966,3
0.0,0.0,0.0,14137,12451,10255,35492,27939,3
0.0,0.0,0.0,14108,12320,10232,35528,27966,3
0.0,0.0,0.0,14036,12163,10163,35345,27994,3
0.0,0.0,0.0,13935,11804,9890,35309,28022,3
0.0,0.0,0.0,13821,11354,9599,35236,28022,3
0.0,0.0,0.0,13538,10855,9621,35565,28049,3
0.0,0.0,0.0,13454,10605,9621,35787,27966,3
0.0,0.0,0.0,13287,10535,9599,35898,27994,3
0.0,0.0,0.0,13232,10488,9621,36160,27911,3
0.0,0.0,0.0,13218,10488,9610,36160,28022,3
0.0,0.0,0.0,13205,10488,9610,36047,27773,3
0.0,0.0,0.0,13191,10476,9621,36047,27856,3
0.0,0.0,0.0,13191,10488,9621,36160,27856,3
0.0,0.0,0.0,13177,10511,9621,36235,27800,3
0.0,0.0,0.0,13150,10535,9621,36272,27773,3
0.0,0.0,0.0,13136,10499,9621,36235,27773,3
0.0,0.0,0.0,13122,10441,9599,36010,27745,3
0.0,0.0,0.0,13163,10371,9610,36047,27800,3
0.0,0.0,0.0,13191,10209,9621,36424,27966,3
0.0,0.0,0.0,13068,10117,9621,37308,28583,3
0.0,0.0,0.0,12986,10083,9599,37075,28754,3
0.0,0.0,0.0,12891,10071,9621,37308,28840,3
0.0,0.0,0.0,12864,10083,9599,37230,28697,3
0.0,0.0,0.0,12824,10071,9610,37386,28812,3
0.0,0.0,0.0,12810,10094,9610,37269,28697,3
0.0,0.0,0.0,12743,10071,9621,37075,28669,3
0.0,0.0,0.0,12716,10117,9621,37191,28726,3
0.0,0.0,0.0,12690,10278,9621,37465,28783,3
0.0,0.0,0.0,12690,10724,9621,37543,28869,3
0.0,0.0,0.0,12690,11206,9710,37465,28927,3
0.0,0.0,0.0,12716,11428,9766,37504,28927,3
0.0,0.0,0.0,12783,11983,10301,37622,28955,3
0.0,0.0,0.0,12851,12346,10441,37622,28955,3
0.0,0.0,0.0,12891,12649,10582,37701,29042,3
0.0,0.0,0.0,12918,13027,10736,37781,29100,3
0.0,0.0,0.0,13013,13122,10748,37543,29042,3
0.0,0.0,0.0,13081,13122,10748,37543,28984,3
0.0,0.0,0.0,13191,13136,10748,37114,28812,3
0.0,0.0,0.0,13343,13095,10688,36843,28583,3
0.0,0.0,0.0,13398,12932,10641,36462,28301,3
0.0,0.0,0.0,13343,12810,10582,36235,28245,3
0.0,0.0,0.0,13371,12743,10558,36235,28189,3
0.0,0.0,0.0,13384,12690,10546,36235,28217,3
0.0,0.0,0.0,13398,12690,10546,36235,28245,3
0.0,0.0,0.0,13426,12797,10582,36235,28357,3
0.0,0.0,0.0,13398,12918,10582,36160,28245,3
0.0,0.0,0.0,13343,12824,10546,36235,28189,3
0.0,0.0,0.0,13371,12783,10546,36122,28189,3
0.0,0.0,0.0,13343,12743,10558,36160,28161,3
0.0,0.0,0.0,13343,12743,10546,36235,28189,3
0.0,0.0,0.0,13301,12743,10535,36160,28245,3
0.0,0.0,0.0,13315,12743,10546,36235,28189,3
0.0,0.0,0.0,13315,12743,10546,36160,28245,3
0.0,0.0,0.0,13287,12703,10535,36197,28189,3
0.0,0.0,0.0,13301,12716,10546,36160,28189,3
0.0,0.0,0.0,13301,12690,10535,36197,28133,3
0.0,0.0,0.0,13301,12716,10582,36160,28161,3
0.0,0.0,0.0,13315,12716,10535,36160,28245,3
0.0,0.0,0.0,13315,12703,10535,36160,28245,3
0.0,0.0,0.0,13343,12743,10546,36160,28217,3
0.0,0.0,0.0,13343,12716,10546,36235,28189,3
0.0,0.0,0.0,13343,12730,10535,36235,28245,3
0.0,0.0,0.0,13315,12716,10546,36462,28245,3
0.0,0.0,0.0,13343,12743,10535,36310,28245,3
0.0,0.0,0.0,13343,12716,10535,36310,28189,3
0.0,0.0,0.0,13343,12703,10535,36197,28189,3
0.0,0.0,0.0,13343,12703,10535,36160,28217,3
0.0,0.0,0.0,13357,12703,10535,36310,28217,3
0.0,0.0,0.0,13357,12690,10546,36235,28217,3
0.0,0.0,0.0,13315,12690,10535,36160,28133,3
0.0,0.0,0.0,13301,12530,10511,36160,28077,3
0.0,0.0,0.0,13246,12267,10394,36085,28077,3
0.0,0.0,0.0,13232,11919,10209,36160,27939,3
0.0,0.0,0.0,13136,11503,9890,36310,27883,3
0.0,0.0,0.0,13013,11060,9621,36499,27691,3
0.0,0.0,0.0,12905,10582,9599,36614,27418,3
0.0,0.0,0.0,12864,10488,9621,36614,27364,3
0.0,0.0,0.0,12851,10488,9621,36348,27283,3
0.0,0.0,0.0,12824,10641,9610,36160,27418,3
0.0,0.0,0.0,12824,10771,9621,36122,27310,3
0.0,0.0,0.0,12851,10819,9621,36122,27337,3
0.0,0.0,0.0,12837,10963,9621,36085,27337,3
0.0,0.0,0.0,12864,11024,9621,36235,27364,3
0.0,0.0,0.0,12891,11084,9632,36160,27337,3
0.0,0.0,0.0,12905,11170,9621,36160,27418,3
0.0,0.0,0.0,12878,11157,9621,36197,27364,3
0.0,0.0,0.0,12891,11206,9599,36160,27418,3
0.0,0.0,0.0,12851,11219,9621,36197,27391,3
0.0,0.0,0.0,12878,11219,9621,36122,27418,3
0.0,0.0,0.0,12864,11304,9621,36197,27364,3
0.0,0.0,0.0,12878,11280,9599,36160,27391,3
0.0,0.0,0.0,12891,11304,9621,36197,27364,3
0.0,0.0,0.0,12905,11317,9621,36085,27418,3
0.0,0.0,0.0,12905,11391,9621,36197,27418,3
0.0,0.0,0.0,12905,11403,9621,36235,27391,3
0.0,0.0,0.0,12918,11453,9643,36160,27527,3
0.0,0.0,0.0,12972,11478,9643,36197,27472,3
0.0,0.0,0.0,12945,11515,9643,36235,27499,3
0.0,0.0,0.0,12945,11515,9643,36235,27391,3
0.0,0.0,0.0,12932,11503,9643,36160,27472,3
0.0,0.0,0.0,12959,11515,9643,36235,27472,3
0.0,0.0,0.0,12959,11528,9666,36160,27418,3
0.0,0.0,0.0,12972,11553,9643,36160,27499,3
0.0,0.0,0.0,12972,11553,9666,36160,27472,3
0.0,0.0,0.0,12972,11565,9666,36160,27472,3
0.0,0.0,0.0,13013,11565,9666,36085,27472,3
0.0,0.0,0.0,12972,11578,9643,36235,27391,3
0.0,0.0,0.0,13013,11603,9666,36085,27418,3
0.0,0.0,0.0,12972,11603,9643,36197,27418,3
0.0,0.0,0.0,12972,11553,9643,36272,26855,3
0.0,0.0,0.0,12972,11453,9643,36160,24654,3
0.0,0.0,0.0,13122,11453,9621,35602,24534,3
0.0,0.0,0.0,13384,11453,9643,34553,25316,3
0.0,0.0,0.0,13510,11478,9621,33817,25818,3
0.0,0.0,0.0,13707,11540,9643,33033,26461,3
0.0,0.0,0.0,14064,11640,9666,31881,27175,3
0.0,0.0,0.0,14326,11703,9666,31025,27310,3
0.0,0.0,0.0,14444,11754,9666,30195,27337,3
0.0,0.0,0.0,14666,11804,9643,29333,27337,3
0.0,0.0,0.0,15089,11881,9643,28245,27364,3
0.0,0.0,0.0,15459,12009,9666,27310,27095,3
0.0,0.0,0.0,15678,12021,9632,26988,26988,3
0.0,0.0,0.0,15663,12009,9621,27095,26935,3
0.0,0.0,0.0,15459,11970,9621,27256,27015,3
0.0,0.0,0.0,15273,12009,9621,27745,26908,3
0.0,0.0,0.0,15104,12009,9621,28245,26961,3
0.0,0.0,0.0,15058,12333,9621,28498,27148,3
0.0,0.0,0.0,14997,12504,9621,28840,27122,3
0.0,0.0,0.0,14937,12636,9621,29158,27283,3
0.0,0.0,0.0,14907,12918,9621,29538,27175,3
0.0,0.0,0.0,14846,13177,9621,29925,27364,3
0.0,0.0,0.0,14786,13040,9666,30226,27337,3
0.0,0.0,0.0,14741,12864,9621,30256,27364,3
0.0,0.0,0.0,14681,12676,9643,30286,27283,3
0.0,0.0,0.0,14621,12346,9632,30530,27418,3
0.0,0.0,0.0,14562,12009,9621,30715,27364,3
0.0,0.0,0.0,14488,11728,9621,30838,27364,3
0.0,0.0,0.0,14385,11428,9599,31025,27256,3
0.0,0.0,0.0,14268,11280,9621,31339,27472,3
0.0,0.0,0.0,14050,11060,9621,31402,27966,3
0.0,0.0,0.0,13964,11109,9621,31465,27856,3
0.0,0.0,0.0,13906,11304,9621,31593,27800,3
0.0,0.0,0.0,13906,11703,9632,32043,27911,3
0.0,0.0,0.0,13849,11779,9643,32500,27911,3
0.0,0.0,0.0,13906,11868,9621,32799,27773,3
0.0,0.0,0.0,14021,11868,9621,33168,28812,3
0.0,0.0,0.0,14021,11957,9621,33303,29100,3
0.0,0.0,0.0,14093,11983,9666,33303,28927,3
0.0,0.0,0.0,14137,12021,9666,33168,28927,3
0.0,0.0,0.0,14079,12060,9688,33303,28927,3
0.0,0.0,0.0,14079,12150,9811,33645,28869,3
0.0,0.0,0.0,14108,12176,9800,33474,28812,3
0.0,0.0,0.0,14108,12176,9800,33371,28812,3
0.0,0.0,0.0,14079,12189,9800,33371,28754,3
0.0,0.0,0.0,14108,12163,9811,33337,28812,3
0.0,0.0,0.0,14064,12163,9800,33371,28697,3
0.0,0.0,0.0,14064,12163,9811,33405,28697,3
0.0,0.0,0.0,14036,12163,9822,33303,28754,3
0.0,0.0,0.0,14021,12163,9800,33371,28697,3
0.0,0.0,0.0,14079,12176,9811,33202,28583,3
0.0,0.0,0.0,14021,12163,9833,33303,28583,3
0.0,0.0,0.0,14021,12163,9845,33269,28555,3
0.0,0.0,0.0,14007,12163,9845,33236,28583,3
0.0,0.0,0.0,13992,12163,9845,33371,28583,3
0.0,0.0,0.0,14021,12176,9845,33236,28640,3
0.0,0.0,0.0,13992,12215,9845,33303,28612,3
0.0,0.0,0.0,13978,12215,9845,33371,28583,3
0.0,0.0,0.0,13978,12189,9867,33303,28555,3
0.0,0.0,0.0,13992,12176,9845,33269,28527,3
0.0,0.0,0.0,14021,12215,9856,33337,28555,3
0.0,0.0,0.0,14021,12215,9867,33236,28527,3
0.0,0.0,0.0,13978,12176,9845,33236,28414,3
0.0,0.0,0.0,13978,12189,9856,33439,28442,3
0.0,0.0,0.0,13978,12267,9901,33852,28245,3
0.0,0.0,0.0,13978,12267,9890,33714,28189,3
0.0,0.0,0.0,14064,12346,9958,33236,28049,3
0.0,0.0,0.0,14429,12504,9980,32402,27828,3
0.0,0.0,0.0,14801,12610,10003,31849,28022,3
0.0,0.0,0.0,15150,12636,9946,30838,28133,3
0.0,0.0,0.0,15211,12636,9912,30684,28022,3
0.0,0.0,0.0,15211,12530,9890,30469,27966,3
0.0,0.0,0.0,15242,12477,9856,30499,27939,3
0.0,0.0,0.0,15150,12424,9856,30684,27800,3
0.0,0.0,0.0,15028,12372,9811,30994,27663,3
0.0,0.0,0.0,15028,12267,9777,31593,27939,3
0.0,0.0,0.0,14952,12163,9766,31656,27856,3
0.0,0.0,0.0,14922,11906,9643,31720,27691,3
0.0,0.0,0.0,14876,11703,9621,31849,27581,3
0.0,0.0,0.0,14816,11653,9621,32075,27472,3
0.0,0.0,0.0,14771,11728,9621,31978,27472,3
0.0,0.0,0.0,14756,11603,9621,32043,27418,3
0.0,0.0,0.0,14726,11304,9621,32108,27337,3
0.0,0.0,0.0,14607,10676,9599,32435,27202,3
0.0,0.0,0.0,14458,10371,9610,32932,27202,3
0.0,0.0,0.0,14326,10255,9621,33236,27148,3
0.0,0.0,0.0,14209,10209,9621,33303,27095,3
0.0,0.0,0.0,14151,10209,9610,33033,27041,3
0.0,0.0,0.0,14137,10232,9599,32799,27148,3
0.0,0.0,0.0,14108,10267,9621,32899,27175,3
0.0,0.0,0.0,14050,10348,9621,33067,27283,3
0.0,0.0,0.0,14079,10464,9621,33236,27256,3
0.0,0.0,0.0,14021,11133,9621,33474,27364,3
0.0,0.0,0.0,14050,12530,10026,33714,27418,3
0.0,0.0,0.0,14036,12810,10301,33817,27527,3
0.0,0.0,0.0,14079,12932,10371,33852,27581,3
0.0,0.0,0.0,14108,13081,10394,33852,27581,3
0.0,0.0,0.0,14108,13315,10488,33921,27691,3
0.0,0.0,0.0,14050,12636,10371,33714,27527,3
0.0,0.0,0.0,13964,11453,9766,33714,27283,3
0.0,0.0,0.0,13935,11182,9632,33576,27256,3
0.0,0.0,0.0,13921,11615,9800,33611,27256,3
0.0,0.0,0.0,14021,13177,10582,34165,27472,3
0.0,0.0,0.0,14021,13821,10807,34271,27472,3
0.0,0.0,0.0,14108,14079,10927,34376,27581,3
0.0,0.0,0.0,14050,14021,10915,34412,27527,3
0.0,0.0,0.0,14108,13921,10879,34271,27581,3
0.0,0.0,0.0,14137,13906,10903,34271,27554,3
0.0,0.0,0.0,14108,13849,10867,34412,27418,3
0.0,0.0,0.0,14064,13538,10795,34341,27364,3
0.0,0.0,0.0,14021,12918,10641,34271,27256,3
0.0,0.0,0.0,13935,12649,10488,34341,27148,3
0.0,0.0,0.0,13906,12385,10406,34341,27095,3
0.0,0.0,0.0,13921,12267,10406,34341,27015,3
0.0,0.0,0.0,13906,12189,10406,34200,27041,3
0.0,0.0,0.0,13935,12137,10394,34412,27015,3
0.0,0.0,0.0,13906,12189,10278,34341,26935,3
0.0,0.0,0.0,13863,12228,10244,34412,26961,3
0.0,0.0,0.0,13906,12189,10174,34412,26776,3
0.0,0.0,0.0,13878,12112,10174,34271,26802,3
0.0,0.0,0.0,13863,12060,10186,34130,26776,3
0.0,0.0,0.0,13863,12034,10174,33991,26829,3
0.0,0.0,0.0,13906,11970,10209,33748,26988,3
0.0,0.0,0.0,13878,11957,10232,33714,27283,3
0.0,0.0,0.0,13964,11804,10232,33576,27202,3
0.0,0.0,0.0,13978,11528,10278,33371,27364,3
0.0,0.0,0.0,13964,11354,10325,33303,27310,3
0.0,0.0,0.0,13921,11280,10348,33303,27364,3
0.0,0.0,0.0,13949,11206,10371,33303,27256,3
0.0,0.0,0.0,13906,11182,10394,33236,27202,3
0.0,0.0,0.0,13863,11206,10394,33303,27148,3
0.0,0.0,0.0,13849,11231,10394,33439,27041,3
0.0,0.0,0.0,13849,11317,10394,33508,26988,3
0.0,0.0,0.0,13792,11515,10348,33645,26935,3
0.0,0.0,0.0,13806,11703,10313,33714,26829,3
0.0,0.0,0.0,13764,11944,10301,33852,26882,3
0.0,0.0,0.0,13764,12176,10301,33921,26776,3
0.0,0.0,0.0,13707,12372,10301,33991,26776,3
0.0,0.0,0.0,13735,12690,10301,34026,26723,3
0.0,0.0,0.0,13735,12851,10290,34235,26723,3
0.0,0.0,0.0,13707,12905,10301,34200,26670,3
0.0,0.0,0.0,13721,12610,10301,34026,26644,3
0.0,0.0,0.0,13735,12372,10313,33887,26723,3
0.0,0.0,0.0,13735,12241,10325,33887,26644,3
0.0,0.0,0.0,13749,12137,10359,33783,26723,3
0.0,0.0,0.0,13735,12060,10394,33783,26776,3
0.0,0.0,0.0,13721,11906,10394,33714,26776,3
0.0,0.0,0.0,13764,11830,10453,33817,26855,3
0.0,0.0,0.0,13721,11754,10488,33852,26855,3
0.0,0.0,0.0,13735,11628,10546,33852,26882,3
0.0,0.0,0.0,13707,11590,10629,33991,26908,3
0.0,0.0,0.0,13735,11603,10676,33956,26855,3
0.0,0.0,0.0,13749,11628,10664,33991,26935,3
0.0,0.0,0.0,13735,11653,10605,33991,26829,3
0.0,0.0,0.0,13764,11703,10535,33748,26776,3
0.0,0.0,0.0,13806,11653,10453,33371,26566,3
0.0,0.0,0.0,13749,11578,10267,33303,26566,3
0.0,0.0,0.0,13749,11428,10071,33202,26566,3
0.0,0.0,0.0,13735,11206,9666,33134,26566,3
0.0,0.0,0.0,13693,10843,9621,33371,26566,3
0.0,0.0,0.0,13622,10488,9621,33236,26618,3
0.0,0.0,0.0,13679,10418,9599,33100,26592,3
0.0,0.0,0.0,13622,10429,9621,33033,26435,3
0.0,0.0,0.0,13622,10453,9621,33100,26461,3
0.0,0.0,0.0,13594,10453,9599,32999,26435,3
0.0,0.0,0.0,13622,10441,9621,33269,26461,3
0.0,0.0,0.0,13679,10394,9610,33202,26409,3
0.0,0.0,0.0,13580,10348,9621,33508,26461,3
0.0,0.0,0.0,13594,10313,9599,33611,26435,3
0.0,0.0,0.0,13608,10301,9599,33236,26435,3
0.0,0.0,0.0,13566,10301,9621,33269,26357,3
0.0,0.0,0.0,13566,10313,9621,33168,26331,3
0.0,0.0,0.0,13566,10348,9610,33202,26461,3
0.0,0.0,0.0,13580,10418,9621,33371,26539,3
0.0,0.0,0.0,13566,11060,9621,33576,26644,3
0.0,0.0,0.0,13594,11503,9755,33576,26723,3
0.0,0.0,0.0,13622,12189,10313,33852,26882,3
0.0,0.0,0.0,13622,12530,10499,33991,26802,3
0.0,0.0,0.0,13622,12359,10499,33921,26723,3
0.0,0.0,0.0,13636,12293,10499,33991,26776,3
0.0,0.0,0.0,13538,12703,10535,34130,26829,3
0.0,0.0,0.0,13636,12878,10546,34130,26802,3
0.0,0.0,0.0,13622,12932,10546,34060,26829,3
0.0,0.0,0.0,13622,12905,10511,34095,26776,3
0.0,0.0,0.0,13622,12610,10464,33991,26723,3
0.0,0.0,0.0,13608,12570,10464,34060,26723,3
0.0,0.0,0.0,13622,12570,10464,34026,26723,3
0.0,0.0,0.0,13622,12543,10488,34130,26644,3
0.0,0.0,0.0,13650,12556,10535,34130,26670,3
0.0,0.0,0.0,13622,12556,10511,34060,26723,3
0.0,0.0,0.0,13679,12504,10499,34165,26670,3
0.0,0.0,0.0,13650,12583,10535,34235,26644,3
0.0,0.0,0.0,13650,12596,10535,34341,26776,3
0.0,0.0,0.0,13622,12530,10499,34271,26723,3
0.0,0.0,0.0,13622,12543,10511,34341,26776,3
0.0,0.0,0.0,13622,12583,10488,34271,26723,3
0.0,0.0,0.0,13622,12583,10499,34376,26749,3
0.0,0.0,0.0,13622,12556,10511,34482,26723,3
0.0,0.0,0.0,13650,12556,10499,34412,26776,3
0.0,0.0,0.0,13622,12583,10511,34412,26776,3
0.0,0.0,0.0,13636,12583,10499,34447,26723,3
0.0,0.0,0.0,13622,12583,10499,34624,26776,3
0.0,0.0,0.0,13679,12583,10511,34412,26882,3
0.0,0.0,0.0,13679,12610,10511,34412,26802,3
0.0,0.0,0.0,13707,12610,10511,34412,26829,3
0.0,0.0,0.0,13679,12596,10511,34589,26829,3
0.0,0.0,0.0,13679,12636,10511,34412,26776,3
0.0,0.0,0.0,13707,12636,10535,34447,26882,3
0.0,0.0,0.0,13707,12663,10511,34482,26855,3
0.0,0.0,0.0,13707,12676,10499,34412,26882,3
0.0,0.0,0.0,13679,12703,10523,34482,26882,3
0.0,0.0,0.0,13707,12703,10511,34482,26855,3
0.0,0.0,0.0,13679,12703,10535,34447,26855,3
0.0,0.0,0.0,13707,12676,10499,34482,26882,3
0.0,0.0,0.0,13707,12663,10499,34412,26882,3
0.0,0.0,0.0,13707,12649,10499,34341,26908,3
0.0,0.0,0.0,13707,12636,10511,34306,26882,3
0.0,0.0,0.0,13764,12610,10488,34341,26802,3
0.0,0.0,0.0,13849,12267,10406,34341,26802,3
0.0,0.0,0.0,13849,11615,9958,34482,26749,3
0.0,0.0,0.0,13806,10891,9621,34553,26670,3
0.0,0.0,0.0,13749,10488,9621,34412,26618,3
0.0,0.0,0.0,13735,10394,9610,34341,26566,3
0.0,0.0,0.0,13693,10394,9599,34130,26566,3
0.0,0.0,0.0,13679,10394,9621,33921,26566,3
0.0,0.0,0.0,13693,10418,9599,33852,26618,3
0.0,0.0,0.0,13693,10476,9621,33748,26644,3
0.0,0.0,0.0,13679,10535,9610,33748,26670,3
0.0,0.0,0.0,13679,10594,9610,33852,26749,3
0.0,0.0,0.0,13665,10748,9621,33887,26723,3
0.0,0.0,0.0,13665,10795,9621,33852,26776,3
0.0,0.0,0.0,13665,10939,9599,33921,26776,3
0.0,0.0,0.0,13636,11024,9621,33887,26723,3
0.0,0.0,0.0,13622,11012,9621,33921,26723,3
0.0,0.0,0.0,13622,10987,9621,33991,26723,3
0.0,0.0,0.0,13650,11024,9599,34130,26723,3
0.0,0.0,0.0,13636,11048,9621,34130,26723,3
0.0,0.0,0.0,13650,11072,9621,34200,26644,3
0.0,0.0,0.0,13622,11121,9632,34200,26723,3
0.0,0.0,0.0,13622,11133,9621,34200,26829,3
0.0,0.0,0.0,13580,11182,9621,34130,26723,3
0.0,0.0,0.0,13622,11170,9621,34165,26749,3
0.0,0.0,0.0,13636,11182,9621,34130,26723,3
0.0,0.0,0.0,13622,11157,9621,34130,26723,3
0.0,0.0,0.0,13650,11206,9621,34130,26723,3
0.0,0.0,0.0,13622,11255,9621,34165,26723,3
0.0,0.0,0.0,13622,11304,9654,34060,26829,3
0.0,0.0,0.0,13622,11354,9677,34130,26723,3
0.0,0.0,0.0,13650,11366,9688,34060,26749,3
0.0,0.0,0.0,13650,11403,9721,34165,26749,3
0.0,0.0,0.0,13650,11478,9755,34165,26776,3
0.0,0.0,0.0,13679,11503,9811,34200,26829,3
0.0,0.0,0.0,13679,11503,9800,34200,26776,3
0.0,0.0,0.0,13650,11515,9811,34200,26829,3
0.0,0.0,0.0,13650,11565,9845,34165,26802,3
0.0,0.0,0.0,13636,11603,9867,34165,26829,3
0.0,0.0,0.0,13650,11615,9890,34130,26829,3
0.0,0.0,0.0,13650,11653,9901,34165,26802,3
0.0,0.0,0.0,13650,11653,9901,34271,26882,3
0.0,0.0,0.0,13636,11665,9958,34306,27041,3
0.0,0.0,0.0,13679,11678,9980,34200,26988,3
0.0,0.0,0.0,13650,11728,9958,34130,26988,3
0.0,0.0,0.0,13650,11678,9958,34130,26988,3
0.0,0.0,0.0,13650,11703,9980,34130,26961,3
