GyroX,GyroY,GyroZ,Thumb,Index,Middle,Ring,Pinky,Gesture
0.0,0.0,0.0,18308,30226,32599,52270,46561,0
0.0,0.0,0.0,18417,30165,32566,52148,46613,0
0.0,0.0,0.0,18453,30105,32467,52026,46405,0
0.0,0.0,0.0,18453,30075,32435,51965,46301,0
0.0,0.0,0.0,18435,30075,32303,51904,45992,0
0.0,0.0,0.0,18362,29984,32271,51783,46095,0
0.0,0.0,0.0,18308,29865,32238,51663,45838,0
0.0,0.0,0.0,18236,29865,32173,51663,45838,0
0.0,0.0,0.0,18129,29746,32108,51542,45635,0
0.0,0.0,0.0,18129,29746,32108,51422,45584,0
0.0,0.0,0.0,18129,29746,31978,51422,45584,0
0.0,0.0,0.0,18111,29657,32010,51363,45331,0
0.0,0.0,0.0,18057,29627,31946,51184,45483,0
0.0,0.0,0.0,18075,29657,31849,51065,45331,0
0.0,0.0,0.0,18075,29597,31785,51124,45331,0
0.0,0.0,0.0,18147,29597,31720,51006,45181,0
0.0,0.0,0.0,18129,29568,31752,50947,45081,0
0.0,0.0,0.0,18147,29509,31624,50829,45081,0
0.0,0.0,0.0,18200,29421,31593,50947,45081,0
0.0,0.0,0.0,18164,29391,31529,50888,44881,0
0.0,0.0,0.0,18129,29391,31465,50829,44931,0
0.0,0.0,0.0,18129,29216,31529,50770,44782,0
0.0,0.0,0.0,18057,29245,31370,50536,44832,0
0.0,0.0,0.0,18022,29274,31370,50536,44832,0
0.0,0.0,0.0,18004,29274,31339,50477,44881,0
0.0,0.0,0.0,18022,29216,31307,50536,44733,0
0.0,0.0,0.0,17986,29158,31244,50245,44782,0
0.0,0.0,0.0,17933,29158,31213,50419,44634,0
0.0,0.0,0.0,17915,29042,31213,50419,44585,0
0.0,0.0,0.0,17915,29100,31119,50129,44487,0
0.0,0.0,0.0,17915,29042,31150,50245,44585,0
0.0,0.0,0.0,17845,29071,31119,50129,44389,0
0.0,0.0,0.0,17845,29042,30962,50014,44438,0
0.0,0.0,0.0,17845,28927,30962,50014,44193,0
0.0,0.0,0.0,17774,28955,30776,49956,44193,0
0.0,0.0,0.0,17792,28898,30838,50014,44340,0
0.0,0.0,0.0,17792,28927,30807,49899,44340,0
0.0,0.0,0.0,17739,28840,30715,49842,44291,0
0.0,0.0,0.0,17774,28840,30745,49899,44193,0
0.0,0.0,0.0,17774,28812,30715,49899,44096,0
0.0,0.0,0.0,17722,28840,30591,49670,44000,0
0.0,0.0,0.0,17704,28812,30622,49727,43903,0
0.0,0.0,0.0,17704,28783,30591,49670,43903,0
0.0,0.0,0.0,18272,28726,30530,49613,43903,0
0.0,0.0,0.0,19155,28357,30530,49556,44000,0
0.0,0.0,0.0,19612,28301,30408,49556,43855,0
0.0,0.0,0.0,19535,28077,30347,49443,43615,0
0.0,0.0,0.0,19458,28077,30256,49330,43663,0
0.0,0.0,0.0,19080,28133,30226,49386,43711,0
0.0,0.0,0.0,18783,28022,30226,49330,43663,0
0.0,0.0,0.0,18599,28133,30226,49273,43519,0
0.0,0.0,0.0,18489,28245,30286,49499,43567,0
0.0,0.0,0.0,18308,28470,30317,49330,43615,0
0.0,0.0,0.0,18635,28840,30377,49443,43615,0
0.0,0.0,0.0,19043,29158,30591,49499,43663,0
0.0,0.0,0.0,19401,29274,30591,49386,43759,0
0.0,0.0,0.0,19382,29216,30347,49273,43615,0
0.0,0.0,0.0,19306,29100,30347,49330,43615,0
0.0,0.0,0.0,19344,28869,30438,49217,43329,0
0.0,0.0,0.0,19477,28697,30408,49048,43329,0
0.0,0.0,0.0,19477,28583,30256,48992,43235,0
0.0,0.0,0.0,19382,28612,30286,48825,43235,0
0.0,0.0,0.0,19268,28527,30286,48881,43140,0
0.0,0.0,0.0,19249,28583,30226,48825,43235,0
0.0,0.0,0.0,19099,28442,30226,48769,43140,0
0.0,0.0,0.0,19099,28357,30165,48548,43235,0
0.0,0.0,0.0,19080,28357,30226,48658,43046,0
0.0,0.0,0.0,19043,28357,30165,48548,43093,0
0.0,0.0,0.0,19005,28301,30105,48548,43093,0
0.0,0.0,0.0,19005,28301,30165,48548,42906,0
0.0,0.0,0.0,18894,28245,30165,48492,42859,0
0.0,0.0,0.0,18968,28245,30105,48327,42766,0
0.0,0.0,0.0,18931,28301,30165,48437,42906,0
0.0,0.0,0.0,18912,28133,30045,48437,42859,0
0.0,0.0,0.0,18894,28245,30015,48327,42812,0
0.0,0.0,0.0,18894,28189,29984,48327,42766,0
0.0,0.0,0.0,18894,28189,30045,48382,42766,0
0.0,0.0,0.0,18801,28077,29984,48327,42719,0
0.0,0.0,0.0,18801,28133,29984,48218,42766,0
0.0,0.0,0.0,18801,28022,29895,48218,42719,0
0.0,0.0,0.0,18820,28049,29865,48327,42673,0
0.0,0.0,0.0,18783,28077,29895,48273,42766,0
0.0,0.0,0.0,18783,28133,29925,48163,42673,0
0.0,0.0,0.0,18783,28049,29925,48327,42626,0
0.0,0.0,0.0,18746,28049,29865,48163,42673,0
0.0,0.0,0.0,18746,28022,29895,48218,42719,0
0.0,0.0,0.0,18783,28022,29925,48218,42626,0
0.0,0.0,0.0,18783,27966,29805,47945,42534,0
0.0,0.0,0.0,18801,27966,29865,48108,42673,0
0.0,0.0,0.0,18894,27939,29925,48000,42626,0
0.0,0.0,0.0,18857,27939,29865,48000,42488,0
0.0,0.0,0.0,18801,27856,29805,48054,42488,0
0.0,0.0,0.0,18709,27800,29746,47945,42395,0
0.0,0.0,0.0,18562,27691,29746,48054,42304,0
0.0,0.0,0.0,18526,27745,29657,47891,42395,0
0.0,0.0,0.0,18453,27691,29746,47891,42304,0
0.0,0.0,0.0,18380,27718,29686,47945,42349,0
0.0,0.0,0.0,18380,27718,29686,48000,42304,0
0.0,0.0,0.0,18417,27691,29627,47729,42395,0
0.0,0.0,0.0,18362,27718,29627,47729,42349,0
0.0,0.0,0.0,18362,27691,29627,47783,42304,0
0.0,0.0,0.0,18344,27609,29657,47729,42395,0
0.0,0.0,0.0,18308,27636,29657,47729,42349,0
0.0,0.0,0.0,18308,27581,29568,47675,42304,0
0.0,0.0,0.0,18272,27609,29627,47675,42166,0
0.0,0.0,0.0,18236,27609,29597,47567,42258,0
0.0,0.0,0.0,18272,27581,29568,47567,42212,0
0.0,0.0,0.0,18236,27499,29568,47567,42212,0
0.0,0.0,0.0,18272,27527,29538,47567,42029,0
0.0,0.0,0.0,18236,27527,29568,47406,42075,0
0.0,0.0,0.0,18272,27527,29538,47460,42120,0
0.0,0.0,0.0,18236,27527,29568,47567,42029,0
0.0,0.0,0.0,18200,27499,29568,47460,42029,0
0.0,0.0,0.0,18200,27472,29509,47460,42120,0
0.0,0.0,0.0,18200,27418,29509,47460,41984,0
0.0,0.0,0.0,18236,27472,29538,47460,42029,0
0.0,0.0,0.0,18164,27418,29509,47406,42029,0
0.0,0.0,0.0,18236,27418,29421,47460,42029,0
0.0,0.0,0.0,18236,27472,29391,47460,42029,0
0.0,0.0,0.0,18200,27418,29479,47406,42029,0
0.0,0.0,0.0,18147,27418,29450,47406,41938,0
0.0,0.0,0.0,18164,27364,29450,47353,41938,0
0.0,0.0,0.0,18147,27391,29391,47406,41984,0
0.0,0.0,0.0,18164,27391,29391,47246,42120,0
0.0,0.0,0.0,18164,27391,29391,47299,41938,0
0.0,0.0,0.0,18129,27418,29391,47299,42029,0
0.0,0.0,0.0,18129,27364,29391,47246,41938,0
0.0,0.0,0.0,18129,27391,29333,47193,41938,0
0.0,0.0,0.0,18129,27364,29391,47140,41938,0
0.0,0.0,0.0,18129,27310,29391,47246,41938,0
0.0,0.0,0.0,18111,27310,29391,47087,41757,0
0.0,0.0,0.0,18075,27310,29391,47140,41893,0
0.0,0.0,0.0,18075,27310,29391,47246,41848,0
0.0,0.0,0.0,18111,27310,29362,47087,41893,0
0.0,0.0,0.0,18093,27310,29304,46981,41848,0
0.0,0.0,0.0,18075,27229,29333,47299,41712,0
0.0,0.0,0.0,18111,27202,29274,47140,41848,0
0.0,0.0,0.0,18093,27256,29333,47140,41757,0
0.0,0.0,0.0,18075,27256,29304,47087,41757,0
0.0,0.0,0.0,18075,27283,29274,47034,41848,0
0.0,0.0,0.0,18057,27202,29216,47034,41757,0
0.0,0.0,0.0,18004,27202,29274,46981,41803,0
0.0,0.0,0.0,18022,27202,29187,46928,41667,0
0.0,0.0,0.0,18022,27256,29187,46823,41757,0
0.0,0.0,0.0,18022,27175,29274,47034,41667,0
0.0,0.0,0.0,17986,27175,29216,46981,41667,0
0.0,0.0,0.0,18004,27148,29216,47034,41577,0
0.0,0.0,0.0,17986,27175,29216,46981,41712,0
0.0,0.0,0.0,17951,27148,29187,46823,41667,0
0.0,0.0,0.0,17968,27122,29216,46876,41622,0
0.0,0.0,0.0,17986,27095,29216,46823,41622,0
0.0,0.0,0.0,17933,27148,29216,46876,41443,0
0.0,0.0,0.0,17951,27175,29158,46770,41533,0
0.0,0.0,0.0,17933,27122,29100,46823,41533,0
0.0,0.0,0.0,17933,27148,29129,46823,41533,0
0.0,0.0,0.0,17933,27068,29100,46823,41577,0
0.0,0.0,0.0,17986,27095,29100,46718,41488,0
0.0,0.0,0.0,17951,27122,29100,46613,41399,0
0.0,0.0,0.0,17933,27041,29100,46770,41577,0
0.0,0.0,0.0,17915,27095,29158,46718,41443,0
0.0,0.0,0.0,17915,27148,29100,46666,41399,0
0.0,0.0,0.0,17933,27095,29100,46666,41399,0
0.0,0.0,0.0,17933,27068,29100,46613,41399,0
0.0,0.0,0.0,17915,27041,29042,46457,41399,0
0.0,0.0,0.0,17915,27068,29071,46561,41265,0
0.0,0.0,0.0,17933,27068,29071,46509,41309,0
0.0,0.0,0.0,17915,27015,29071,46509,41399,0
0.0,0.0,0.0,17933,27041,29100,46613,41221,0
0.0,0.0,0.0,17986,27041,29042,46509,41221,0
0.0,0.0,0.0,17915,26961,29129,46666,41176,0
0.0,0.0,0.0,17880,27122,29071,46613,41265,0
0.0,0.0,0.0,17898,27068,29071,46613,41221,0
0.0,0.0,0.0,17792,27095,29042,46509,41088,0
0.0,0.0,0.0,17845,27122,29042,46509,41132,0
0.0,0.0,0.0,17986,27175,29100,46509,41088,0
0.0,0.0,0.0,18129,27283,29100,46457,41132,0
0.0,0.0,0.0,18236,27418,29071,46405,41044,0
0.0,0.0,0.0,18526,27527,29274,46509,41044,0
0.0,0.0,0.0,18746,27691,29216,46405,41044,0
0.0,0.0,0.0,18764,27718,29100,46249,41044,0
0.0,0.0,0.0,18417,27554,29042,46043,41044,0
0.0,0.0,0.0,18272,27527,29042,46043,41044,0
0.0,0.0,0.0,18218,27445,29042,46095,40912,0
0.0,0.0,0.0,18093,27364,28984,45992,40868,0
0.0,0.0,0.0,18057,27337,28955,45992,40912,0
0.0,0.0,0.0,17986,27364,28927,45838,40868,0
0.0,0.0,0.0,17845,27310,29013,45889,40824,0
0.0,0.0,0.0,17880,27283,28955,45787,40780,0
0.0,0.0,0.0,17880,27256,28898,45736,40780,0
0.0,0.0,0.0,17915,27256,28812,45685,40736,0
0.0,0.0,0.0,17792,27202,28840,45584,40693,0
0.0,0.0,0.0,17845,27175,28812,45584,40649,0
0.0,0.0,0.0,17809,27095,28783,45533,40605,0
0.0,0.0,0.0,17845,27041,28812,45483,40605,0
0.0,0.0,0.0,17792,27041,28783,45483,40519,0
0.0,0.0,0.0,17827,26961,28697,45382,40605,0
0.0,0.0,0.0,17774,26988,28726,45382,40475,0
0.0,0.0,0.0,17845,27041,28726,45382,40519,0
0.0,0.0,0.0,17880,26935,28754,45382,40475,0
0.0,0.0,0.0,17704,26908,28726,45382,40519,0
0.0,0.0,0.0,17220,26961,28726,45382,40432,0
0.0,0.0,0.0,17016,26935,28726,45382,40389,0
0.0,0.0,0.0,16549,26855,28783,45483,40475,0
0.0,0.0,0.0,16303,26882,28726,45432,40389,0
0.0,0.0,0.0,16352,26829,28754,45432,40389,0
0.0,0.0,0.0,16499,26829,28754,45432,40475,0
0.0,0.0,0.0,16516,26829,28754,45382,40302,0
0.0,0.0,0.0,16483,26776,28697,45382,40346,0
0.0,0.0,0.0,16483,26749,28697,45382,40432,0
0.0,0.0,0.0,16417,26802,28726,45382,40346,0
0.0,0.0,0.0,16483,26723,28640,45382,40389,0
0.0,0.0,0.0,17067,26749,28669,45382,40259,0
0.0,0.0,0.0,18308,26670,28640,45382,40346,0
0.0,0.0,0.0,18326,26513,28726,45432,40432,0
0.0,0.0,0.0,18344,26435,28669,45483,40432,0
0.0,0.0,0.0,18344,26253,28527,45382,40346,0
0.0,0.0,0.0,18508,26279,28498,45181,40346,0
0.0,0.0,0.0,18290,26357,28470,45231,40173,0
0.0,0.0,0.0,18344,26409,28470,45231,40088,0
0.0,0.0,0.0,18562,26592,28498,45181,40216,0
0.0,0.0,0.0,18599,26670,28470,45281,40173,0
0.0,0.0,0.0,18562,26723,28470,45231,40088,0
0.0,0.0,0.0,18562,26749,28470,45181,40088,0
0.0,0.0,0.0,18562,26723,28498,45081,40045,0
0.0,0.0,0.0,18489,26670,28470,45031,40045,0
0.0,0.0,0.0,18489,26644,28442,45131,40088,0
0.0,0.0,0.0,18599,26566,28385,45131,40088,0
0.0,0.0,0.0,18727,26513,28385,45181,40045,0
0.0,0.0,0.0,18820,26513,28470,45081,40045,0
0.0,0.0,0.0,18968,26435,28470,45131,40173,0
0.0,0.0,0.0,18968,26435,28583,45181,40088,0
0.0,0.0,0.0,19061,26487,28498,44981,40173,0
0.0,0.0,0.0,19024,26409,28612,45081,40173,0
0.0,0.0,0.0,18968,26435,28583,44981,40088,0
0.0,0.0,0.0,18894,26435,28414,44981,40002,0
0.0,0.0,0.0,18857,26409,28527,45081,40002,0
0.0,0.0,0.0,18857,26409,28527,45181,39917,0
0.0,0.0,0.0,18801,26409,28470,44981,40002,0
0.0,0.0,0.0,18672,26331,28498,45081,39874,0
0.0,0.0,0.0,18764,26409,28470,45081,39960,0
0.0,0.0,0.0,18709,26435,28470,45081,39874,0
0.0,0.0,0.0,18635,26539,28470,44981,39917,0
0.0,0.0,0.0,18635,26644,28498,44832,40088,0
0.0,0.0,0.0,18635,26723,28470,44881,40002,0
0.0,0.0,0.0,18562,26935,28498,44981,39917,0
0.0,0.0,0.0,18453,27175,28527,44881,40045,0
0.0,0.0,0.0,18308,27527,28640,44931,40002,0
0.0,0.0,0.0,18218,27856,28697,44782,39960,0
0.0,0.0,0.0,18164,28301,28840,44683,40002,0
0.0,0.0,0.0,18093,29013,28955,44683,40173,0
0.0,0.0,0.0,17986,29568,29129,44634,40173,0
0.0,0.0,0.0,17951,29895,29362,44782,40955,0
0.0,0.0,0.0,17774,30165,29955,45736,42304,0
0.0,0.0,0.0,17617,30530,30347,47513,44438,0
0.0,0.0,0.0,17357,31087,31213,48769,46249,0
0.0,0.0,0.0,17169,31529,31465,49613,47140,0
0.0,0.0,0.0,17084,31913,31720,50129,47460,0
0.0,0.0,0.0,16999,32043,31849,50303,47193,0
0.0,0.0,0.0,17203,32010,31752,50361,47460,0
0.0,0.0,0.0,17634,31752,31339,49899,47034,0
0.0,0.0,0.0,18057,31465,31087,49899,45584,0
0.0,0.0,0.0,18200,31339,30962,49899,45031,0
0.0,0.0,0.0,18272,31181,30869,49727,44291,0
0.0,0.0,0.0,18344,31087,30776,49443,44000,0
0.0,0.0,0.0,18380,31056,30715,49330,44000,0
0.0,0.0,0.0,18417,30994,30561,49104,43711,0
0.0,0.0,0.0,18489,30807,30591,48992,43663,0
0.0,0.0,0.0,18562,30715,30591,48825,43377,0
0.0,0.0,0.0,18562,30317,30653,48603,43282,0
0.0,0.0,0.0,18562,30286,30591,48548,43188,0
0.0,0.0,0.0,18562,30226,30622,48382,42953,0
0.0,0.0,0.0,18489,30105,30591,48327,42812,0
0.0,0.0,0.0,18453,30135,30499,48108,42953,0
0.0,0.0,0.0,18435,29984,30499,48163,42906,0
0.0,0.0,0.0,18344,30045,30469,48163,42766,0
0.0,0.0,0.0,18362,29984,30530,47945,42812,0
0.0,0.0,0.0,18236,29865,30469,47945,42580,0
0.0,0.0,0.0,18147,29865,30469,47837,42719,0
0.0,0.0,0.0,18057,29775,30438,47783,42626,0
0.0,0.0,0.0,17986,29746,30408,47837,42580,0
0.0,0.0,0.0,17880,29627,30317,47675,42580,0
0.0,0.0,0.0,17774,29597,30438,47675,42488,0
0.0,0.0,0.0,17722,29568,30377,47621,42534,0
0.0,0.0,0.0,17739,29479,30347,47513,42442,0
0.0,0.0,0.0,17652,29450,30408,47460,42349,0
0.0,0.0,0.0,17600,29274,30377,47460,42258,0
0.0,0.0,0.0,17739,29216,30347,47246,42442,0
0.0,0.0,0.0,17634,29158,30347,47246,42349,0
0.0,0.0,0.0,17289,29158,30347,47246,42304,0
0.0,0.0,0.0,16831,29158,30286,47299,42166,0
0.0,0.0,0.0,17357,29071,30256,47140,42212,0
0.0,0.0,0.0,17374,28984,30256,47087,42120,0
0.0,0.0,0.0,16831,28927,30226,47140,42120,0
0.0,0.0,0.0,16352,29013,30165,47087,42075,0
0.0,0.0,0.0,16385,28927,30226,46981,42029,0
0.0,0.0,0.0,15837,28869,30165,46981,42029,0
0.0,0.0,0.0,15694,28812,30165,47034,41938,0
0.0,0.0,0.0,15868,28869,30165,47034,41938,0
0.0,0.0,0.0,17050,28869,30105,46928,42029,0
0.0,0.0,0.0,17254,28812,30226,46928,41848,0
0.0,0.0,0.0,17169,28869,30105,46876,41938,0
0.0,0.0,0.0,17220,28754,30075,46981,41893,0
0.0,0.0,0.0,17220,28697,30105,46823,41848,0
0.0,0.0,0.0,17306,28640,30165,46981,41757,0
0.0,0.0,0.0,17340,28583,30286,46928,41848,0
0.0,0.0,0.0,17357,28470,30256,46928,41757,0
0.0,0.0,0.0,17152,28329,30286,46981,41577,0
0.0,0.0,0.0,16949,28077,30286,46928,41667,0
0.0,0.0,0.0,16865,27856,30226,46718,41577,0
0.0,0.0,0.0,16815,27691,30165,46718,41577,0
0.0,0.0,0.0,16949,27636,30045,46718,41399,0
0.0,0.0,0.0,16915,27581,29955,46613,41265,0
0.0,0.0,0.0,16949,27527,29955,46405,41399,0
0.0,0.0,0.0,16932,27418,29925,46457,41354,0
0.0,0.0,0.0,17084,27364,29835,46249,41354,0
0.0,0.0,0.0,17152,27364,29805,46353,41309,0
0.0,0.0,0.0,17323,27310,29805,46405,41221,0
0.0,0.0,0.0,17704,27256,29746,46405,41221,0
0.0,0.0,0.0,17774,27202,29805,46301,41309,0
0.0,0.0,0.0,17915,27095,29657,46146,41221,0
0.0,0.0,0.0,17634,27202,29657,46198,41088,0
0.0,0.0,0.0,17409,27148,29597,46043,41176,0
0.0,0.0,0.0,17340,27229,29627,45992,41132,0
0.0,0.0,0.0,17495,27175,29627,45992,41088,0
0.0,0.0,0.0,17774,27068,29509,46095,41176,0
0.0,0.0,0.0,17933,27095,29509,45992,41132,0
0.0,0.0,0.0,17915,27068,29627,46095,41044,0
0.0,0.0,0.0,17845,27041,29568,45941,41132,0
0.0,0.0,0.0,17774,27068,29450,46043,41088,0
0.0,0.0,0.0,17739,27095,29509,46095,41044,0
0.0,0.0,0.0,17669,27068,29509,46095,41088,0
0.0,0.0,0.0,17582,27095,29450,45941,41132,0
0.0,0.0,0.0,17530,26988,29421,45889,41088,0
0.0,0.0,0.0,17426,26988,29450,45889,41044,0
0.0,0.0,0.0,17306,26935,29450,46043,40912,0
0.0,0.0,0.0,17254,26961,29450,45992,41044,0
0.0,0.0,0.0,17220,26935,29421,45992,40955,0
0.0,0.0,0.0,17186,26882,29391,45838,40955,0
0.0,0.0,0.0,17118,26935,29391,45941,41000,0
0.0,0.0,0.0,17084,26882,29391,45787,40955,0
0.0,0.0,0.0,17084,26935,29391,45889,40955,0
0.0,0.0,0.0,17084,26882,29391,45889,40868,0
0.0,0.0,0.0,17084,26935,29421,45838,40912,0
0.0,0.0,0.0,17033,26882,29391,45787,40868,0
0.0,0.0,0.0,16983,26829,29391,45787,40868,0
0.0,0.0,0.0,17016,26882,29362,45787,41000,0
0.0,0.0,0.0,17033,26829,29304,45838,40868,0
0.0,0.0,0.0,17067,26829,29333,45787,40955,0
0.0,0.0,0.0,17016,26829,29362,45787,40824,0
0.0,0.0,0.0,17050,26776,29450,45889,40824,0
0.0,0.0,0.0,17084,26776,29421,45736,40649,0
0.0,0.0,0.0,17289,26829,29479,45685,40780,0
0.0,0.0,0.0,17687,26723,29391,45685,40780,0
0.0,0.0,0.0,18129,26513,29391,45685,40780,0
0.0,0.0,0.0,18272,26331,29333,45685,40605,0
0.0,0.0,0.0,18344,26176,29274,45685,40780,0
0.0,0.0,0.0,18453,25894,29216,45635,40868,0
0.0,0.0,0.0,18435,25717,29100,45584,40824,0
0.0,0.0,0.0,18326,25641,29042,45584,40824,0
0.0,0.0,0.0,18254,25616,29042,45483,40780,0
0.0,0.0,0.0,18272,25540,29042,45584,40868,0
0.0,0.0,0.0,18272,25540,28984,45685,40649,0
0.0,0.0,0.0,18236,25540,29042,45584,40780,0
0.0,0.0,0.0,18236,25465,28984,45483,40824,0
0.0,0.0,0.0,18236,25490,28984,45432,40693,0
0.0,0.0,0.0,18218,25440,29013,45533,40693,0
0.0,0.0,0.0,18200,25490,28984,45584,40693,0
0.0,0.0,0.0,18236,25390,28955,45584,40605,0
0.0,0.0,0.0,18164,25440,28955,45432,40693,0
0.0,0.0,0.0,18164,25390,28984,45533,40736,0
0.0,0.0,0.0,18236,25390,28955,45432,40649,0
0.0,0.0,0.0,18344,25390,28927,45584,40389,0
0.0,0.0,0.0,18380,25316,28955,45483,40605,0
0.0,0.0,0.0,18290,25341,28927,45483,40605,0
0.0,0.0,0.0,18147,25341,28869,45382,40519,0
0.0,0.0,0.0,18093,25341,28927,45483,40519,0
0.0,0.0,0.0,17986,25390,28927,45432,40432,0
0.0,0.0,0.0,18004,25316,28927,45281,40088,0
0.0,0.0,0.0,18147,25291,28869,45382,39663,0
0.0,0.0,0.0,18508,25341,28812,45483,39494,0
0.0,0.0,0.0,18508,25291,28726,45231,39411,0
0.0,0.0,0.0,18435,25316,28697,45131,39411,0
0.0,0.0,0.0,18417,25291,28697,45181,39369,0
0.0,0.0,0.0,18417,25316,28697,44981,39244,0
0.0,0.0,0.0,18417,25266,28697,44981,39202,0
0.0,0.0,0.0,18380,25241,28612,45081,39285,0
0.0,0.0,0.0,18344,25241,28640,44881,39327,0
0.0,0.0,0.0,18236,25241,28640,44981,39244,0
0.0,0.0,0.0,18344,25316,28583,45483,39077,0
0.0,0.0,0.0,18764,25440,28470,45736,39077,0
0.0,0.0,0.0,18801,25440,28245,44389,38953,0
0.0,0.0,0.0,18801,25415,28217,44193,38748,0
0.0,0.0,0.0,18931,25415,28133,44096,38995,0
0.0,0.0,0.0,19099,25390,28049,44096,39036,0
0.0,0.0,0.0,19099,25415,27911,43615,39036,0
0.0,0.0,0.0,19155,25390,28022,43615,38912,0
0.0,0.0,0.0,19005,25440,28105,43472,38830,0
0.0,0.0,0.0,18654,25515,28105,43615,39036,0
0.0,0.0,0.0,18471,25490,28189,43855,39119,0
0.0,0.0,0.0,18236,25565,28245,43711,38995,0
0.0,0.0,0.0,18129,25793,28189,43663,38789,0
0.0,0.0,0.0,17933,26099,28189,43807,38544,0
0.0,0.0,0.0,17845,26305,28301,44242,38707,0
0.0,0.0,0.0,17289,26566,28527,44389,39036,0
0.0,0.0,0.0,16848,26882,28669,44487,39494,0
0.0,0.0,0.0,16516,26961,28754,44585,40088,0
0.0,0.0,0.0,16450,27148,28612,44536,40173,0
0.0,0.0,0.0,16516,27554,28697,44683,40216,0
0.0,0.0,0.0,16516,27800,28640,44782,40519,0
0.0,0.0,0.0,16615,28357,28812,45081,41221,0
0.0,0.0,0.0,16665,29100,28927,45584,42673,0
0.0,0.0,0.0,16815,29925,29274,46405,44782,0
0.0,0.0,0.0,17084,30838,29509,46928,46457,0
0.0,0.0,0.0,17237,31213,29955,47299,46405,0
0.0,0.0,0.0,17478,31434,30256,47513,46457,0
0.0,0.0,0.0,17880,31402,30226,47460,46301,0
0.0,0.0,0.0,18200,31370,30165,47299,46249,0
0.0,0.0,0.0,18894,31213,30165,47621,46198,0
0.0,0.0,0.0,19689,31213,30226,47783,46043,0
0.0,0.0,0.0,20355,31119,30286,47891,45838,0
0.0,0.0,0.0,20798,31025,30226,47891,45736,0
0.0,0.0,0.0,21084,30745,30165,47567,45889,0
0.0,0.0,0.0,20920,30530,30105,47460,46043,0
0.0,0.0,0.0,20981,30226,30015,47513,45635,0
0.0,0.0,0.0,20981,29865,29835,47513,45181,0
0.0,0.0,0.0,21064,29627,29835,47513,43903,0
0.0,0.0,0.0,21416,29509,29865,47299,42953,0
0.0,0.0,0.0,21839,29538,29746,47087,42580,0
0.0,0.0,0.0,21924,29509,29686,46823,42953,0
0.0,0.0,0.0,21924,29509,29597,46770,43424,0
0.0,0.0,0.0,21882,29538,29509,46718,43424,0
0.0,0.0,0.0,22010,29391,29509,46823,43424,0
0.0,0.0,0.0,22010,29333,29509,46666,43329,0
0.0,0.0,0.0,22053,29158,29538,46718,43046,0
0.0,0.0,0.0,22183,29158,29538,46928,42673,0
0.0,0.0,0.0,22292,29100,29746,47140,41848,0
0.0,0.0,0.0,22270,28955,29716,47299,41577,0
0.0,0.0,0.0,22161,28898,29775,47299,41622,0
0.0,0.0,0.0,22226,28927,29746,47406,41488,0
0.0,0.0,0.0,22183,28927,29686,47460,41488,0
0.0,0.0,0.0,22075,28869,29686,47353,41309,0
0.0,0.0,0.0,22096,28869,29895,47087,41000,0
0.0,0.0,0.0,22053,28840,29865,47034,40780,0
0.0,0.0,0.0,22053,28697,29865,46928,40693,0
0.0,0.0,0.0,22032,28640,30015,46981,40432,0
0.0,0.0,0.0,22010,28612,30015,46823,40432,0
0.0,0.0,0.0,21924,28583,29925,46718,40519,0
0.0,0.0,0.0,21903,28498,29895,46561,40259,0
0.0,0.0,0.0,22053,28470,29865,46405,40216,0
0.0,0.0,0.0,22010,28357,29895,46198,40088,0
0.0,0.0,0.0,22140,28245,29955,46249,40002,0
0.0,0.0,0.0,22226,28301,29984,46146,40002,0
0.0,0.0,0.0,22161,28189,29925,46095,39917,0
0.0,0.0,0.0,22053,28245,29775,45992,40045,0
0.0,0.0,0.0,22010,28133,29925,46198,39960,0
0.0,0.0,0.0,21711,28301,29835,46301,40088,0
0.0,0.0,0.0,21542,28329,29805,46301,40045,0
0.0,0.0,0.0,21458,28357,29865,46249,40045,0
0.0,0.0,0.0,21542,28329,29775,46095,40002,0
0.0,0.0,0.0,21542,28357,29805,45992,40045,0
0.0,0.0,0.0,21542,28245,29805,46146,40045,0
0.0,0.0,0.0,21563,28273,29746,45992,39874,0
0.0,0.0,0.0,21818,28161,29657,45889,39663,0
0.0,0.0,0.0,22183,28301,29835,45787,39621,0
0.0,0.0,0.0,22313,28189,29835,45889,39621,0
0.0,0.0,0.0,22401,28133,29865,45889,39663,0
0.0,0.0,0.0,22226,28133,29835,45992,39705,0
0.0,0.0,0.0,22140,28022,29805,45992,39663,0
0.0,0.0,0.0,21903,28077,29746,45941,39832,0
0.0,0.0,0.0,21882,27911,29775,45992,39452,0
0.0,0.0,0.0,21839,28105,29805,45838,39285,0
0.0,0.0,0.0,21711,28022,29805,46043,39327,0
0.0,0.0,0.0,21690,27994,29746,45889,39244,0
0.0,0.0,0.0,21669,27966,29746,45736,39285,0
0.0,0.0,0.0,22010,28022,29805,45838,39285,0
0.0,0.0,0.0,22466,27966,29746,45685,39327,0
0.0,0.0,0.0,22599,27911,29805,45787,39369,0
0.0,0.0,0.0,22313,27828,29746,45584,39369,0
0.0,0.0,0.0,22183,27828,29627,45533,39369,0
0.0,0.0,0.0,22118,27911,29657,45736,39244,0
0.0,0.0,0.0,22140,27911,29597,45382,39578,0
0.0,0.0,0.0,22820,27939,29657,45483,39536,0
0.0,0.0,0.0,23431,27911,29746,45635,39536,0
0.0,0.0,0.0,23454,27828,29746,45787,39411,0
0.0,0.0,0.0,23454,27828,29805,45584,39452,0
0.0,0.0,0.0,23546,27800,29805,45533,39494,0
0.0,0.0,0.0,23569,27691,29925,45635,39411,0
0.0,0.0,0.0,23569,27527,29895,45533,39494,0
0.0,0.0,0.0,23431,27256,29984,45685,39327,0
0.0,0.0,0.0,23431,27229,29984,45685,39327,0
0.0,0.0,0.0,23248,27122,29865,45533,39244,0
0.0,0.0,0.0,23203,27068,29984,45483,39327,0
0.0,0.0,0.0,23112,27041,29955,45635,39411,0
0.0,0.0,0.0,23022,26961,29865,45584,39411,0
0.0,0.0,0.0,22955,26988,29865,45584,39494,0
0.0,0.0,0.0,22932,26855,29865,45635,39494,0
0.0,0.0,0.0,22754,26908,29895,45584,39494,0
0.0,0.0,0.0,22754,26855,29865,45483,39244,0
0.0,0.0,0.0,22621,26882,29865,45635,39036,0
0.0,0.0,0.0,22776,26855,29835,45584,38830,0
0.0,0.0,0.0,22776,27175,29657,45281,38912,0
0.0,0.0,0.0,21754,28049,29657,45281,38953,0
0.0,0.0,0.0,22010,28640,29509,45081,38830,0
0.0,0.0,0.0,21924,28812,29450,45081,38830,0
0.0,0.0,0.0,21775,28754,29304,45081,38995,0
0.0,0.0,0.0,21711,28697,29304,45031,38748,0
0.0,0.0,0.0,22776,28414,29450,44981,38789,0
0.0,0.0,0.0,22183,27636,30286,45483,37980,0
0.0,0.0,0.0,22010,27095,30776,45231,37860,0
0.0,0.0,0.0,21946,26961,30499,44881,38019,0
0.0,0.0,0.0,22053,26961,30015,44981,37622,0
0.0,0.0,0.0,22226,26935,29746,44881,37583,0
0.0,0.0,0.0,22401,26988,29657,44881,37583,0
0.0,0.0,0.0,22444,27256,29716,44585,37860,0
0.0,0.0,0.0,22488,27527,29746,44782,38871,0
0.0,0.0,0.0,22576,27527,29746,44981,39452,0
0.0,0.0,0.0,22754,27364,29746,44683,39832,0
0.0,0.0,0.0,23112,27095,29805,44782,39832,0
0.0,0.0,0.0,22843,26776,29775,44487,39411,0
0.0,0.0,0.0,22621,26592,29805,44487,38707,0
0.0,0.0,0.0,22401,26461,29746,44487,38503,0
0.0,0.0,0.0,22053,26357,29865,44487,38140,0
0.0,0.0,0.0,21754,26305,29805,44585,38019,0
0.0,0.0,0.0,21711,26253,29895,44487,37741,0
0.0,0.0,0.0,21627,26253,29746,44487,37662,0
0.0,0.0,0.0,22096,26357,29627,44242,37820,0
0.0,0.0,0.0,22140,26435,29627,44193,37860,0
0.0,0.0,0.0,21500,26935,29509,44096,37860,0
0.0,0.0,0.0,21125,27310,29450,44193,37860,0
0.0,0.0,0.0,21084,27636,29391,44048,38100,0
0.0,0.0,0.0,20981,27691,29391,44000,38019,0
0.0,0.0,0.0,20818,27691,29274,43903,38140,0
0.0,0.0,0.0,20859,27581,29274,44000,38059,0
0.0,0.0,0.0,20636,27472,29187,43951,38341,0
0.0,0.0,0.0,20415,27445,29216,43903,38422,0
0.0,0.0,0.0,20335,27445,29158,43807,38503,0
0.0,0.0,0.0,20157,27283,29158,43951,38260,0
0.0,0.0,0.0,19785,27148,29129,44000,38463,0
0.0,0.0,0.0,19612,27068,28984,44000,38707,0
0.0,0.0,0.0,19669,27041,28869,43903,38666,0
0.0,0.0,0.0,19554,26988,28812,43855,38503,0
0.0,0.0,0.0,19401,26935,28697,43807,38707,0
0.0,0.0,0.0,18894,26855,28697,43855,38707,0
0.0,0.0,0.0,17774,26644,28527,43615,38748,0
0.0,0.0,0.0,16831,26566,28357,43663,38707,0
0.0,0.0,0.0,16222,26566,28301,43519,38830,0
0.0,0.0,0.0,15868,26409,28189,43472,38666,0
0.0,0.0,0.0,15211,26409,28077,43377,38707,0
0.0,0.0,0.0,14370,26099,27911,43424,38585,0
0.0,0.0,0.0,13566,25945,27856,43519,38544,0
0.0,0.0,0.0,12959,25869,27800,43424,38625,0
0.0,0.0,0.0,13081,25793,27691,43424,38789,0
0.0,0.0,0.0,13232,25717,27581,43519,38503,0
0.0,0.0,0.0,12972,25666,27554,43282,38422,0
0.0,0.0,0.0,12649,25717,27581,43282,38503,0
0.0,0.0,0.0,12530,25616,27499,43282,38463,0
0.0,0.0,0.0,12009,25591,27581,43140,38503,0
0.0,0.0,0.0,11615,25591,27581,43282,38341,0
0.0,0.0,0.0,11528,25440,27527,43282,38382,0
0.0,0.0,0.0,11665,25390,27499,43329,38382,0
0.0,0.0,0.0,12124,25440,27472,43329,38341,0
0.0,0.0,0.0,12293,25390,27499,43377,38463,0
0.0,0.0,0.0,12189,25341,27472,43329,38503,0
0.0,0.0,0.0,12112,25291,27499,43329,38422,0
0.0,0.0,0.0,12073,25241,27472,43282,38463,0
0.0,0.0,0.0,12060,25291,27472,43282,38544,0
0.0,0.0,0.0,12009,25266,27472,43282,38341,0
0.0,0.0,0.0,11983,25241,27472,43282,38301,0
0.0,0.0,0.0,12424,25266,27472,43235,38260,0
0.0,0.0,0.0,14151,25415,27527,43282,38180,0
0.0,0.0,0.0,14414,25515,27499,43282,38100,0
0.0,0.0,0.0,14122,25415,27527,43140,38180,0
0.0,0.0,0.0,13650,25266,27445,43140,38220,0
0.0,0.0,0.0,13081,25291,27472,43235,38019,0
0.0,0.0,0.0,13068,25291,27472,43235,38140,0
0.0,0.0,0.0,13013,25291,27499,43188,38180,0
0.0,0.0,0.0,12972,25216,27472,43093,38140,0
0.0,0.0,0.0,12972,25291,27472,43046,38019,0
0.0,0.0,0.0,12959,25241,27472,43093,38019,0
0.0,0.0,0.0,12959,25266,27418,43046,38180,0
0.0,0.0,0.0,13040,25291,27418,43093,38180,0
0.0,0.0,0.0,13482,25216,27418,43093,38019,0
0.0,0.0,0.0,13301,25216,27391,43093,38019,0
0.0,0.0,0.0,13177,25142,27472,43140,37940,0
0.0,0.0,0.0,13081,25167,27418,43046,38019,0
0.0,0.0,0.0,13150,25192,27472,43046,37860,0
0.0,0.0,0.0,13496,25192,27472,43000,38059,0
0.0,0.0,0.0,13454,25192,27364,43093,38059,0
0.0,0.0,0.0,13287,25291,27364,43093,38100,0
0.0,0.0,0.0,13232,25291,27364,43093,38220,0
0.0,0.0,0.0,13054,25341,27310,43188,38301,0
0.0,0.0,0.0,13013,25440,27256,43188,38220,0
0.0,0.0,0.0,13398,25591,27202,43093,37980,0
0.0,0.0,0.0,13693,25591,27202,43046,37860,0
0.0,0.0,0.0,13735,25818,27175,43046,37940,0
0.0,0.0,0.0,13978,26047,27202,43046,37860,0
0.0,0.0,0.0,14108,26124,27175,43046,37741,0
0.0,0.0,0.0,14503,26566,27148,42859,37781,0
0.0,0.0,0.0,13510,26409,27095,42859,37583,0
0.0,0.0,0.0,12398,26331,27041,42766,37583,0
0.0,0.0,0.0,11754,26253,27041,42673,37465,0
0.0,0.0,0.0,11653,26124,26935,42859,37426,0
0.0,0.0,0.0,11453,26124,26961,42812,37543,0
0.0,0.0,0.0,11716,26073,26988,42859,37465,0
0.0,0.0,0.0,12176,26124,26961,42812,37465,0
0.0,0.0,0.0,12490,26124,26988,42906,37269,0
0.0,0.0,0.0,12703,26150,27041,42859,37152,0
0.0,0.0,0.0,12918,26253,27041,43140,36882,0
0.0,0.0,0.0,13122,26409,27095,43046,36920,0
0.0,0.0,0.0,13287,26670,27095,42953,36998,0
0.0,0.0,0.0,13806,26749,27175,43046,36998,0
0.0,0.0,0.0,14801,27122,27310,43093,36920,0
0.0,0.0,0.0,16368,27527,27472,43188,36805,0
0.0,0.0,0.0,17220,27828,27499,43329,36843,0
0.0,0.0,0.0,17774,28049,27581,43235,36767,0
0.0,0.0,0.0,17669,28189,27636,43282,36690,0
0.0,0.0,0.0,17704,28245,27691,43377,36690,0
0.0,0.0,0.0,18129,28301,27800,43615,36690,0
0.0,0.0,0.0,18746,28357,27800,43663,36499,0
0.0,0.0,0.0,19458,28357,27911,43807,36499,0
0.0,0.0,0.0,19921,28357,27828,43855,36767,0
0.0,0.0,0.0,20555,28329,27828,44000,36690,0
0.0,0.0,0.0,20798,28217,27691,44193,36767,0
0.0,0.0,0.0,21043,28133,27745,44193,36843,0
0.0,0.0,0.0,21043,28105,27745,44000,36728,0
0.0,0.0,0.0,21064,27994,27663,44000,36690,0
0.0,0.0,0.0,20961,27966,27800,43903,36614,0
0.0,0.0,0.0,20859,27939,27773,43807,36122,0
0.0,0.0,0.0,20879,27966,27828,43711,35972,0
0.0,0.0,0.0,20838,27911,27745,43711,36047,0
0.0,0.0,0.0,20899,27911,27828,43519,36010,0
0.0,0.0,0.0,21208,27939,27800,43424,35712,0
0.0,0.0,0.0,21563,27856,27828,43424,35565,0
0.0,0.0,0.0,21648,27691,27911,43424,35455,0
0.0,0.0,0.0,21648,27691,27911,43329,35382,0
0.0,0.0,0.0,21711,27581,27856,43329,35382,0
0.0,0.0,0.0,21711,27527,27939,43329,35345,0
0.0,0.0,0.0,21648,27581,28077,43329,35455,0
0.0,0.0,0.0,21818,27691,28245,43424,35565,0
0.0,0.0,0.0,21882,27636,28301,43615,35565,0
0.0,0.0,0.0,21733,27636,28357,43615,35602,0
0.0,0.0,0.0,21711,27609,28414,43615,35492,0
0.0,0.0,0.0,21606,27691,28414,43472,35455,0
0.0,0.0,0.0,21627,27581,28414,43424,35418,0
0.0,0.0,0.0,21733,27691,28245,43235,35455,0
0.0,0.0,0.0,22053,27499,28161,43282,35492,0
0.0,0.0,0.0,22140,27310,28077,43377,35676,0
0.0,0.0,0.0,22053,27256,28077,43424,35712,0
0.0,0.0,0.0,22010,27283,28022,43424,35676,0
0.0,0.0,0.0,22010,27256,28022,43519,35639,0
0.0,0.0,0.0,22053,27283,27911,43615,35639,0
0.0,0.0,0.0,22183,27175,27911,43711,35712,0
0.0,0.0,0.0,22183,27148,27911,43663,35712,0
0.0,0.0,0.0,21860,27310,27828,43424,35676,0
0.0,0.0,0.0,21754,27283,27911,43472,35639,0
0.0,0.0,0.0,21711,27175,27856,43424,35639,0
0.0,0.0,0.0,21733,27229,27883,43424,35602,0
0.0,0.0,0.0,21669,27310,27800,43235,35565,0
0.0,0.0,0.0,21648,27283,27800,43235,35565,0
0.0,0.0,0.0,21627,27310,27800,43188,35418,0
0.0,0.0,0.0,21542,27256,27800,43140,35418,0
0.0,0.0,0.0,21458,27229,27800,43093,35309,0
0.0,0.0,0.0,21375,27283,27800,43140,35418,0
0.0,0.0,0.0,21354,27175,27800,43140,35418,0
0.0,0.0,0.0,21375,27175,27773,43235,35345,0
0.0,0.0,0.0,21312,27202,27745,43046,35418,0
0.0,0.0,0.0,21270,27202,27745,43046,35345,0
0.0,0.0,0.0,21291,27202,27745,42953,35272,0
0.0,0.0,0.0,21270,27202,27691,42953,35345,0
0.0,0.0,0.0,21208,27148,27800,43046,35272,0
0.0,0.0,0.0,21250,27095,27718,42953,35272,0
0.0,0.0,0.0,21291,27122,27745,42953,35309,0
0.0,0.0,0.0,21416,27148,27718,42953,35163,0
0.0,0.0,0.0,21711,27148,27745,43046,35272,0
0.0,0.0,0.0,21839,27068,27636,42859,35382,0
0.0,0.0,0.0,22010,26882,27691,42906,35272,0
0.0,0.0,0.0,22140,26776,27745,42953,35272,0
0.0,0.0,0.0,22401,26749,27691,42953,35345,0
0.0,0.0,0.0,22357,26749,27800,42906,35418,0
0.0,0.0,0.0,22379,26723,27718,42953,35382,0
0.0,0.0,0.0,22335,26723,27828,42906,35345,0
0.0,0.0,0.0,22140,26697,27745,43000,35455,0
0.0,0.0,0.0,22096,26697,27718,43046,35639,0
0.0,0.0,0.0,22226,26618,27718,43093,35861,0
0.0,0.0,0.0,22335,26644,27691,42953,35528,0
0.0,0.0,0.0,22423,26618,27828,43093,35272,0
0.0,0.0,0.0,22532,26723,27828,42953,35199,0
0.0,0.0,0.0,22401,26670,27939,42953,35272,0
0.0,0.0,0.0,22226,26618,27939,42673,35163,0
0.0,0.0,0.0,22010,26513,28077,42719,35127,0
0.0,0.0,0.0,21839,26566,27966,42534,35055,0
0.0,0.0,0.0,22118,26618,27994,42580,35055,0
0.0,0.0,0.0,22887,26935,28022,42580,35018,0
0.0,0.0,0.0,23022,27095,28077,42626,34982,0
0.0,0.0,0.0,22401,27148,28189,42766,35127,0
0.0,0.0,0.0,21648,27256,28414,42953,35127,0
0.0,0.0,0.0,21291,27283,28385,43046,35127,0
0.0,0.0,0.0,21291,27202,28385,42906,35127,0
0.0,0.0,0.0,21333,27122,28414,42953,35127,0
0.0,0.0,0.0,22140,27310,28133,42859,34982,0
0.0,0.0,0.0,21648,26961,28022,42859,35018,0
0.0,0.0,0.0,21333,26802,28022,42395,35018,0
0.0,0.0,0.0,21250,26618,27994,42488,35127,0
0.0,0.0,0.0,21146,26435,28022,42488,35199,0
0.0,0.0,0.0,21084,26357,28077,42488,35018,0
0.0,0.0,0.0,21458,26409,28133,42488,34982,0
0.0,0.0,0.0,22576,26566,28077,42304,34839,0
0.0,0.0,0.0,22798,26513,28022,42212,34839,0
0.0,0.0,0.0,22932,26644,28022,42120,34839,0
0.0,0.0,0.0,22820,26776,27939,42258,34767,0
0.0,0.0,0.0,22576,26749,27966,42304,34839,0
0.0,0.0,0.0,22335,26882,27966,42488,34982,0
0.0,0.0,0.0,21860,27095,27911,42626,35055,0
0.0,0.0,0.0,20981,27148,27856,42673,35055,0
0.0,0.0,0.0,20395,27310,27800,42766,35272,0
0.0,0.0,0.0,19960,27364,27718,42719,35163,0
0.0,0.0,0.0,19554,27527,27800,42859,35163,0
0.0,0.0,0.0,19458,27609,27745,42766,35309,0
0.0,0.0,0.0,19306,27828,27718,42859,35345,0
0.0,0.0,0.0,19099,27939,27911,43567,35898,0
0.0,0.0,0.0,18968,28133,27966,43663,36010,0
0.0,0.0,0.0,19005,28077,28022,44000,36122,0
0.0,0.0,0.0,18931,28105,28022,43855,36085,0
0.0,0.0,0.0,19024,28161,27939,43903,36047,0
0.0,0.0,0.0,19497,28105,27883,43903,36047,0
0.0,0.0,0.0,21187,28161,27745,43615,35935,0
0.0,0.0,0.0,21458,27939,27773,43519,35861,0
0.0,0.0,0.0,22140,27800,27773,43046,35787,0
0.0,0.0,0.0,21796,27310,27800,43235,35712,0
0.0,0.0,0.0,21542,27068,27911,43046,35602,0
0.0,0.0,0.0,21711,26776,27911,42906,35418,0
0.0,0.0,0.0,21796,26644,27939,42673,35345,0
0.0,0.0,0.0,21775,26566,28077,42580,35345,0
0.0,0.0,0.0,21754,26461,27939,42580,35418,0
0.0,0.0,0.0,21711,26409,27939,42534,35382,0
0.0,0.0,0.0,21627,26305,27966,42580,35236,0
0.0,0.0,0.0,21437,26331,27911,42442,35272,0
0.0,0.0,0.0,21229,26228,27966,42395,35272,0
0.0,0.0,0.0,21146,26176,27856,42349,35236,0
0.0,0.0,0.0,21125,26150,27856,42304,35127,0
0.0,0.0,0.0,21084,26124,27911,42349,35272,0
0.0,0.0,0.0,21064,26047,27911,42349,35127,0
0.0,0.0,0.0,20899,26047,27911,42258,35127,0
0.0,0.0,0.0,20879,25996,27911,42304,35272,0
0.0,0.0,0.0,20818,25996,27800,42349,35091,0
0.0,0.0,0.0,20636,25894,27966,42120,35199,0
0.0,0.0,0.0,20137,25894,27994,42166,35127,0
0.0,0.0,0.0,20019,25894,27994,42166,35055,0
0.0,0.0,0.0,19941,25894,27966,42120,35055,0
0.0,0.0,0.0,20415,25717,27966,42120,35055,0
0.0,0.0,0.0,20818,25793,27745,42212,35787,0
0.0,0.0,0.0,21648,25793,27527,42488,36843,0
0.0,0.0,0.0,22488,25869,27418,42395,36690,0
0.0,0.0,0.0,22183,25843,27310,42304,36085,0
0.0,0.0,0.0,22140,26124,27202,42304,36047,0
0.0,0.0,0.0,21669,25996,27337,42166,36010,0
0.0,0.0,0.0,21270,25945,27310,41938,36160,0
0.0,0.0,0.0,20981,25717,27418,41938,36085,0
0.0,0.0,0.0,20838,25540,27364,41848,35935,0
0.0,0.0,0.0,20838,25490,27364,41803,35935,0
0.0,0.0,0.0,20676,25390,27337,41667,35712,0
0.0,0.0,0.0,20475,25291,27337,41712,35565,0
0.0,0.0,0.0,20236,25341,27256,41533,35602,0
0.0,0.0,0.0,19980,25440,27364,41577,35639,0
0.0,0.0,0.0,19824,25440,27445,41757,35602,0
0.0,0.0,0.0,19708,25415,27472,41757,35639,0
0.0,0.0,0.0,19650,25291,27445,41757,35712,0
0.0,0.0,0.0,19708,25241,27527,41803,35898,0
0.0,0.0,0.0,19785,25142,27800,42029,36122,0
0.0,0.0,0.0,19708,25093,27581,41443,35565,0
0.0,0.0,0.0,19689,25093,27472,41132,35272,0
0.0,0.0,0.0,19612,25093,27472,41044,35163,0
0.0,0.0,0.0,19689,25044,27418,41044,34910,0
0.0,0.0,0.0,19727,24946,27472,41221,34982,0
0.0,0.0,0.0,20137,24995,27364,41221,35272,0
0.0,0.0,0.0,20818,25019,27609,41533,35127,0
0.0,0.0,0.0,21146,24995,27883,41399,34946,0
0.0,0.0,0.0,21250,25019,27911,41221,35018,0
0.0,0.0,0.0,21229,25044,27828,41221,34982,0
0.0,0.0,0.0,21043,25093,27828,41088,34839,0
0.0,0.0,0.0,20961,25093,27718,41044,34767,0
0.0,0.0,0.0,20838,25093,27718,41132,34874,0
0.0,0.0,0.0,20757,25142,27691,41044,34910,0
0.0,0.0,0.0,20716,25118,27609,40868,34910,0
0.0,0.0,0.0,20575,25142,27609,40912,34839,0
0.0,0.0,0.0,20555,25093,27691,40955,34839,0
0.0,0.0,0.0,20555,25142,27609,40912,34731,0
0.0,0.0,0.0,20515,25142,27581,40955,34731,0
0.0,0.0,0.0,20535,25118,27581,40824,34731,0
0.0,0.0,0.0,20475,25192,27581,40824,34839,0
0.0,0.0,0.0,20435,25167,27527,40912,34839,0
0.0,0.0,0.0,20415,25118,27581,40868,34696,0
0.0,0.0,0.0,20415,25142,27527,40868,34767,0
0.0,0.0,0.0,20455,25192,27499,40824,34767,0
0.0,0.0,0.0,20375,25142,27499,40736,34767,0
0.0,0.0,0.0,20315,25192,27527,40824,34731,0
0.0,0.0,0.0,20256,25192,27554,40912,34731,0
0.0,0.0,0.0,20236,25216,27418,40912,34696,0
0.0,0.0,0.0,20256,25192,27472,40912,34696,0
0.0,0.0,0.0,20196,25167,27499,40824,34696,0
0.0,0.0,0.0,20157,25142,27499,40868,34696,0
0.0,0.0,0.0,20117,25216,27527,40824,34624,0
0.0,0.0,0.0,20117,25241,27472,40912,34624,0
0.0,0.0,0.0,20117,25291,27472,40780,34731,0
0.0,0.0,0.0,20078,25241,27472,40868,34660,0
0.0,0.0,0.0,20078,25241,27472,40868,34696,0
0.0,0.0,0.0,20039,25241,27445,40824,34589,0
0.0,0.0,0.0,20019,25216,27472,40868,34696,0
0.0,0.0,0.0,19999,25216,27418,40868,34696,0
0.0,0.0,0.0,19999,25241,27418,40780,34624,0
0.0,0.0,0.0,19999,25192,27472,40868,34624,0
0.0,0.0,0.0,19999,25142,27418,40912,34696,0
0.0,0.0,0.0,19960,25192,27391,40780,34696,0
0.0,0.0,0.0,19882,25167,27418,40780,34624,0
0.0,0.0,0.0,19921,25142,27472,40824,34624,0
0.0,0.0,0.0,19921,25192,27418,40868,34624,0
0.0,0.0,0.0,19863,25142,27418,40824,34589,0
0.0,0.0,0.0,19941,25142,27391,40693,34624,0
0.0,0.0,0.0,19863,25192,27418,40824,34553,0
0.0,0.0,0.0,19882,25142,27418,40780,34624,0
0.0,0.0,0.0,19882,25142,27472,40780,34696,0
0.0,0.0,0.0,19843,25192,27391,40736,34589,0
0.0,0.0,0.0,19921,25216,27418,40824,34589,0
0.0,0.0,0.0,19882,25093,27391,40780,34553,0
0.0,0.0,0.0,19941,25093,27364,40693,34624,0
0.0,0.0,0.0,20098,25167,27418,40780,34553,0
0.0,0.0,0.0,20098,25167,27175,40649,34696,0
0.0,0.0,0.0,20415,25093,27175,40955,35602,0
0.0,0.0,0.0,20961,25192,27310,41000,37465,0
0.0,0.0,0.0,20636,25291,27283,40955,37622,0
0.0,0.0,0.0,20157,25291,27283,41044,37465,0
0.0,0.0,0.0,19863,25365,27283,40824,37347,0
0.0,0.0,0.0,19631,25291,27229,40912,36462,0
0.0,0.0,0.0,19863,25192,27202,40868,36085,0
0.0,0.0,0.0,19843,25192,27283,40955,35418,0
0.0,0.0,0.0,19401,25167,27202,40868,35418,0
0.0,0.0,0.0,18987,25118,27068,40780,35382,0
0.0,0.0,0.0,18489,25167,27041,40693,35127,0
0.0,0.0,0.0,17933,25142,27041,40693,35127,0
0.0,0.0,0.0,17289,25118,27068,40736,35018,0
0.0,0.0,0.0,16831,24995,27310,41265,35382,0
0.0,0.0,0.0,16206,24995,27364,41176,35528,0
0.0,0.0,0.0,15996,24751,27283,40780,35418,0
0.0,0.0,0.0,16189,24799,27310,40649,35345,0
0.0,0.0,0.0,16582,25291,27418,40649,35055,0
0.0,0.0,0.0,16815,25415,27581,40955,34910,0
0.0,0.0,0.0,17016,25440,27718,41044,34696,0
0.0,0.0,0.0,16748,25241,27691,40955,34482,0
0.0,0.0,0.0,16532,25192,27636,40780,34306,0
0.0,0.0,0.0,16483,24995,27718,40780,34306,0
0.0,0.0,0.0,16467,24873,27636,40649,34200,0
0.0,0.0,0.0,16565,24946,27554,40649,34341,0
0.0,0.0,0.0,16532,25019,27527,40736,34553,0
0.0,0.0,0.0,16516,25142,27527,40736,34624,0
0.0,0.0,0.0,16516,25142,27472,40780,34660,0
0.0,0.0,0.0,16598,25019,27527,40693,34341,0
0.0,0.0,0.0,16681,25118,27527,40955,34271,0
0.0,0.0,0.0,17016,25316,27554,41000,35272,0
0.0,0.0,0.0,17067,25540,27472,41132,36160,0
0.0,0.0,0.0,17323,25742,27364,41354,36959,0
0.0,0.0,0.0,17565,26099,27256,41488,37900,0
0.0,0.0,0.0,17792,26305,27175,41221,39160,0
0.0,0.0,0.0,17880,26539,27068,41399,40519,0
0.0,0.0,0.0,18022,26829,27041,41803,41488,0
0.0,0.0,0.0,17968,27148,27175,42442,42304,0
0.0,0.0,0.0,17986,27418,27364,43140,43093,0
0.0,0.0,0.0,18022,27828,27581,43519,44048,0
0.0,0.0,0.0,18272,28357,27883,43807,44145,0
0.0,0.0,0.0,18508,28927,28357,44981,44438,0
0.0,0.0,0.0,18709,29245,28726,45382,44193,0
0.0,0.0,0.0,19005,29274,28697,45584,44291,0
0.0,0.0,0.0,19363,29071,28555,45181,44585,0
0.0,0.0,0.0,19708,29013,28414,45181,44981,0
0.0,0.0,0.0,20176,28869,28357,45231,44881,0
0.0,0.0,0.0,20575,28783,28245,44832,44536,0
0.0,0.0,0.0,20757,28583,28217,44832,44438,0
0.0,0.0,0.0,20879,28385,28161,44832,44438,0
0.0,0.0,0.0,20920,28245,28301,44782,44096,0
0.0,0.0,0.0,20920,27939,28161,44585,43663,0
0.0,0.0,0.0,20879,27828,28133,44585,43377,0
0.0,0.0,0.0,21002,27773,28133,44389,43424,0
0.0,0.0,0.0,21043,27691,28077,44291,43472,0
0.0,0.0,0.0,21064,27636,28049,44145,43329,0
0.0,0.0,0.0,20961,27527,28022,44145,43140,0
0.0,0.0,0.0,20961,27472,28022,44048,43093,0
0.0,0.0,0.0,20899,27418,27966,44000,43093,0
0.0,0.0,0.0,20920,27364,28022,44000,42859,0
0.0,0.0,0.0,20899,27364,28049,43855,42953,0
0.0,0.0,0.0,20899,27256,27966,43759,42859,0
0.0,0.0,0.0,20879,27256,27994,43759,42766,0
0.0,0.0,0.0,20899,27283,27994,43663,42812,0
0.0,0.0,0.0,20838,27175,27966,43663,42719,0
0.0,0.0,0.0,20859,27256,27966,43567,42719,0
0.0,0.0,0.0,20777,27148,27966,43711,42673,0
0.0,0.0,0.0,20676,27095,28022,43903,42626,0
0.0,0.0,0.0,20676,27041,28022,43711,42029,0
0.0,0.0,0.0,20615,27148,28077,43855,41533,0
0.0,0.0,0.0,20595,27068,28049,43663,41044,0
0.0,0.0,0.0,20595,26935,28049,43663,40955,0
0.0,0.0,0.0,20676,26988,28022,43663,41088,0
0.0,0.0,0.0,20676,26908,27994,43424,40868,0
0.0,0.0,0.0,20716,26935,27966,43472,40824,0
0.0,0.0,0.0,20737,26882,27966,43472,40868,0
0.0,0.0,0.0,20636,26882,28022,43282,40693,0
0.0,0.0,0.0,20615,26882,27966,43282,40649,0
0.0,0.0,0.0,20615,26935,27939,43329,40693,0
0.0,0.0,0.0,20595,26829,27911,43282,40649,0
0.0,0.0,0.0,20495,26855,27939,43235,40649,0
0.0,0.0,0.0,20595,26829,27911,43235,40605,0
0.0,0.0,0.0,20495,26829,27966,43188,40519,0
0.0,0.0,0.0,20455,26829,27911,43188,40475,0
0.0,0.0,0.0,20515,26776,27856,43235,40519,0
0.0,0.0,0.0,20435,26829,27966,43188,40432,0
0.0,0.0,0.0,20435,26802,27883,43188,40389,0
0.0,0.0,0.0,20515,26749,28245,43282,39369,0
0.0,0.0,0.0,20475,26723,28301,43519,38503,0
0.0,0.0,0.0,20395,26566,27939,43424,38585,0
0.0,0.0,0.0,20117,26409,27800,43235,38707,0
0.0,0.0,0.0,19497,26253,27691,43093,38503,0
0.0,0.0,0.0,18783,25996,27609,43046,38382,0
0.0,0.0,0.0,18164,25793,27499,43000,38422,0
0.0,0.0,0.0,17582,25691,27418,43093,38260,0
0.0,0.0,0.0,17186,25591,27418,43046,38341,0
0.0,0.0,0.0,16815,25540,27391,43093,38341,0
0.0,0.0,0.0,16157,25390,27527,43329,38220,0
0.0,0.0,0.0,15537,25365,27636,43282,38019,0
0.0,0.0,0.0,14967,25192,27800,43377,38100,0
0.0,0.0,0.0,14741,25019,27911,43282,38382,0
0.0,0.0,0.0,14681,24897,27745,42766,38382,0
0.0,0.0,0.0,15335,25093,27800,42395,38100,0
0.0,0.0,0.0,16238,25515,27911,42580,38140,0
0.0,0.0,0.0,17016,25971,28049,42906,38220,0
0.0,0.0,0.0,17237,26253,28022,42906,38707,0
0.0,0.0,0.0,17186,26331,27939,42953,38871,0
0.0,0.0,0.0,17084,26409,27828,42953,39036,0
0.0,0.0,0.0,16815,26357,27911,42859,39285,0
0.0,0.0,0.0,16615,26383,27800,42859,39578,0
0.0,0.0,0.0,16368,26435,27883,42766,40045,0
0.0,0.0,0.0,16271,26357,27800,42673,40519,0
0.0,0.0,0.0,16157,26461,27828,42673,40736,0
0.0,0.0,0.0,16125,26566,27800,42580,41265,0
0.0,0.0,0.0,16109,26618,27856,42626,42029,0
0.0,0.0,0.0,16352,26776,27718,42673,42859,0
0.0,0.0,0.0,16467,27041,27691,42580,43472,0
0.0,0.0,0.0,16450,27095,27527,42442,43472,0
0.0,0.0,0.0,16467,27202,27445,42258,43329,0
0.0,0.0,0.0,16450,27095,27472,42349,43046,0
0.0,0.0,0.0,16352,26961,27364,42075,43000,0
0.0,0.0,0.0,16385,26776,27364,42029,42673,0
0.0,0.0,0.0,16549,26670,27310,41938,42534,0
0.0,0.0,0.0,16715,26566,27283,41938,42304,0
0.0,0.0,0.0,16882,26435,27310,41938,42212,0
0.0,0.0,0.0,16983,26435,27310,41938,42075,0
0.0,0.0,0.0,17220,26305,27310,41803,42120,0
0.0,0.0,0.0,17392,26202,27364,41757,42120,0
0.0,0.0,0.0,17600,26150,27391,41803,42120,0
0.0,0.0,0.0,17634,25971,27310,42029,42120,0
0.0,0.0,0.0,17426,25945,27310,41848,41893,0
0.0,0.0,0.0,17374,25920,27283,41893,41757,0
0.0,0.0,0.0,17186,25894,27256,41848,41577,0
0.0,0.0,0.0,16615,25945,27256,41893,41221,0
0.0,0.0,0.0,16254,25920,27202,41667,41265,0
0.0,0.0,0.0,16368,25843,27041,41667,41132,0
0.0,0.0,0.0,17084,25920,26882,41443,40912,0
0.0,0.0,0.0,17898,25843,26776,41488,41000,0
0.0,0.0,0.0,17409,25691,26697,41488,41044,0
0.0,0.0,0.0,16915,25767,26670,41577,41044,0
0.0,0.0,0.0,16681,25742,26644,41622,40868,0
0.0,0.0,0.0,16681,25742,26618,41667,40912,0
0.0,0.0,0.0,16665,25793,26644,41667,40693,0
0.0,0.0,0.0,16831,25843,26592,41667,40346,0
0.0,0.0,0.0,17084,25996,26644,41938,39917,0
0.0,0.0,0.0,17289,26202,26618,41938,39663,0
0.0,0.0,0.0,17426,26435,26723,41803,39369,0
0.0,0.0,0.0,17845,26776,26855,41938,39160,0
0.0,0.0,0.0,18093,26855,26802,41938,38995,0
0.0,0.0,0.0,18508,26882,26882,41577,38871,0
0.0,0.0,0.0,19458,26829,26829,41712,38830,0
0.0,0.0,0.0,19941,26776,26882,41577,38707,0
0.0,0.0,0.0,20435,26723,26855,41577,38912,0
0.0,0.0,0.0,20495,26723,26882,41577,38707,0
0.0,0.0,0.0,20335,26829,26988,41622,38180,0
0.0,0.0,0.0,19999,26723,27095,41712,36882,0
0.0,0.0,0.0,20157,26566,27148,41577,36348,0
0.0,0.0,0.0,20961,26513,27256,41533,36085,0
0.0,0.0,0.0,21229,26409,27256,41533,33611,0
0.0,0.0,0.0,21354,26253,27472,40605,32999,0
0.0,0.0,0.0,21627,26202,27445,39917,32467,0
0.0,0.0,0.0,23157,26305,27256,40045,32238,0
0.0,0.0,0.0,23271,26253,27256,40002,32402,0
0.0,0.0,0.0,23294,26202,27283,40002,32500,0
0.0,0.0,0.0,22977,26099,27310,39917,32303,0
0.0,0.0,0.0,22532,26202,27391,39832,32271,0
0.0,0.0,0.0,22270,26228,27581,39832,32173,0
0.0,0.0,0.0,22140,26099,27800,39832,32108,0
0.0,0.0,0.0,22205,26022,27773,40002,32303,0
0.0,0.0,0.0,22292,25996,27745,40002,32435,0
0.0,0.0,0.0,22270,25894,27691,39874,32500,0
0.0,0.0,0.0,22226,25920,27636,39832,32173,0
0.0,0.0,0.0,22075,25945,27691,39621,32238,0
0.0,0.0,0.0,21924,25894,27691,39663,32303,0
0.0,0.0,0.0,21924,25920,27745,39663,32238,0
0.0,0.0,0.0,21839,25869,27828,39621,32205,0
0.0,0.0,0.0,21860,25843,27828,39832,32173,0
0.0,0.0,0.0,21818,25793,27828,39578,32238,0
0.0,0.0,0.0,21882,25818,27800,39536,32205,0
0.0,0.0,0.0,21903,25767,27800,39578,32075,0
0.0,0.0,0.0,22140,25691,27800,39494,32173,0
0.0,0.0,0.0,22576,25742,27691,39621,32238,0
0.0,0.0,0.0,22576,25818,27581,39411,32369,0
0.0,0.0,0.0,22820,25996,27391,39578,32566,0
0.0,0.0,0.0,22643,25920,27364,39663,32666,0
0.0,0.0,0.0,22357,25742,27283,39494,32566,0
0.0,0.0,0.0,22183,25591,27364,39494,32899,0
0.0,0.0,0.0,22140,25390,27418,39494,32932,0
0.0,0.0,0.0,22010,25068,27527,39411,33134,0
0.0,0.0,0.0,21669,24799,27499,39411,33168,0
0.0,0.0,0.0,21458,24510,27636,39327,33033,0
0.0,0.0,0.0,21208,24462,27609,39077,33236,0
0.0,0.0,0.0,21043,24414,27609,39411,33168,0
0.0,0.0,0.0,21229,24414,27581,39244,33269,0
0.0,0.0,0.0,21458,24366,27527,39244,33236,0
0.0,0.0,0.0,21563,24414,27418,39244,33337,0
0.0,0.0,0.0,21458,24558,27445,39285,33337,0
0.0,0.0,0.0,21500,24510,27418,39327,33508,0
0.0,0.0,0.0,21627,24510,27256,39285,33645,0
0.0,0.0,0.0,21542,24534,27310,39327,33714,0
0.0,0.0,0.0,21627,24558,27256,39494,33576,0
0.0,0.0,0.0,21711,24654,27256,39536,33714,0
0.0,0.0,0.0,21648,24654,27337,39663,33783,0
0.0,0.0,0.0,21648,24558,27175,39578,33991,0
0.0,0.0,0.0,21542,24558,27256,39747,33991,0
0.0,0.0,0.0,21542,24582,27256,39705,34341,0
0.0,0.0,0.0,21754,24702,27283,39747,34767,0
0.0,0.0,0.0,22010,24606,27229,39705,34982,0
0.0,0.0,0.0,22118,24510,27148,39621,35163,0
0.0,0.0,0.0,22183,24510,27256,39747,35565,0
0.0,0.0,0.0,22140,24342,27068,39790,35565,0
0.0,0.0,0.0,22053,24318,27095,39705,35712,0
0.0,0.0,0.0,22010,24366,27148,39578,35712,0
0.0,0.0,0.0,22053,24414,27122,39663,35565,0
0.0,0.0,0.0,21967,24318,27122,39621,35418,0
0.0,0.0,0.0,22032,24342,27095,39411,35455,0
0.0,0.0,0.0,22010,24294,27148,39621,35345,0
0.0,0.0,0.0,21924,24390,27068,39536,35345,0
0.0,0.0,0.0,21924,24462,27041,39663,35272,0
0.0,0.0,0.0,21882,24510,26961,39663,35345,0
0.0,0.0,0.0,21796,24558,26988,39494,35272,0
0.0,0.0,0.0,21796,24558,26961,39494,35272,0
0.0,0.0,0.0,21796,24510,26988,39494,35163,0
0.0,0.0,0.0,21754,24558,26935,39494,35163,0
0.0,0.0,0.0,21711,24534,26935,39411,35199,0
0.0,0.0,0.0,21711,24534,26935,39452,35199,0
0.0,0.0,0.0,21648,24510,26935,39452,35055,0
0.0,0.0,0.0,21627,24510,26935,39452,35055,0
0.0,0.0,0.0,21648,24558,26935,39452,35055,0
0.0,0.0,0.0,21584,24534,26935,39411,34982,0
0.0,0.0,0.0,21606,24534,26935,39494,35055,0
0.0,0.0,0.0,21542,24558,26935,39411,34982,0
0.0,0.0,0.0,21690,24510,26882,39327,35272,0
0.0,0.0,0.0,21796,24414,26935,39369,35055,0
0.0,0.0,0.0,21711,24390,26935,39494,34982,0
0.0,0.0,0.0,21375,24438,26776,39621,35492,0
0.0,0.0,0.0,21125,24921,26618,40432,36959,0
0.0,0.0,0.0,20859,24995,26618,40868,38019,0
0.0,0.0,0.0,20415,25465,26566,40649,37820,0
0.0,0.0,0.0,19921,25717,26618,40519,37386,0
0.0,0.0,0.0,19612,25641,26670,40519,37152,0
0.0,0.0,0.0,19573,25616,26618,40432,37308,0
0.0,0.0,0.0,19287,25742,26513,40173,36998,0
0.0,0.0,0.0,18672,25691,26461,40088,37075,0
0.0,0.0,0.0,18272,25717,26409,40045,36998,0
0.0,0.0,0.0,17933,25767,26357,40002,36998,0
0.0,0.0,0.0,17634,25843,26383,40045,36920,0
0.0,0.0,0.0,17426,25945,26409,40002,36843,0
0.0,0.0,0.0,17392,26176,26409,39874,36767,0
0.0,0.0,0.0,17272,26409,26435,39960,36538,0
0.0,0.0,0.0,17289,26618,26513,40002,36499,0
0.0,0.0,0.0,17237,26935,26566,39832,36499,0
0.0,0.0,0.0,17101,27148,26331,39747,36614,0
0.0,0.0,0.0,16949,26988,26253,39705,36499,0
0.0,0.0,0.0,16915,26855,26253,39621,36538,0
0.0,0.0,0.0,17084,26618,26228,39494,36499,0
0.0,0.0,0.0,17426,26513,26253,39494,36462,0
0.0,0.0,0.0,17461,26513,26202,39494,36348,0
0.0,0.0,0.0,17634,26461,26253,39494,36348,0
0.0,0.0,0.0,17898,26228,26331,39494,36272,0
0.0,0.0,0.0,18200,25996,26331,39494,36310,0
0.0,0.0,0.0,18272,25742,26383,39494,36272,0
0.0,0.0,0.0,18308,25365,26409,39536,36462,0
0.0,0.0,0.0,18182,25118,26409,39494,36386,0
0.0,0.0,0.0,18129,24897,26409,39494,36310,0
0.0,0.0,0.0,18111,24678,26435,39411,36386,0
0.0,0.0,0.0,18075,24534,26409,39411,36386,0
0.0,0.0,0.0,18093,24414,26435,39411,36462,0
0.0,0.0,0.0,17986,24318,26409,39411,36310,0
0.0,0.0,0.0,18004,24271,26409,39494,36310,0
0.0,0.0,0.0,18057,24271,26409,39494,36310,0
0.0,0.0,0.0,18022,24271,26357,39411,36310,0
0.0,0.0,0.0,17951,24318,26357,39369,36197,0
0.0,0.0,0.0,18057,24366,26305,39369,36310,0
0.0,0.0,0.0,17898,24751,26253,39494,36085,0
0.0,0.0,0.0,17669,25044,26099,39452,36085,0
0.0,0.0,0.0,17016,25093,26073,39494,35972,0
0.0,0.0,0.0,16915,24946,25894,39327,35935,0
0.0,0.0,0.0,16831,24799,25793,39327,35898,0
0.0,0.0,0.0,16157,24654,25767,39160,35898,0
0.0,0.0,0.0,15304,24438,25717,39202,35972,0
0.0,0.0,0.0,14488,24129,25641,39202,36122,0
0.0,0.0,0.0,14079,23940,25591,39160,36010,0
0.0,0.0,0.0,13863,24011,25591,39119,36010,0
0.0,0.0,0.0,13566,23964,25591,39119,35935,0
0.0,0.0,0.0,13232,23847,25540,39077,36010,0
0.0,0.0,0.0,13095,23754,25540,39160,36047,0
0.0,0.0,0.0,13068,23661,25540,39036,36085,0
0.0,0.0,0.0,12905,23661,25490,39244,36047,0
0.0,0.0,0.0,12517,23385,25440,39202,36235,0
0.0,0.0,0.0,12477,23294,25390,39411,36805,0
0.0,0.0,0.0,12810,23339,25341,39369,36920,0
0.0,0.0,0.0,13122,23431,25291,39411,37036,0
0.0,0.0,0.0,13205,23385,25241,39452,37114,0
0.0,0.0,0.0,13343,23522,25241,39369,37036,0
0.0,0.0,0.0,13806,23730,25241,39494,36767,0
0.0,0.0,0.0,15089,24223,25192,39327,36538,0
0.0,0.0,0.0,16093,24342,25241,39411,36386,0
0.0,0.0,0.0,16222,24414,25241,39411,36462,0
0.0,0.0,0.0,15710,24247,25216,39369,36499,0
0.0,0.0,0.0,14607,24129,25142,39244,36462,0
0.0,0.0,0.0,14282,24034,25216,39327,36386,0
0.0,0.0,0.0,13935,24081,25216,39369,36499,0
0.0,0.0,0.0,13863,24058,25142,39494,36310,0
0.0,0.0,0.0,13906,24129,25142,39369,36386,0
0.0,0.0,0.0,13863,24271,25192,39411,36160,0
0.0,0.0,0.0,13679,24318,25192,39327,36160,0
0.0,0.0,0.0,13482,24318,25192,39327,36010,0
0.0,0.0,0.0,13287,24414,25192,39285,35861,0
0.0,0.0,0.0,14326,24462,25241,39327,35787,0
0.0,0.0,0.0,15996,24534,25291,39327,35712,0
0.0,0.0,0.0,15980,24702,25291,39244,35602,0
0.0,0.0,0.0,15900,24654,25365,39285,35565,0
0.0,0.0,0.0,15773,24727,25316,39244,35492,0
0.0,0.0,0.0,15773,24702,25291,39202,35418,0
0.0,0.0,0.0,15694,24702,25316,39244,35418,0
0.0,0.0,0.0,15741,24751,25316,39202,35492,0
0.0,0.0,0.0,15837,24727,25192,39160,35418,0
0.0,0.0,0.0,15852,24727,25316,39077,35309,0
0.0,0.0,0.0,15837,24751,25241,39119,35345,0
0.0,0.0,0.0,15868,24751,25291,39077,35382,0
0.0,0.0,0.0,15852,24824,25291,39160,35345,0
0.0,0.0,0.0,15900,24799,25291,39160,35272,0
0.0,0.0,0.0,15852,24799,25291,39077,35418,0
0.0,0.0,0.0,15900,24848,25291,39077,35199,0
0.0,0.0,0.0,15900,24751,25316,39077,35345,0
0.0,0.0,0.0,15900,24799,25341,39160,35345,0
0.0,0.0,0.0,15900,24799,25316,39077,35345,0
0.0,0.0,0.0,15900,24799,25291,39036,35199,0
0.0,0.0,0.0,15916,24751,25291,39077,35309,0
0.0,0.0,0.0,15948,24775,25291,39077,35309,0
0.0,0.0,0.0,15980,24751,25266,39077,35345,0
0.0,0.0,0.0,16028,24751,25291,39077,35309,0
0.0,0.0,0.0,16028,24751,25266,39077,35272,0
0.0,0.0,0.0,16093,24799,25291,39119,35272,0
0.0,0.0,0.0,16206,24799,25291,39160,35199,0
0.0,0.0,0.0,16467,24799,25291,39119,35272,0
0.0,0.0,0.0,16748,24751,25316,39244,35163,0
0.0,0.0,0.0,16898,24799,25316,39160,35055,0
0.0,0.0,0.0,16898,24799,25316,38995,35055,0
0.0,0.0,0.0,16815,24799,25316,38995,34910,0
0.0,0.0,0.0,16748,24799,25316,39160,34910,0
0.0,0.0,0.0,16781,24799,25291,38995,34803,0
0.0,0.0,0.0,16765,24799,25316,38995,34803,0
0.0,0.0,0.0,16748,24799,25291,38995,34803,0
0.0,0.0,0.0,16715,24799,25291,38953,34731,0
0.0,0.0,0.0,16715,24751,25291,39036,34696,0
0.0,0.0,0.0,16648,24848,25291,39077,34660,0
0.0,0.0,0.0,16715,24897,25291,38912,34767,0
0.0,0.0,0.0,16748,24848,25316,39077,34731,0
0.0,0.0,0.0,16765,24799,25316,38912,34696,0
0.0,0.0,0.0,16882,24727,25365,38995,34553,0
0.0,0.0,0.0,17357,24727,25515,39244,33991,0
0.0,0.0,0.0,18111,24824,25641,39536,33439,0
0.0,0.0,0.0,18290,24873,25996,39369,33542,0
0.0,0.0,0.0,18544,24799,25894,38995,33337,0
0.0,0.0,0.0,18746,24702,25818,38707,33303,0
0.0,0.0,0.0,18672,24654,25742,38666,33303,0
0.0,0.0,0.0,18764,24606,25818,38666,33236,0
0.0,0.0,0.0,18875,24510,25793,38707,33236,0
0.0,0.0,0.0,19155,24510,25843,38666,33134,0
0.0,0.0,0.0,19689,24606,25945,38666,33645,0
0.0,0.0,0.0,19689,24558,25945,38666,33921,0
0.0,0.0,0.0,19843,24414,25996,38544,34095,0
0.0,0.0,0.0,20236,24414,26202,38463,34235,0
0.0,0.0,0.0,20757,24414,26124,38019,34130,0
0.0,0.0,0.0,20879,24462,26047,37940,33852,0
0.0,0.0,0.0,20636,24414,26099,38100,33921,0
0.0,0.0,0.0,20435,24414,26253,38382,33852,0
0.0,0.0,0.0,20236,24414,26435,38503,33852,0
0.0,0.0,0.0,20137,24414,26357,38544,33611,0
0.0,0.0,0.0,20019,24534,26435,38748,33714,0
0.0,0.0,0.0,19573,24873,26618,39327,34095,0
0.0,0.0,0.0,18894,25241,26829,39705,35199,0
0.0,0.0,0.0,18417,25691,27068,40519,36424,0
0.0,0.0,0.0,17986,26513,27499,41533,37940,0
0.0,0.0,0.0,17374,27745,28133,43046,39917,0
0.0,0.0,0.0,17101,28955,28927,44389,42953,0
0.0,0.0,0.0,17186,29984,29450,45635,44981,0
0.0,0.0,0.0,17357,30591,29716,46249,44881,0
0.0,0.0,0.0,17530,30530,29746,45941,45031,0
0.0,0.0,0.0,18417,29984,29304,45382,45081,0
0.0,0.0,0.0,19420,29479,29042,45031,43519,0
0.0,0.0,0.0,19843,29100,28898,44782,42349,0
0.0,0.0,0.0,19785,28783,28840,44340,42304,0
0.0,0.0,0.0,19689,28470,28812,43903,42075,0
0.0,0.0,0.0,19458,28470,28612,43903,41757,0
0.0,0.0,0.0,19231,28245,28612,43711,41443,0
0.0,0.0,0.0,19005,28189,28527,43424,41265,0
0.0,0.0,0.0,18912,28133,28470,43377,41132,0
0.0,0.0,0.0,18746,28077,28414,43235,41088,0
0.0,0.0,0.0,18709,27994,28414,43235,41044,0
0.0,0.0,0.0,18617,27911,28357,43188,40955,0
0.0,0.0,0.0,18562,27911,28357,43046,40736,0
0.0,0.0,0.0,18508,27828,28301,42953,40693,0
0.0,0.0,0.0,18508,27800,28245,42812,40693,0
0.0,0.0,0.0,18489,27745,28301,42906,40605,0
0.0,0.0,0.0,18453,27745,28133,42673,40605,0
0.0,0.0,0.0,18417,27745,28105,42580,40605,0
0.0,0.0,0.0,18417,27691,28077,42673,40519,0
0.0,0.0,0.0,18362,27636,28133,42534,40346,0
0.0,0.0,0.0,18399,27609,28022,42488,40346,0
0.0,0.0,0.0,18308,27581,28077,42488,40389,0
0.0,0.0,0.0,18308,27636,28022,42395,40346,0
0.0,0.0,0.0,18326,27581,27939,42395,40346,0
0.0,0.0,0.0,18344,27527,27966,42395,40302,0
0.0,0.0,0.0,18344,27581,27994,42488,40216,0
0.0,0.0,0.0,18380,27554,27966,42488,40259,0
0.0,0.0,0.0,18362,27527,27911,42395,40173,0
0.0,0.0,0.0,18380,27499,27911,42349,40173,0
0.0,0.0,0.0,18308,27472,27939,42304,40173,0
0.0,0.0,0.0,18344,27472,27911,42304,40088,0
0.0,0.0,0.0,18344,27445,27856,42258,40002,0
0.0,0.0,0.0,18344,27418,27856,42258,40045,0
0.0,0.0,0.0,18344,27472,27856,42212,40045,0
0.0,0.0,0.0,18344,27418,27800,42304,40131,0
0.0,0.0,0.0,18272,27364,27856,42304,40002,0
0.0,0.0,0.0,18308,27364,27800,42212,40002,0
0.0,0.0,0.0,18308,27391,27828,42166,40002,0
