GyroX,GyroY,GyroZ,Thumb,Index,Middle,Ring,Pinky,Gesture
0.0,0.0,0.0,13468,13260,12596,12163,42766,4
0.0,0.0,0.0,13454,13232,12596,12137,42766,4
0.0,0.0,0.0,13454,13191,12583,12176,42859,4
0.0,0.0,0.0,13468,13150,12530,12163,42859,4
0.0,0.0,0.0,13468,13081,12477,12163,42766,4
0.0,0.0,0.0,13454,12999,12398,12137,42719,4
0.0,0.0,0.0,13454,12891,12241,12137,42488,4
0.0,0.0,0.0,13412,12851,12163,12112,42349,4
0.0,0.0,0.0,13454,12810,12163,12124,42395,4
0.0,0.0,0.0,13440,12797,12163,12124,42488,4
0.0,0.0,0.0,13454,12824,12163,12163,42395,4
0.0,0.0,0.0,13426,12851,12176,12163,42442,4
0.0,0.0,0.0,13454,12918,12228,12202,42488,4
0.0,0.0,0.0,13538,13054,12385,12346,42580,4
0.0,0.0,0.0,13538,13040,12385,12477,42349,4
0.0,0.0,0.0,13580,13068,12385,12477,42395,4
0.0,0.0,0.0,13594,13013,12372,12411,42349,4
0.0,0.0,0.0,13566,12986,12372,12424,42258,4
0.0,0.0,0.0,13566,12972,12346,12398,42304,4
0.0,0.0,0.0,13580,13013,12372,12346,42304,4
0.0,0.0,0.0,13538,13068,12359,12320,42120,4
0.0,0.0,0.0,13566,13081,12372,12346,42120,4
0.0,0.0,0.0,13538,13068,12424,12372,42029,4
0.0,0.0,0.0,13566,13095,12424,12372,42120,4
0.0,0.0,0.0,13566,13122,12398,12372,42120,4
0.0,0.0,0.0,13524,13095,12424,12372,42120,4
0.0,0.0,0.0,13524,13095,12411,12372,42029,4
0.0,0.0,0.0,13552,13095,12424,12385,42120,4
0.0,0.0,0.0,13510,13136,12438,12385,42120,4
0.0,0.0,0.0,13524,13150,12451,12372,42029,4
0.0,0.0,0.0,13510,13150,12424,12372,41938,4
0.0,0.0,0.0,13524,13150,12438,12372,42029,4
0.0,0.0,0.0,13538,13205,12438,12359,41938,4
0.0,0.0,0.0,13510,13177,12438,12372,41938,4
0.0,0.0,0.0,13510,13205,12438,12372,41938,4
0.0,0.0,0.0,13524,13205,12424,12372,41893,4
0.0,0.0,0.0,13552,13177,12464,12385,41712,4
0.0,0.0,0.0,13510,13191,12438,12385,41984,4
0.0,0.0,0.0,13482,13205,12424,12372,41848,4
0.0,0.0,0.0,13510,13232,12451,12372,41938,4
0.0,0.0,0.0,13524,13260,12424,12372,41757,4
0.0,0.0,0.0,13510,13260,12438,12372,41757,4
0.0,0.0,0.0,13510,13232,12438,12385,41848,4
0.0,0.0,0.0,13468,13232,12424,12372,41712,4
0.0,0.0,0.0,13468,13246,12451,12411,41803,4
0.0,0.0,0.0,13482,13232,12451,12398,41848,4
0.0,0.0,0.0,13482,13246,12398,12385,41667,4
0.0,0.0,0.0,13454,13246,12451,12385,41667,4
0.0,0.0,0.0,13454,13260,12424,12398,41757,4
0.0,0.0,0.0,13482,13260,12424,12398,41622,4
0.0,0.0,0.0,13510,13246,12438,12385,41757,4
0.0,0.0,0.0,13468,13274,12424,12385,41577,4
0.0,0.0,0.0,13482,13232,12438,12385,41622,4
0.0,0.0,0.0,13510,13260,12424,12398,41667,4
0.0,0.0,0.0,13510,13246,12438,12372,41577,4
0.0,0.0,0.0,13510,13246,12438,12424,41622,4
0.0,0.0,0.0,13482,13218,12424,12424,41667,4
0.0,0.0,0.0,13468,13232,12438,12385,41577,4
0.0,0.0,0.0,13482,13260,12424,12424,41667,4
0.0,0.0,0.0,13454,13232,12424,12398,41533,4
0.0,0.0,0.0,13510,13232,12411,12424,41577,4
0.0,0.0,0.0,13468,13205,12424,12424,41577,4
0.0,0.0,0.0,13454,13177,12372,12398,41622,4
0.0,0.0,0.0,13454,13068,12293,12424,41577,4
0.0,0.0,0.0,13454,12972,12215,12398,41622,4
0.0,0.0,0.0,13468,12918,12163,12346,41488,4
0.0,0.0,0.0,13468,12878,12163,12306,41577,4
0.0,0.0,0.0,13468,12690,12009,12293,41757,4
0.0,0.0,0.0,13426,12451,11804,12241,41443,4
0.0,0.0,0.0,13384,12137,11603,12021,41399,4
0.0,0.0,0.0,13398,11983,11366,11906,41354,4
0.0,0.0,0.0,13371,11703,11012,11716,41309,4
0.0,0.0,0.0,13343,11603,10843,11603,41265,4
0.0,0.0,0.0,13398,11628,10795,11503,41132,4
0.0,0.0,0.0,13454,11741,10867,11453,41221,4
0.0,0.0,0.0,13510,11893,10927,11453,41221,4
0.0,0.0,0.0,13622,12124,11133,11453,41265,4
0.0,0.0,0.0,13735,12385,11206,11416,41221,4
0.0,0.0,0.0,13821,12703,11403,11428,41443,4
0.0,0.0,0.0,13863,12824,11453,11428,41399,4
0.0,0.0,0.0,13935,13136,11490,11453,41443,4
0.0,0.0,0.0,14108,13412,11503,11428,41443,4
0.0,0.0,0.0,14108,13510,11565,11428,41488,4
0.0,0.0,0.0,14122,13398,11528,11416,41399,4
0.0,0.0,0.0,14079,13315,11465,11403,41354,4
0.0,0.0,0.0,14050,13177,11354,11379,41221,4
0.0,0.0,0.0,14050,12986,11133,11329,41221,4
0.0,0.0,0.0,13978,12623,10819,11231,41132,4
0.0,0.0,0.0,13906,12254,10700,11157,41176,4
0.0,0.0,0.0,13863,12267,10688,11133,41044,4
0.0,0.0,0.0,13849,12372,10724,11060,41221,4
0.0,0.0,0.0,13892,12490,10748,11060,41132,4
0.0,0.0,0.0,13964,12530,10724,11012,41221,4
0.0,0.0,0.0,13935,12530,10676,10987,41265,4
0.0,0.0,0.0,13949,12556,10664,10963,41399,4
0.0,0.0,0.0,13906,12504,10617,10963,41399,4
0.0,0.0,0.0,13906,12490,10605,10963,41221,4
0.0,0.0,0.0,13906,12490,10605,10963,41132,4
0.0,0.0,0.0,13906,12543,10641,10963,41044,4
0.0,0.0,0.0,13906,12556,10653,10963,41044,4
0.0,0.0,0.0,13935,12663,10700,10963,41000,4
0.0,0.0,0.0,13863,12810,10676,10987,40955,4
0.0,0.0,0.0,13849,12878,10676,10987,40693,4
0.0,0.0,0.0,13821,12878,10629,11012,40824,4
0.0,0.0,0.0,13806,12905,10653,11060,40693,4
0.0,0.0,0.0,13778,12851,10676,11133,40693,4
0.0,0.0,0.0,13792,12690,10676,11157,40432,4
0.0,0.0,0.0,13792,12490,10629,11133,40519,4
0.0,0.0,0.0,13749,12241,10582,11170,40346,4
0.0,0.0,0.0,13707,12060,10535,11182,40346,4
0.0,0.0,0.0,13707,11932,10464,11206,40216,4
0.0,0.0,0.0,13707,11919,10441,11206,40259,4
0.0,0.0,0.0,13679,11893,10453,11182,40088,4
0.0,0.0,0.0,13679,11881,10499,11157,39832,4
0.0,0.0,0.0,13707,11944,10546,11121,40088,4
0.0,0.0,0.0,13665,11970,10582,11109,39874,4
0.0,0.0,0.0,13650,12034,10605,11084,39705,4
0.0,0.0,0.0,13665,12009,10641,11012,39663,4
0.0,0.0,0.0,13679,11970,10676,10963,39621,4
0.0,0.0,0.0,13707,12047,10724,10975,39578,4
0.0,0.0,0.0,13693,12021,10724,10963,39494,4
0.0,0.0,0.0,13679,11957,10688,10987,39285,4
0.0,0.0,0.0,13679,12021,10641,10963,39411,4
0.0,0.0,0.0,13707,12086,10676,10987,39327,4
0.0,0.0,0.0,13707,12124,10676,10963,39285,4
0.0,0.0,0.0,13707,12163,10700,10975,39327,4
0.0,0.0,0.0,13735,12320,10724,10987,39285,4
0.0,0.0,0.0,13735,12372,10724,10987,39244,4
0.0,0.0,0.0,13792,12372,10748,10963,39285,4
0.0,0.0,0.0,13792,12530,10748,10975,39244,4
0.0,0.0,0.0,13821,12504,10724,11012,39160,4
0.0,0.0,0.0,13849,12530,10771,11012,39160,4
0.0,0.0,0.0,13792,12517,10748,11012,39160,4
0.0,0.0,0.0,13749,12424,10748,11036,39160,4
0.0,0.0,0.0,13735,12346,10724,11024,39244,4
0.0,0.0,0.0,13735,12320,10724,11012,39160,4
0.0,0.0,0.0,13792,12215,10688,10987,39036,4
0.0,0.0,0.0,13821,12241,10676,10963,39244,4
0.0,0.0,0.0,13806,12150,10724,10963,39244,4
0.0,0.0,0.0,13792,12163,10748,10963,39160,4
0.0,0.0,0.0,13749,12112,10676,10963,39244,4
0.0,0.0,0.0,13679,12099,10629,10939,39036,4
0.0,0.0,0.0,13650,12060,10546,10927,38995,4
0.0,0.0,0.0,13566,12228,10582,10927,38995,4
0.0,0.0,0.0,13594,12320,10605,10963,38995,4
0.0,0.0,0.0,13566,12372,10594,10939,38830,4
0.0,0.0,0.0,13622,12385,10594,10939,39036,4
0.0,0.0,0.0,13580,12438,10605,10939,38912,4
0.0,0.0,0.0,13622,12424,10617,10963,39077,4
0.0,0.0,0.0,13566,12451,10594,10939,38871,4
0.0,0.0,0.0,13524,12490,10605,10963,38830,4
0.0,0.0,0.0,13510,12504,10594,10963,38707,4
0.0,0.0,0.0,13496,12543,10594,10963,38830,4
0.0,0.0,0.0,13482,12543,10582,10963,38666,4
0.0,0.0,0.0,13510,12530,10605,10963,38707,4
0.0,0.0,0.0,13482,12543,10594,10963,38666,4
0.0,0.0,0.0,13496,12583,10582,10963,38625,4
0.0,0.0,0.0,13468,12570,10605,10975,38585,4
0.0,0.0,0.0,13482,12543,10582,10987,38625,4
0.0,0.0,0.0,13482,12543,10605,10987,38544,4
0.0,0.0,0.0,13482,12570,10605,10987,38503,4
0.0,0.0,0.0,13482,12610,10605,10987,38503,4
0.0,0.0,0.0,13482,12583,10605,10987,38463,4
0.0,0.0,0.0,13482,12556,10629,10987,38544,4
0.0,0.0,0.0,13482,12583,10605,10987,38422,4
0.0,0.0,0.0,13482,12583,10594,10975,38503,4
0.0,0.0,0.0,13454,12583,10605,10987,38503,4
0.0,0.0,0.0,13468,12556,10605,10987,38382,4
0.0,0.0,0.0,13468,12596,10605,10963,38503,4
0.0,0.0,0.0,13482,12636,10605,10987,38463,4
0.0,0.0,0.0,13482,12649,10605,10963,38422,4
0.0,0.0,0.0,13510,12690,10629,10987,38382,4
0.0,0.0,0.0,13510,12636,10605,10987,38422,4
0.0,0.0,0.0,13510,12663,10605,10987,38382,4
0.0,0.0,0.0,13510,12649,10605,10987,38503,4
0.0,0.0,0.0,13482,12636,10605,11012,38382,4
0.0,0.0,0.0,13510,12636,10594,10987,38341,4
0.0,0.0,0.0,13524,12649,10605,10987,38382,4
0.0,0.0,0.0,13524,12663,10594,10987,38341,4
0.0,0.0,0.0,13510,12690,10605,10987,38382,4
0.0,0.0,0.0,13538,12716,10605,10987,38341,4
0.0,0.0,0.0,13538,12690,10605,11012,38463,4
0.0,0.0,0.0,13510,12743,10629,10987,38341,4
0.0,0.0,0.0,13566,12743,10629,11012,38422,4
0.0,0.0,0.0,13524,12756,10605,11012,38220,4
0.0,0.0,0.0,13524,12797,10617,11012,38341,4
0.0,0.0,0.0,13566,12770,10605,11036,38260,4
0.0,0.0,0.0,13552,12770,10594,11012,38341,4
0.0,0.0,0.0,13538,12797,10629,11012,38180,4
0.0,0.0,0.0,13524,12756,10629,11012,38180,4
0.0,0.0,0.0,13538,12797,10629,11012,38260,4
0.0,0.0,0.0,13496,12756,10617,11012,38180,4
0.0,0.0,0.0,13524,12770,10594,10963,38220,4
0.0,0.0,0.0,13524,12797,10629,11012,38260,4
0.0,0.0,0.0,13524,12797,10605,11012,38260,4
0.0,0.0,0.0,13524,12837,10605,11024,38260,4
0.0,0.0,0.0,13524,12797,10629,11060,38180,4
0.0,0.0,0.0,13510,12797,10617,11012,38100,4
0.0,0.0,0.0,13510,12810,10629,11024,38059,4
0.0,0.0,0.0,13510,12797,10629,11024,38180,4
0.0,0.0,0.0,13510,12810,10605,11024,38059,4
0.0,0.0,0.0,13524,12770,10605,11036,38180,4
0.0,0.0,0.0,13566,12797,10629,11036,38180,4
0.0,0.0,0.0,13510,12756,10629,11109,38180,4
0.0,0.0,0.0,13538,12690,10617,11121,38544,4
0.0,0.0,0.0,13524,12570,10582,11084,38544,4
0.0,0.0,0.0,13524,12543,10558,11060,38422,4
0.0,0.0,0.0,13510,12398,10570,11024,38463,4
0.0,0.0,0.0,13468,12189,10535,11024,38503,4
0.0,0.0,0.0,13454,11970,10488,11024,38625,4
0.0,0.0,0.0,13412,11754,10418,10975,38666,4
0.0,0.0,0.0,13357,11665,10418,10975,38463,4
0.0,0.0,0.0,13371,11603,10441,10987,38503,4
0.0,0.0,0.0,13412,11804,10488,11012,38544,4
0.0,0.0,0.0,13357,11855,10464,11024,38382,4
0.0,0.0,0.0,13315,11855,10441,11024,38180,4
0.0,0.0,0.0,13315,11779,10441,11012,38422,4
0.0,0.0,0.0,13343,11578,10406,10987,38382,4
0.0,0.0,0.0,13301,11565,10394,10939,38180,4
0.0,0.0,0.0,13232,11553,10348,10963,38140,4
0.0,0.0,0.0,13205,11553,10278,10927,38059,4
0.0,0.0,0.0,13177,11553,10255,10963,38019,4
0.0,0.0,0.0,13136,11565,10221,10939,38059,4
0.0,0.0,0.0,13122,11528,10255,10927,37940,4
0.0,0.0,0.0,13081,11528,10244,10927,37940,4
0.0,0.0,0.0,13081,11528,10221,10927,37820,4
0.0,0.0,0.0,13040,11515,10232,10939,37741,4
0.0,0.0,0.0,13068,11603,10301,10963,37465,4
0.0,0.0,0.0,13068,11653,10290,10987,37504,4
0.0,0.0,0.0,13068,11919,10394,11084,37465,4
0.0,0.0,0.0,13122,11970,10488,11206,37662,4
0.0,0.0,0.0,13095,11855,10488,11304,37741,4
0.0,0.0,0.0,13095,11766,10488,11379,38180,4
0.0,0.0,0.0,13136,11766,10605,11403,38100,4
0.0,0.0,0.0,13232,11906,10951,11403,38019,4
0.0,0.0,0.0,13287,11817,10891,11403,38019,4
0.0,0.0,0.0,13260,11779,10867,11379,37860,4
0.0,0.0,0.0,13232,11766,10843,11379,38019,4
0.0,0.0,0.0,13357,11855,10867,11366,37940,4
0.0,0.0,0.0,13510,12163,11060,11403,38180,4
0.0,0.0,0.0,13679,12583,11416,11453,38382,4
0.0,0.0,0.0,13863,12583,11428,11428,38382,4
0.0,0.0,0.0,13892,12451,11403,11416,38422,4
0.0,0.0,0.0,13792,12372,11403,11428,38463,4
0.0,0.0,0.0,13863,12690,11665,11478,38503,4
0.0,0.0,0.0,13906,13068,11804,11603,38341,4
0.0,0.0,0.0,13964,13205,11881,11553,38341,4
0.0,0.0,0.0,13964,13232,11855,11553,38100,4
0.0,0.0,0.0,14021,13150,11830,11503,38341,4
0.0,0.0,0.0,13964,12959,11754,11515,38422,4
0.0,0.0,0.0,13978,12851,11703,11478,38585,4
0.0,0.0,0.0,13935,12851,11703,11428,38260,4
0.0,0.0,0.0,13906,12851,11665,11440,38301,4
0.0,0.0,0.0,13921,12756,11615,11428,38503,4
0.0,0.0,0.0,13806,12464,11354,11403,38260,4
0.0,0.0,0.0,13735,12034,10987,11354,38260,4
0.0,0.0,0.0,13636,11728,10771,11329,37980,4
0.0,0.0,0.0,13566,11565,10653,11304,37900,4
0.0,0.0,0.0,13482,11515,10629,11304,37465,4
0.0,0.0,0.0,13482,11416,10523,11231,37701,4
0.0,0.0,0.0,13412,11428,10511,11219,37386,4
0.0,0.0,0.0,13371,11280,10418,11219,37308,4
0.0,0.0,0.0,13287,11280,10348,11206,36959,4
0.0,0.0,0.0,13232,11255,10290,11121,36843,4
0.0,0.0,0.0,13205,11304,10267,11121,36843,4
0.0,0.0,0.0,13205,11416,10325,11133,36690,4
0.0,0.0,0.0,13301,12176,10676,11219,37075,4
0.0,0.0,0.0,13454,12810,10999,11528,36920,4
0.0,0.0,0.0,13679,13122,11379,11881,37114,4
0.0,0.0,0.0,13636,13068,11366,11779,37036,4
0.0,0.0,0.0,13693,13315,11578,11653,37230,4
0.0,0.0,0.0,13964,14108,12176,11678,37269,4
0.0,0.0,0.0,14195,14488,12770,11830,37543,4
0.0,0.0,0.0,14195,14488,12756,11881,37543,4
0.0,0.0,0.0,14209,14518,12770,11970,37269,4
0.0,0.0,0.0,14253,14488,12743,11932,37308,4
0.0,0.0,0.0,14195,14399,12690,11906,37152,4
0.0,0.0,0.0,14195,14282,12530,11881,37114,4
0.0,0.0,0.0,14166,14195,12477,11855,37075,4
0.0,0.0,0.0,14166,14195,12477,11804,36998,4
0.0,0.0,0.0,14166,14195,12477,11779,37075,4
0.0,0.0,0.0,14137,14108,12490,11754,37152,4
0.0,0.0,0.0,14137,14050,12477,11728,36998,4
0.0,0.0,0.0,14137,13978,12504,11703,37075,4
0.0,0.0,0.0,14108,13949,12504,11665,36882,4
0.0,0.0,0.0,14079,13921,12490,11665,37075,4
0.0,0.0,0.0,14108,13821,12346,11653,37075,4
0.0,0.0,0.0,14108,13821,12293,11578,37036,4
0.0,0.0,0.0,14079,13792,12189,11553,37036,4
0.0,0.0,0.0,14079,13735,11957,11503,37152,4
0.0,0.0,0.0,14036,13679,11678,11465,37075,4
0.0,0.0,0.0,13978,13594,11665,11453,36920,4
0.0,0.0,0.0,13992,13566,11653,11428,36920,4
0.0,0.0,0.0,14007,13482,11453,11428,36843,4
0.0,0.0,0.0,14021,13412,11206,11403,36920,4
0.0,0.0,0.0,14036,13191,10915,11304,37543,4
0.0,0.0,0.0,14050,13136,10783,11280,37426,4
0.0,0.0,0.0,14036,13150,10819,11255,37308,4
0.0,0.0,0.0,14021,13150,10867,11268,36998,4
0.0,0.0,0.0,13978,13218,10891,11280,36767,4
0.0,0.0,0.0,13935,13232,11036,11280,36652,4
0.0,0.0,0.0,13964,13246,11157,11280,36614,4
0.0,0.0,0.0,13992,13246,11231,11304,36690,4
0.0,0.0,0.0,13949,13232,11206,11292,36538,4
0.0,0.0,0.0,13935,13232,11182,11304,36462,4
0.0,0.0,0.0,13921,13218,11206,11280,36462,4
0.0,0.0,0.0,13906,13218,11182,11280,36424,4
0.0,0.0,0.0,13935,13081,11121,11292,36462,4
0.0,0.0,0.0,13906,12676,10879,11255,36652,4
0.0,0.0,0.0,13821,12372,10748,11206,36499,4
0.0,0.0,0.0,13806,12215,10594,11170,36499,4
0.0,0.0,0.0,13792,12112,10511,11157,36386,4
0.0,0.0,0.0,13749,12086,10464,11133,36462,4
0.0,0.0,0.0,13735,12124,10453,11133,36272,4
0.0,0.0,0.0,13735,12215,10453,11109,36197,4
0.0,0.0,0.0,13707,12267,10488,11109,36235,4
0.0,0.0,0.0,13764,12385,10499,11109,36235,4
0.0,0.0,0.0,13792,12372,10511,11109,36010,4
0.0,0.0,0.0,13792,12398,10535,11109,35749,4
0.0,0.0,0.0,13806,12424,10535,11084,35602,4
0.0,0.0,0.0,13792,12477,10546,11096,35639,4
0.0,0.0,0.0,13806,12530,10582,11096,35712,4
0.0,0.0,0.0,13849,12543,10605,11109,35676,4
0.0,0.0,0.0,13821,12583,10594,11096,35712,4
0.0,0.0,0.0,13849,12583,10594,11109,35676,4
0.0,0.0,0.0,13849,12649,10629,11096,35676,4
0.0,0.0,0.0,13906,12690,10629,11109,35676,4
0.0,0.0,0.0,13892,12663,10629,11109,35639,4
0.0,0.0,0.0,13906,12743,10641,11109,35712,4
0.0,0.0,0.0,13906,12743,10653,11084,35861,4
0.0,0.0,0.0,13964,12770,10653,11109,36085,4
0.0,0.0,0.0,13992,12851,10676,11109,37386,4
0.0,0.0,0.0,14036,12918,10724,11121,38585,4
0.0,0.0,0.0,14180,12972,10748,11133,39578,4
0.0,0.0,0.0,14195,13013,10807,11194,39832,4
0.0,0.0,0.0,14151,13013,10831,11206,40432,4
0.0,0.0,0.0,14166,13040,10867,11231,41088,4
0.0,0.0,0.0,13978,12932,10867,11354,42120,4
0.0,0.0,0.0,13792,12837,10867,11453,43235,4
0.0,0.0,0.0,13594,12649,10831,11528,44242,4
0.0,0.0,0.0,13454,12490,10819,11703,44981,4
0.0,0.0,0.0,13287,12267,10771,11830,44981,4
0.0,0.0,0.0,13177,12112,10736,11983,44981,4
0.0,0.0,0.0,13122,12060,10724,12150,43903,4
0.0,0.0,0.0,13068,12099,10748,12267,43615,4
0.0,0.0,0.0,13081,12124,10819,12280,43615,4
0.0,0.0,0.0,13040,12267,10915,12176,43855,4
0.0,0.0,0.0,13177,12610,11268,12215,44585,4
0.0,0.0,0.0,13566,12851,11528,12267,45685,4
0.0,0.0,0.0,13735,12743,11578,12267,47299,4
0.0,0.0,0.0,13721,12490,11403,12137,47891,4
0.0,0.0,0.0,13735,12398,11219,11932,47783,4
0.0,0.0,0.0,13679,12267,11060,11653,47460,4
0.0,0.0,0.0,13594,12073,10891,11528,47034,4
0.0,0.0,0.0,13482,11932,10819,11428,46613,4
0.0,0.0,0.0,13384,11716,10700,11366,46353,4
0.0,0.0,0.0,13371,11628,10629,11280,45992,4
0.0,0.0,0.0,13371,11565,10582,11280,45736,4
0.0,0.0,0.0,13343,11678,10617,11268,45483,4
0.0,0.0,0.0,13371,11728,10653,11280,45281,4
0.0,0.0,0.0,13412,11983,10748,11280,44981,4
0.0,0.0,0.0,13454,12112,10783,11304,44931,4
0.0,0.0,0.0,13482,12267,10867,11280,44832,4
0.0,0.0,0.0,13510,12293,10879,11280,44733,4
0.0,0.0,0.0,13552,12293,10891,11304,44782,4
0.0,0.0,0.0,13580,12346,10891,11304,44782,4
0.0,0.0,0.0,13566,12477,11012,11280,44438,4
0.0,0.0,0.0,13650,12797,11317,11354,44585,4
0.0,0.0,0.0,13792,12972,11416,11379,44487,4
0.0,0.0,0.0,13806,13027,11478,11379,44487,4
0.0,0.0,0.0,13878,13398,11703,11453,44389,4
0.0,0.0,0.0,13978,13580,11703,11403,44389,4
0.0,0.0,0.0,14036,13454,11741,11453,44487,4
0.0,0.0,0.0,14021,13468,11855,11440,44389,4
0.0,0.0,0.0,14021,13524,11957,11453,44340,4
0.0,0.0,0.0,14021,13622,12163,11453,44536,4
0.0,0.0,0.0,14050,13622,12215,11503,44389,4
0.0,0.0,0.0,14137,13622,12086,11453,44340,4
0.0,0.0,0.0,14137,13636,12086,11428,44048,4
0.0,0.0,0.0,14238,13806,12372,11478,44193,4
0.0,0.0,0.0,14209,13749,12411,11553,44389,4
0.0,0.0,0.0,14166,13806,12477,11855,44096,4
0.0,0.0,0.0,14195,13792,12530,12176,44000,4
0.0,0.0,0.0,14195,13849,12543,12241,43855,4
0.0,0.0,0.0,14195,13849,12530,12189,43711,4
0.0,0.0,0.0,14180,13863,12543,12241,43759,4
0.0,0.0,0.0,14195,13906,12797,12359,43759,4
0.0,0.0,0.0,14195,13906,12783,12610,43663,4
0.0,0.0,0.0,14195,13906,12756,12797,43711,4
0.0,0.0,0.0,14166,13849,12583,12663,43472,4
0.0,0.0,0.0,14151,13792,12438,12438,43235,4
0.0,0.0,0.0,14151,13735,12215,12124,43093,4
0.0,0.0,0.0,14122,13636,12086,12060,42766,4
0.0,0.0,0.0,14036,13566,11957,12034,42673,4
0.0,0.0,0.0,13964,13301,11842,12009,42812,4
0.0,0.0,0.0,13935,12972,11754,12073,42673,4
0.0,0.0,0.0,13921,12690,11653,12073,42580,4
0.0,0.0,0.0,13906,12438,11553,11983,42349,4
0.0,0.0,0.0,13921,12280,11515,11804,42673,4
0.0,0.0,0.0,13892,12241,11490,11754,42812,4
0.0,0.0,0.0,13849,12267,11354,11553,42766,4
0.0,0.0,0.0,13863,12228,11219,11416,42719,4
0.0,0.0,0.0,13821,12241,11231,11403,42626,4
0.0,0.0,0.0,13821,12346,11280,11403,42488,4
0.0,0.0,0.0,13806,12411,11329,11416,42580,4
0.0,0.0,0.0,13792,12477,11416,11428,42442,4
0.0,0.0,0.0,13806,12636,11416,11403,42488,4
0.0,0.0,0.0,13821,12743,11503,11503,42442,4
0.0,0.0,0.0,13849,12851,11528,11565,42304,4
0.0,0.0,0.0,13849,12797,11503,11703,42212,4
0.0,0.0,0.0,13849,12824,11503,11716,42120,4
0.0,0.0,0.0,13849,12851,11503,11754,41938,4
0.0,0.0,0.0,13849,12797,11478,11741,41938,4
0.0,0.0,0.0,13821,12864,11478,11665,41938,4
0.0,0.0,0.0,13849,12824,11465,11628,41667,4
0.0,0.0,0.0,13863,12905,11478,11603,41667,4
0.0,0.0,0.0,13863,12932,11478,11603,41577,4
0.0,0.0,0.0,13906,12905,11453,11553,41667,4
0.0,0.0,0.0,13878,12905,11403,11490,41757,4
0.0,0.0,0.0,13906,12824,11391,11465,41757,4
0.0,0.0,0.0,13878,12797,11354,11453,41044,4
0.0,0.0,0.0,13921,12797,11317,11403,41000,4
0.0,0.0,0.0,14079,12797,11304,11403,41848,4
0.0,0.0,0.0,14036,12797,11255,11428,41757,4
0.0,0.0,0.0,14036,12756,11255,11379,41443,4
0.0,0.0,0.0,14050,12743,11243,11428,41309,4
0.0,0.0,0.0,14050,12690,11243,11453,41399,4
0.0,0.0,0.0,14021,12716,11206,11403,41443,4
0.0,0.0,0.0,14050,12730,11182,11391,41221,4
0.0,0.0,0.0,14021,12730,11157,11354,41132,4
0.0,0.0,0.0,14021,12716,11182,11354,41044,4
0.0,0.0,0.0,14021,12730,11157,11341,41000,4
0.0,0.0,0.0,14021,12743,11157,11329,40780,4
0.0,0.0,0.0,13992,12797,11157,11317,40780,4
0.0,0.0,0.0,14036,12824,11182,11354,40605,4
0.0,0.0,0.0,13978,12824,11157,11354,40605,4
0.0,0.0,0.0,14036,12851,11182,11329,40605,4
0.0,0.0,0.0,14021,12878,11206,11354,40519,4
0.0,0.0,0.0,14036,12932,11182,11317,40432,4
0.0,0.0,0.0,14036,12864,11182,11329,40605,4
0.0,0.0,0.0,14021,12851,11219,11304,40519,4
0.0,0.0,0.0,14064,12905,11268,11304,40605,4
0.0,0.0,0.0,14036,12824,11304,11304,40649,4
0.0,0.0,0.0,14021,12756,11268,11304,40605,4
0.0,0.0,0.0,14021,12878,11304,11304,40605,4
0.0,0.0,0.0,14007,13027,11403,11354,40780,4
0.0,0.0,0.0,14021,13040,11366,11329,40780,4
0.0,0.0,0.0,14021,13177,11354,11354,40605,4
0.0,0.0,0.0,13992,13136,11354,11317,40605,4
0.0,0.0,0.0,13964,13246,11354,11317,40389,4
0.0,0.0,0.0,14036,13496,11391,11354,40649,4
0.0,0.0,0.0,14050,13921,11553,11379,40432,4
0.0,0.0,0.0,14036,14050,11653,11403,40475,4
0.0,0.0,0.0,14021,13806,11603,11403,40259,4
0.0,0.0,0.0,13992,13510,11515,11403,40173,4
0.0,0.0,0.0,14007,13343,11453,11366,40088,4
0.0,0.0,0.0,14021,13177,11416,11329,40173,4
0.0,0.0,0.0,13992,13163,11653,11354,40173,4
0.0,0.0,0.0,14021,13136,11691,11292,40389,4
0.0,0.0,0.0,14079,13232,11716,11366,40346,4
0.0,0.0,0.0,14079,13301,11703,11354,40173,4
0.0,0.0,0.0,14079,13371,11665,11329,40173,4
0.0,0.0,0.0,14108,13287,11603,11255,40302,4
0.0,0.0,0.0,14108,13343,11653,11231,40389,4
0.0,0.0,0.0,14108,13384,11678,11304,40389,4
0.0,0.0,0.0,14093,13384,11665,11354,40216,4
0.0,0.0,0.0,14122,13510,11703,11403,40346,4
0.0,0.0,0.0,14108,13566,11703,11453,40259,4
0.0,0.0,0.0,14282,13679,11754,11515,41399,4
0.0,0.0,0.0,14399,13906,11830,11553,41577,4
0.0,0.0,0.0,14355,13964,11868,11528,41399,4
0.0,0.0,0.0,14326,13935,11804,11478,41132,4
0.0,0.0,0.0,14326,13665,11665,11453,41132,4
0.0,0.0,0.0,14311,13343,11553,11366,40955,4
0.0,0.0,0.0,14355,13122,11428,11304,41044,4
0.0,0.0,0.0,14326,13068,11403,11231,40868,4
0.0,0.0,0.0,14326,13095,11366,11194,40693,4
0.0,0.0,0.0,14311,13260,11416,11182,40432,4
0.0,0.0,0.0,14311,13384,11490,11182,40346,4
0.0,0.0,0.0,14311,13371,11503,11182,40389,4
0.0,0.0,0.0,14311,13454,11528,11170,40432,4
0.0,0.0,0.0,14297,13594,11578,11206,40302,4
0.0,0.0,0.0,14311,13566,11590,11206,40173,4
0.0,0.0,0.0,14311,13622,11615,11206,40346,4
0.0,0.0,0.0,14311,13566,11603,11231,40259,4
0.0,0.0,0.0,14311,13622,11603,11255,40173,4
0.0,0.0,0.0,14311,13650,11578,11317,40173,4
0.0,0.0,0.0,14311,13679,11578,11354,40045,4
0.0,0.0,0.0,14311,13679,11565,11428,40002,4
0.0,0.0,0.0,14268,13679,11578,11453,40002,4
0.0,0.0,0.0,14311,13665,11565,11453,39960,4
0.0,0.0,0.0,14341,13693,11578,11453,40045,4
0.0,0.0,0.0,14326,13735,11628,11503,39917,4
0.0,0.0,0.0,14326,13735,11603,11465,39960,4
0.0,0.0,0.0,14311,13764,11615,11478,39832,4
0.0,0.0,0.0,14326,13764,11640,11503,39874,4
0.0,0.0,0.0,14326,13749,11615,11553,39747,4
0.0,0.0,0.0,14311,13749,11615,11553,39663,4
0.0,0.0,0.0,14326,13792,11628,11578,39411,4
0.0,0.0,0.0,14399,13792,11615,11703,39327,4
0.0,0.0,0.0,14429,13821,11603,11703,39327,4
0.0,0.0,0.0,14429,13821,11603,11703,39327,4
0.0,0.0,0.0,14429,13849,11603,11653,39494,4
0.0,0.0,0.0,14429,13821,11653,11678,39327,4
0.0,0.0,0.0,14429,13806,11640,11678,39411,4
0.0,0.0,0.0,14399,13749,11628,11653,39327,4
0.0,0.0,0.0,14429,13693,11603,11628,39327,4
0.0,0.0,0.0,14370,13260,11354,11478,39536,4
0.0,0.0,0.0,14282,12797,11109,11354,39663,4
0.0,0.0,0.0,14166,12424,10867,11255,39663,4
0.0,0.0,0.0,13964,12034,10676,11182,39578,4
0.0,0.0,0.0,13878,11855,10582,11133,39244,4
0.0,0.0,0.0,13806,11766,10511,11121,39119,4
0.0,0.0,0.0,13735,11754,10464,11109,38748,4
0.0,0.0,0.0,13764,11906,10464,11084,38748,4
0.0,0.0,0.0,13749,12009,10488,11072,38666,4
0.0,0.0,0.0,13849,12293,10582,11109,38666,4
0.0,0.0,0.0,13863,12636,10653,11072,38544,4
0.0,0.0,0.0,13949,12878,10759,11072,38995,4
0.0,0.0,0.0,13964,12810,10795,11084,38748,4
0.0,0.0,0.0,13906,12320,10748,11084,38666,4
0.0,0.0,0.0,13849,12150,10653,11060,38503,4
0.0,0.0,0.0,13863,12215,10653,11060,38503,4
0.0,0.0,0.0,13949,12530,10724,11060,38789,4
0.0,0.0,0.0,13992,13260,11024,11109,39077,4
0.0,0.0,0.0,14021,13468,11157,11157,38995,4
0.0,0.0,0.0,14050,13510,11206,11157,38830,4
0.0,0.0,0.0,14021,13496,11170,11133,38748,4
0.0,0.0,0.0,14021,13510,11206,11157,38666,4
0.0,0.0,0.0,14050,13510,11170,11157,38463,4
0.0,0.0,0.0,14050,13524,11182,11157,38585,4
0.0,0.0,0.0,14064,13524,11157,11157,38585,4
0.0,0.0,0.0,14079,13566,11170,11170,38503,4
0.0,0.0,0.0,14079,13580,11157,11182,38544,4
0.0,0.0,0.0,14050,13538,11182,11206,38422,4
0.0,0.0,0.0,14079,13510,11157,11231,38585,4
0.0,0.0,0.0,14079,13538,11157,11231,38463,4
0.0,0.0,0.0,14079,13594,11157,11219,38422,4
0.0,0.0,0.0,14050,13580,11157,11255,38503,4
0.0,0.0,0.0,14079,13566,11157,11231,38341,4
0.0,0.0,0.0,14036,13580,11157,11255,38422,4
0.0,0.0,0.0,14079,13622,11157,11255,38463,4
0.0,0.0,0.0,14036,13622,11157,11255,38463,4
0.0,0.0,0.0,14050,13622,11157,11255,38422,4
0.0,0.0,0.0,14079,13580,11157,11304,38100,4
0.0,0.0,0.0,14108,13650,11157,11280,37269,4
0.0,0.0,0.0,14370,13707,11145,11341,38180,4
0.0,0.0,0.0,14370,13792,11194,11379,38220,4
0.0,0.0,0.0,14326,13707,11182,11354,38341,4
0.0,0.0,0.0,14282,13608,11157,11379,38341,4
0.0,0.0,0.0,14224,13287,11048,11379,38503,4
0.0,0.0,0.0,14108,12891,10891,11329,38341,4
0.0,0.0,0.0,14036,12372,10712,11255,38260,4
0.0,0.0,0.0,13849,11855,10511,11182,38100,4
0.0,0.0,0.0,13707,11515,10313,11133,37860,4
0.0,0.0,0.0,13566,11354,10163,11133,37701,4
0.0,0.0,0.0,13454,11255,9901,11133,37465,4
0.0,0.0,0.0,13384,11255,9912,11121,37347,4
0.0,0.0,0.0,13412,11329,9946,11133,37269,4
0.0,0.0,0.0,13412,11403,9980,11109,37036,4
0.0,0.0,0.0,13426,11478,10037,11109,36843,4
0.0,0.0,0.0,13412,11453,10049,11109,36998,4
0.0,0.0,0.0,13398,11391,10117,11109,36767,4
0.0,0.0,0.0,13398,11403,10209,11084,36538,4
0.0,0.0,0.0,13510,11553,10278,11060,36920,4
0.0,0.0,0.0,13510,11779,10418,11060,36690,4
0.0,0.0,0.0,13580,12176,10605,11084,36805,4
0.0,0.0,0.0,13792,12663,10963,11060,37152,4
0.0,0.0,0.0,13906,12743,11012,11024,37191,4
0.0,0.0,0.0,13906,12743,10987,11060,37075,4
0.0,0.0,0.0,13921,12743,10915,11109,36920,4
0.0,0.0,0.0,13964,12716,10867,11255,36920,4
0.0,0.0,0.0,13964,12703,10819,11280,36767,4
0.0,0.0,0.0,13978,12649,10748,11317,36843,4
0.0,0.0,0.0,13964,12649,10724,11317,36920,4
0.0,0.0,0.0,13921,12636,10724,11304,36767,4
0.0,0.0,0.0,13906,12623,10700,11304,36690,4
0.0,0.0,0.0,13821,12716,10688,11317,36499,4
0.0,0.0,0.0,13821,12477,10570,11317,36998,4
0.0,0.0,0.0,13806,12021,10546,11354,36882,4
0.0,0.0,0.0,13821,11881,10641,11403,36767,4
0.0,0.0,0.0,13792,11906,10676,11354,36690,4
0.0,0.0,0.0,13749,11932,10676,11304,36538,4
0.0,0.0,0.0,13735,11868,10629,11280,36576,4
0.0,0.0,0.0,13735,11855,10724,11268,36462,4
0.0,0.0,0.0,13806,12477,11354,11553,36614,4
0.0,0.0,0.0,13863,12986,11653,11817,36690,4
0.0,0.0,0.0,13878,12797,11628,11728,36843,4
0.0,0.0,0.0,13964,12743,11603,11703,36690,4
0.0,0.0,0.0,14050,12690,11603,11665,36652,4
0.0,0.0,0.0,14137,12649,11653,11640,36576,4
0.0,0.0,0.0,14195,12663,11628,11628,36614,4
0.0,0.0,0.0,14253,12530,11578,11603,36690,4
0.0,0.0,0.0,14166,12385,11503,11565,36767,4
0.0,0.0,0.0,14050,12189,11354,11528,37075,4
0.0,0.0,0.0,13935,11919,11109,11453,37075,4
0.0,0.0,0.0,13849,11703,10927,11453,37114,4
0.0,0.0,0.0,13707,11540,10795,11403,36805,4
0.0,0.0,0.0,13580,11403,10700,11379,36690,4
0.0,0.0,0.0,13524,11354,10605,11354,36462,4
0.0,0.0,0.0,13510,11304,10570,11329,36348,4
0.0,0.0,0.0,13482,11304,10558,11304,36197,4
0.0,0.0,0.0,13482,11329,10546,11304,36160,4
0.0,0.0,0.0,13510,11416,10629,11304,36085,4
0.0,0.0,0.0,13510,11478,10676,11280,36085,4
0.0,0.0,0.0,13524,11528,10688,11280,36235,4
0.0,0.0,0.0,13566,11565,10724,11255,36047,4
0.0,0.0,0.0,13538,11615,10748,11255,36010,4
0.0,0.0,0.0,13650,11716,10748,11255,36122,4
0.0,0.0,0.0,13566,11957,10879,11255,36197,4
0.0,0.0,0.0,13650,12398,11280,11304,36386,4
0.0,0.0,0.0,13735,12690,11528,11354,36386,4
0.0,0.0,0.0,13906,12986,11703,11379,36538,4
0.0,0.0,0.0,13964,13301,12021,11465,36614,4
0.0,0.0,0.0,14108,13622,12320,11578,36767,4
0.0,0.0,0.0,14166,13679,12346,11640,36843,4
0.0,0.0,0.0,14195,13693,12293,11703,36652,4
0.0,0.0,0.0,14137,13749,12306,11703,36462,4
0.0,0.0,0.0,14166,13935,12477,11779,36499,4
0.0,0.0,0.0,14166,14050,12636,11919,36538,4
0.0,0.0,0.0,14166,14021,12543,11957,36462,4
0.0,0.0,0.0,14195,14021,12570,11957,36424,4
0.0,0.0,0.0,14151,14050,12583,11957,36386,4
0.0,0.0,0.0,14166,14021,12543,11957,36272,4
0.0,0.0,0.0,14151,14064,12583,11983,36235,4
0.0,0.0,0.0,14166,14036,12556,11957,36235,4
0.0,0.0,0.0,14195,14021,12530,11957,36348,4
0.0,0.0,0.0,14180,14021,12477,12009,36235,4
0.0,0.0,0.0,14166,14021,12438,12021,36160,4
0.0,0.0,0.0,14137,14021,12424,12060,36197,4
0.0,0.0,0.0,14195,13978,12424,12060,36272,4
0.0,0.0,0.0,14151,13992,12451,12021,36160,4
0.0,0.0,0.0,14166,14021,12451,12034,36160,4
0.0,0.0,0.0,14166,14079,12477,11804,36310,4
0.0,0.0,0.0,14326,14195,12346,11603,36728,4
0.0,0.0,0.0,14326,14282,12320,11478,36499,4
0.0,0.0,0.0,14282,14253,12320,11515,36462,4
0.0,0.0,0.0,14268,14079,12241,11703,36386,4
0.0,0.0,0.0,14253,13964,12124,11678,36310,4
0.0,0.0,0.0,14282,14021,12124,11653,36160,4
0.0,0.0,0.0,14311,14036,12112,11703,36085,4
0.0,0.0,0.0,14253,14036,12060,11804,36010,4
0.0,0.0,0.0,14282,13992,12086,11817,36085,4
0.0,0.0,0.0,14253,14050,12073,11716,36160,4
0.0,0.0,0.0,14195,14079,11957,11615,36843,4
0.0,0.0,0.0,14137,13849,11603,11465,37114,4
0.0,0.0,0.0,13964,12851,11219,11354,37426,4
0.0,0.0,0.0,13806,12073,10987,11206,36920,4
0.0,0.0,0.0,13735,11881,10963,11182,36235,4
0.0,0.0,0.0,13778,11804,10963,11182,36235,4
0.0,0.0,0.0,13735,11804,10999,11206,36160,4
0.0,0.0,0.0,13735,11817,11024,11268,35418,4
0.0,0.0,0.0,13792,11868,11109,11354,35455,4
0.0,0.0,0.0,13806,11932,11096,11354,35565,4
0.0,0.0,0.0,13835,12009,11182,11317,35418,4
0.0,0.0,0.0,13863,12086,11304,11317,35712,4
0.0,0.0,0.0,13878,12099,11329,11304,35787,4
0.0,0.0,0.0,13906,12320,11416,11354,35861,4
0.0,0.0,0.0,13992,12385,11428,11453,35861,4
0.0,0.0,0.0,13935,12424,11440,11403,36010,4
0.0,0.0,0.0,13964,12504,11428,11379,36010,4
0.0,0.0,0.0,13935,12385,11403,11354,35898,4
0.0,0.0,0.0,13964,12372,11317,11280,35972,4
0.0,0.0,0.0,13935,12346,11317,11255,35787,4
0.0,0.0,0.0,13978,12280,11304,11255,35972,4
0.0,0.0,0.0,13978,12306,11341,11255,36197,4
0.0,0.0,0.0,14050,12320,11578,11268,36998,4
0.0,0.0,0.0,14224,12530,11817,11255,36499,4
0.0,0.0,0.0,14166,12451,11804,11255,36235,4
0.0,0.0,0.0,14151,12451,11779,11219,36235,4
0.0,0.0,0.0,14137,12451,11792,11268,36348,4
0.0,0.0,0.0,14122,12530,11817,11231,36310,4
0.0,0.0,0.0,14137,12596,11906,11268,36576,4
0.0,0.0,0.0,14151,12556,11881,11280,36462,4
0.0,0.0,0.0,14151,12556,11906,11292,36310,4
0.0,0.0,0.0,14195,12543,11855,11304,36235,4
0.0,0.0,0.0,14137,12583,11804,11304,36047,4
0.0,0.0,0.0,14137,12543,11779,11280,36047,4
0.0,0.0,0.0,14137,12556,11754,11268,36085,4
0.0,0.0,0.0,14108,12583,11754,11317,36085,4
0.0,0.0,0.0,14108,12583,11766,11304,36085,4
0.0,0.0,0.0,14122,12610,11766,11292,36010,4
0.0,0.0,0.0,14137,12636,11766,11317,36085,4
0.0,0.0,0.0,14108,12649,11754,11317,36010,4
0.0,0.0,0.0,14108,12703,11754,11304,36047,4
0.0,0.0,0.0,14137,12703,11766,11304,36160,4
0.0,0.0,0.0,14137,12743,11766,11304,36010,4
0.0,0.0,0.0,14151,12743,11754,11317,35861,4
0.0,0.0,0.0,14122,12797,11792,11304,35898,4
0.0,0.0,0.0,14137,12851,11779,11304,35935,4
0.0,0.0,0.0,14195,12891,11766,11317,35935,4
0.0,0.0,0.0,14195,12932,11779,11317,35972,4
0.0,0.0,0.0,14209,13013,11779,11317,36085,4
0.0,0.0,0.0,14253,13081,11804,11317,36424,4
0.0,0.0,0.0,14282,13205,11842,11317,36920,4
0.0,0.0,0.0,14385,13315,11855,11329,37622,4
0.0,0.0,0.0,14562,13371,11830,11329,39411,4
0.0,0.0,0.0,14666,13371,11804,11403,39832,4
0.0,0.0,0.0,14786,13440,11804,11453,39832,4
0.0,0.0,0.0,14907,13482,11830,11416,38830,4
0.0,0.0,0.0,15028,13566,11855,11478,38341,4
0.0,0.0,0.0,14982,13622,11817,11678,39369,4
0.0,0.0,0.0,14756,13594,11792,11830,40912,4
0.0,0.0,0.0,14607,13510,11779,12009,42580,4
0.0,0.0,0.0,14429,13301,11716,12438,43615,4
0.0,0.0,0.0,14224,13095,11653,12743,44291,4
0.0,0.0,0.0,13992,12905,11553,12959,45483,4
0.0,0.0,0.0,13949,12797,11528,13013,45231,4
0.0,0.0,0.0,13821,12783,11515,13013,44782,4
0.0,0.0,0.0,13679,12797,11515,12905,44733,4
0.0,0.0,0.0,13622,13027,11653,12905,44782,4
0.0,0.0,0.0,13735,13343,12009,12945,43903,4
0.0,0.0,0.0,14151,13287,12112,12918,44048,4
0.0,0.0,0.0,14253,13232,12086,12959,45736,4
0.0,0.0,0.0,14224,13122,12009,12810,47353,4
0.0,0.0,0.0,14166,12959,11855,12398,46770,4
0.0,0.0,0.0,14137,12905,11716,12009,46249,4
0.0,0.0,0.0,14050,12851,11678,11830,45635,4
0.0,0.0,0.0,14021,12596,11603,11703,45181,4
0.0,0.0,0.0,13906,12424,11553,11603,44585,4
0.0,0.0,0.0,13964,12267,11553,11578,43903,4
0.0,0.0,0.0,13964,12320,11628,11565,43711,4
0.0,0.0,0.0,13992,12346,11678,11565,43567,4
0.0,0.0,0.0,14108,12385,11678,11578,43519,4
0.0,0.0,0.0,14166,12504,11792,11628,43329,4
0.0,0.0,0.0,14268,12690,11932,11779,43472,4
0.0,0.0,0.0,14253,12716,11983,11779,43329,4
0.0,0.0,0.0,14268,12743,11983,11804,43188,4
0.0,0.0,0.0,14311,12851,12009,11804,43093,4
0.0,0.0,0.0,14429,12972,12189,11906,43235,4
0.0,0.0,0.0,14577,13040,12228,11957,43046,4
0.0,0.0,0.0,14592,13068,12241,11983,42953,4
0.0,0.0,0.0,14577,13081,12267,12060,43046,4
0.0,0.0,0.0,14577,13136,12293,12060,42953,4
0.0,0.0,0.0,14592,13095,12333,12073,43000,4
0.0,0.0,0.0,14592,13122,12320,12060,43046,4
0.0,0.0,0.0,14562,13013,12228,12009,42766,4
0.0,0.0,0.0,14518,12959,12099,11868,42488,4
0.0,0.0,0.0,14503,12690,11868,11779,42488,4
0.0,0.0,0.0,14444,12543,11703,11628,42212,4
0.0,0.0,0.0,14399,12530,11754,11603,42166,4
0.0,0.0,0.0,14399,12649,11855,11603,42120,4
0.0,0.0,0.0,14503,13150,12464,11766,42488,4
0.0,0.0,0.0,14547,13122,12280,11804,42075,4
0.0,0.0,0.0,14518,13122,12320,11830,41984,4
0.0,0.0,0.0,14473,13150,12346,11868,41848,4
0.0,0.0,0.0,14547,13136,12320,11855,41757,4
0.0,0.0,0.0,14547,12986,12150,11830,41712,4
0.0,0.0,0.0,14488,12636,11653,11603,41577,4
0.0,0.0,0.0,14370,12124,11121,11366,42580,4
0.0,0.0,0.0,14209,11881,10795,11255,43093,4
0.0,0.0,0.0,14137,11754,10676,11206,42719,4
0.0,0.0,0.0,14050,11703,10535,11170,42580,4
0.0,0.0,0.0,14021,11665,10441,11157,42395,4
0.0,0.0,0.0,14021,11590,10418,11157,42166,4
0.0,0.0,0.0,13992,11615,10464,11109,41938,4
0.0,0.0,0.0,13978,11603,10453,11060,41848,4
0.0,0.0,0.0,13964,11578,10464,11084,41667,4
0.0,0.0,0.0,13992,11603,10441,11060,41577,4
0.0,0.0,0.0,13964,11653,10464,11072,41533,4
0.0,0.0,0.0,13964,11678,10488,11060,41622,4
0.0,0.0,0.0,13964,11703,10488,11084,41577,4
0.0,0.0,0.0,13978,11716,10488,11084,41577,4
0.0,0.0,0.0,13964,11906,10605,11109,41488,4
0.0,0.0,0.0,13978,12176,10724,11084,41622,4
0.0,0.0,0.0,14036,12267,10831,11109,41488,4
0.0,0.0,0.0,14036,12215,10843,11109,41757,4
0.0,0.0,0.0,14021,12267,10915,11121,41848,4
0.0,0.0,0.0,14021,12280,10915,11133,41712,4
0.0,0.0,0.0,14050,12320,10879,11109,41399,4
0.0,0.0,0.0,14021,12424,10879,11121,41176,4
0.0,0.0,0.0,14050,12504,10927,11157,41044,4
0.0,0.0,0.0,14050,12530,10927,11157,41044,4
0.0,0.0,0.0,14079,12596,10927,11206,40824,4
0.0,0.0,0.0,14166,12690,10939,11231,41088,4
0.0,0.0,0.0,14137,12743,10963,11206,40868,4
0.0,0.0,0.0,14166,12905,11072,11243,40868,4
0.0,0.0,0.0,14209,12999,11157,11255,40912,4
0.0,0.0,0.0,14253,13040,11157,11255,40912,4
0.0,0.0,0.0,14282,13040,11170,11268,40693,4
0.0,0.0,0.0,14311,13013,11157,11268,40562,4
0.0,0.0,0.0,14311,13013,11133,11280,40432,4
0.0,0.0,0.0,14282,13081,11170,11255,40693,4
0.0,0.0,0.0,14311,13205,11255,11304,40780,4
0.0,0.0,0.0,14370,13260,11354,11304,40868,4
0.0,0.0,0.0,14370,13287,11354,11317,40173,4
0.0,0.0,0.0,14429,13232,11304,11317,40432,4
0.0,0.0,0.0,14562,13384,11366,11354,41132,4
0.0,0.0,0.0,14756,13468,11478,11403,41443,4
0.0,0.0,0.0,15074,13552,11553,11453,42349,4
0.0,0.0,0.0,15165,13468,11553,11553,43000,4
0.0,0.0,0.0,15013,13384,11490,11678,43424,4
0.0,0.0,0.0,14621,13232,11317,11881,44193,4
0.0,0.0,0.0,14385,13081,11280,12267,44981,4
0.0,0.0,0.0,14137,12905,11157,12690,45533,4
0.0,0.0,0.0,14166,13068,11157,12932,45281,4
0.0,0.0,0.0,14385,13371,11255,12918,45992,4
0.0,0.0,0.0,14518,13343,11354,12797,45685,4
0.0,0.0,0.0,14503,13191,11304,12905,45992,4
0.0,0.0,0.0,14370,13122,11280,12824,47140,4
0.0,0.0,0.0,14253,12905,11109,12530,47299,4
0.0,0.0,0.0,14079,12610,10927,12060,46301,4
0.0,0.0,0.0,13992,12451,10795,11716,45584,4
0.0,0.0,0.0,13906,12346,10653,11490,44389,4
0.0,0.0,0.0,13835,12320,10546,11354,44048,4
0.0,0.0,0.0,13764,12189,10464,11329,43711,4
0.0,0.0,0.0,13735,12163,10406,11304,43282,4
0.0,0.0,0.0,13735,12215,10441,11304,42859,4
0.0,0.0,0.0,13778,12267,10488,11268,41938,4
0.0,0.0,0.0,13849,12438,10629,11280,41667,4
0.0,0.0,0.0,13906,12477,10748,11304,41309,4
0.0,0.0,0.0,13906,12570,10795,11354,40519,4
0.0,0.0,0.0,13906,12636,10819,11440,39790,4
0.0,0.0,0.0,13863,12636,10867,11416,38871,4
0.0,0.0,0.0,13849,12596,10963,11478,37701,4
0.0,0.0,0.0,13821,12596,11048,11528,36538,4
0.0,0.0,0.0,13749,12543,11012,11515,35861,4
0.0,0.0,0.0,13693,12477,10951,11515,35861,4
0.0,0.0,0.0,13622,12293,10819,11503,35272,4
0.0,0.0,0.0,13510,11957,10605,11354,34839,4
0.0,0.0,0.0,13454,11528,10441,11219,34910,4
0.0,0.0,0.0,13357,11206,10140,11170,34839,4
0.0,0.0,0.0,13301,10867,9833,11109,34982,4
0.0,0.0,0.0,13177,10582,9643,11072,34767,4
0.0,0.0,0.0,13068,10499,9621,11072,34271,4
0.0,0.0,0.0,13040,10488,9621,11060,33921,4
0.0,0.0,0.0,13013,10441,9621,11048,34060,4
0.0,0.0,0.0,12972,10418,9621,11024,33783,4
0.0,0.0,0.0,12959,10441,9621,11012,33991,4
0.0,0.0,0.0,12932,10453,9621,11024,33887,4
0.0,0.0,0.0,12878,10453,9621,11036,33852,4
0.0,0.0,0.0,12851,10558,9599,11060,34271,4
0.0,0.0,0.0,12851,10605,9621,11072,34376,4
0.0,0.0,0.0,12864,10605,9621,11096,34271,4
0.0,0.0,0.0,12824,10605,9621,11084,33991,4
0.0,0.0,0.0,12797,10594,9621,11072,34447,4
0.0,0.0,0.0,12783,10617,9621,11060,34200,4
0.0,0.0,0.0,12756,10605,9610,11012,33921,4
0.0,0.0,0.0,12743,10582,9621,11012,34130,4
0.0,0.0,0.0,12756,10546,9621,11024,33783,4
0.0,0.0,0.0,12730,10535,9632,11012,33887,4
0.0,0.0,0.0,12690,10558,9632,11012,34060,4
0.0,0.0,0.0,12703,10594,9621,10999,33991,4
0.0,0.0,0.0,12703,10629,9621,11036,34060,4
0.0,0.0,0.0,12743,10676,9621,11012,34271,4
0.0,0.0,0.0,12797,10676,9621,11024,34165,4
0.0,0.0,0.0,12810,10748,9610,11024,33852,4
0.0,0.0,0.0,12797,10795,9621,11024,33576,4
0.0,0.0,0.0,12783,10855,9632,11060,33645,4
0.0,0.0,0.0,12797,10867,9621,11036,33645,4
0.0,0.0,0.0,12797,10867,9621,11060,33337,4
0.0,0.0,0.0,12851,10867,9621,11060,33269,4
0.0,0.0,0.0,12864,10819,9621,11048,33303,4
0.0,0.0,0.0,12851,10867,9621,11060,33168,4
0.0,0.0,0.0,12864,10843,9632,11060,33168,4
0.0,0.0,0.0,12878,11060,9811,11048,33337,4
0.0,0.0,0.0,12905,11109,10049,11060,33371,4
0.0,0.0,0.0,12905,11109,10083,11060,33474,4
0.0,0.0,0.0,12851,11206,10094,11060,33168,4
0.0,0.0,0.0,12851,11317,10071,11060,32999,4
0.0,0.0,0.0,12810,11453,10071,11096,33168,4
0.0,0.0,0.0,12878,11503,10209,11133,33168,4
0.0,0.0,0.0,12878,11528,10394,11182,33337,4
0.0,0.0,0.0,12918,11465,10394,11219,33439,4
0.0,0.0,0.0,12932,11403,10394,11231,33168,4
0.0,0.0,0.0,12905,11403,10418,11219,33236,4
0.0,0.0,0.0,12905,11354,10441,11206,33100,4
0.0,0.0,0.0,12864,11329,10499,11182,33100,4
0.0,0.0,0.0,12905,11379,10582,11206,33236,4
0.0,0.0,0.0,12945,11490,10676,11194,33303,4
0.0,0.0,0.0,12959,11565,10676,11206,33168,4
0.0,0.0,0.0,12972,11540,10700,11206,33202,4
0.0,0.0,0.0,12932,11528,10688,11206,33269,4
0.0,0.0,0.0,12972,11615,10676,11194,33236,4
0.0,0.0,0.0,12972,11754,10688,11206,33168,4
0.0,0.0,0.0,13013,11893,10748,11231,33033,4
0.0,0.0,0.0,13013,11932,10748,11206,32966,4
0.0,0.0,0.0,13013,11932,10748,11231,33033,4
0.0,0.0,0.0,12999,11906,10736,11182,33033,4
0.0,0.0,0.0,13013,11906,10724,11219,32966,4
0.0,0.0,0.0,13013,11881,10700,11206,33100,4
0.0,0.0,0.0,12959,11754,10605,11255,33134,4
0.0,0.0,0.0,12932,11703,10546,11255,33168,4
0.0,0.0,0.0,12905,11653,10499,11280,33202,4
0.0,0.0,0.0,12959,11565,10453,11268,33168,4
0.0,0.0,0.0,12932,11478,10441,11304,33269,4
0.0,0.0,0.0,12918,11453,10418,11292,33236,4
0.0,0.0,0.0,12932,11453,10429,11304,33168,4
0.0,0.0,0.0,12932,11453,10441,11219,32899,4
0.0,0.0,0.0,12959,11528,10535,11231,32899,4
0.0,0.0,0.0,12972,11703,10641,11206,32832,4
0.0,0.0,0.0,13081,12517,11182,11317,33269,4
0.0,0.0,0.0,13274,13371,11779,11553,33508,4
0.0,0.0,0.0,13357,13524,11906,11779,33439,4
0.0,0.0,0.0,13357,13357,11855,11804,33576,4
0.0,0.0,0.0,13371,13343,11881,11779,33439,4
0.0,0.0,0.0,13412,13343,11906,11804,33371,4
0.0,0.0,0.0,13343,13246,11957,11868,33371,4
0.0,0.0,0.0,13287,13122,12009,11906,33371,4
0.0,0.0,0.0,13343,13068,11957,11881,33303,4
0.0,0.0,0.0,13287,12986,11932,11855,33168,4
0.0,0.0,0.0,13260,12972,11919,11855,33100,4
0.0,0.0,0.0,13246,12959,11906,11868,33100,4
0.0,0.0,0.0,13315,12986,11881,11881,32966,4
0.0,0.0,0.0,13301,13013,11830,11906,32966,4
0.0,0.0,0.0,13329,12999,11881,11893,33033,4
0.0,0.0,0.0,13343,13068,11919,11906,32966,4
0.0,0.0,0.0,13371,13040,11970,12021,33033,4
0.0,0.0,0.0,13412,13081,12189,12086,33100,4
0.0,0.0,0.0,13412,13163,12477,12112,32966,4
0.0,0.0,0.0,13412,13150,13013,12320,33168,4
0.0,0.0,0.0,13454,13150,13287,12451,33168,4
0.0,0.0,0.0,13440,13150,13371,12385,33100,4
0.0,0.0,0.0,13412,13150,13343,12346,32966,4
0.0,0.0,0.0,13398,13122,13510,12346,32500,4
0.0,0.0,0.0,13735,13301,13510,12530,33100,4
0.0,0.0,0.0,14108,13412,13150,12690,34412,4
0.0,0.0,0.0,14021,13594,12851,12756,33991,4
0.0,0.0,0.0,14064,13650,12797,12959,33921,4
0.0,0.0,0.0,14036,13622,12824,13040,33921,4
0.0,0.0,0.0,14021,13594,12918,13232,33748,4
0.0,0.0,0.0,14050,13552,13013,13315,33852,4
0.0,0.0,0.0,14007,13580,13246,13510,33611,4
0.0,0.0,0.0,14064,13580,13357,13622,33645,4
0.0,0.0,0.0,14050,13650,13510,14399,33714,4
0.0,0.0,0.0,13992,13594,13594,14982,33508,4
0.0,0.0,0.0,13992,13594,13594,15366,33337,4
0.0,0.0,0.0,13992,13566,13510,15397,33337,4
0.0,0.0,0.0,13964,13594,13510,15521,33202,4
0.0,0.0,0.0,13964,13566,13496,15459,33303,4
0.0,0.0,0.0,13906,13566,13468,15475,33067,4
0.0,0.0,0.0,13863,13566,13426,15710,33033,4
0.0,0.0,0.0,13964,13566,13343,15678,33168,4
0.0,0.0,0.0,13992,13650,13301,15335,33202,4
0.0,0.0,0.0,13992,13622,13205,15196,33168,4
0.0,0.0,0.0,13935,13622,13068,15150,33269,4
0.0,0.0,0.0,13935,13679,13040,15104,33168,4
0.0,0.0,0.0,13964,13679,13054,15150,33134,4
0.0,0.0,0.0,13892,13636,13260,15459,32966,4
0.0,0.0,0.0,13906,13679,13566,15773,33033,4
0.0,0.0,0.0,13935,13679,13538,15678,32966,4
0.0,0.0,0.0,13935,13693,13454,15615,33033,4
0.0,0.0,0.0,13935,13650,13412,15584,33033,4
0.0,0.0,0.0,13906,13650,13426,15615,32999,4
0.0,0.0,0.0,13906,13665,13412,15584,32899,4
0.0,0.0,0.0,13878,13636,13398,15837,32633,4
0.0,0.0,0.0,14429,13693,13177,16287,35861,4
0.0,0.0,0.0,14666,13964,12905,15710,37114,4
0.0,0.0,0.0,14370,13964,12878,15537,36010,4
0.0,0.0,0.0,14326,13906,12878,15932,35712,4
0.0,0.0,0.0,14282,13921,12864,16516,35127,4
0.0,0.0,0.0,14122,13792,12716,17016,33576,4
0.0,0.0,0.0,14036,13650,12530,17722,33337,4
0.0,0.0,0.0,14021,13622,12359,17774,33236,4
0.0,0.0,0.0,14021,13622,12280,17634,33303,4
0.0,0.0,0.0,14021,13594,12215,17237,33474,4
0.0,0.0,0.0,14021,13566,12228,16815,33269,4
0.0,0.0,0.0,14021,13622,12320,16815,33303,4
0.0,0.0,0.0,14021,13566,12411,16765,33168,4
0.0,0.0,0.0,14021,13594,12398,16715,33134,4
0.0,0.0,0.0,13992,13580,12438,16748,33134,4
0.0,0.0,0.0,14021,13566,12490,16748,33168,4
0.0,0.0,0.0,14007,13594,12477,16648,33067,4
0.0,0.0,0.0,14036,13608,12477,16648,33033,4
0.0,0.0,0.0,14021,13566,12477,16681,32999,4
0.0,0.0,0.0,13992,13594,12464,16665,33033,4
0.0,0.0,0.0,13964,13566,12477,16648,32966,4
0.0,0.0,0.0,13964,13580,12464,16565,32932,4
0.0,0.0,0.0,13935,13566,12477,16648,32966,4
0.0,0.0,0.0,13935,13679,12543,16615,32932,4
0.0,0.0,0.0,13978,13679,12530,16615,32932,4
0.0,0.0,0.0,13978,13679,12543,16615,32799,4
0.0,0.0,0.0,13964,13650,12530,16385,32899,4
0.0,0.0,0.0,13964,13622,12530,16287,32899,4
0.0,0.0,0.0,13964,13650,12490,16271,32832,4
0.0,0.0,0.0,13964,13636,12477,15773,32899,4
0.0,0.0,0.0,13964,13580,12346,15043,33033,4
0.0,0.0,0.0,13964,13566,12241,14311,33033,4
0.0,0.0,0.0,13964,13510,12124,13849,33100,4
0.0,0.0,0.0,13964,13287,11970,13594,32999,4
0.0,0.0,0.0,13906,13054,11855,13398,33033,4
0.0,0.0,0.0,13906,12756,11703,13287,33067,4
0.0,0.0,0.0,13906,12504,11578,12959,33168,4
0.0,0.0,0.0,13863,12320,11428,12663,32999,4
0.0,0.0,0.0,13806,12346,11354,12530,32799,4
0.0,0.0,0.0,13792,12424,11379,12543,32173,4
0.0,0.0,0.0,13849,12690,11528,12756,32238,4
0.0,0.0,0.0,13849,12783,11503,12810,32303,4
0.0,0.0,0.0,13806,12797,11515,12918,32043,4
0.0,0.0,0.0,13792,12797,11528,13068,32043,4
0.0,0.0,0.0,13778,12810,11503,13232,31849,4
0.0,0.0,0.0,13764,12810,11515,13232,31913,4
0.0,0.0,0.0,13792,12797,11503,13246,31881,4
0.0,0.0,0.0,13764,12878,11528,13232,31978,4
0.0,0.0,0.0,13749,12905,11553,13287,31978,4
0.0,0.0,0.0,13792,12918,11553,13232,32010,4
0.0,0.0,0.0,13778,12905,11553,13246,31978,4
0.0,0.0,0.0,13764,12959,11553,13468,31881,4
0.0,0.0,0.0,13792,13027,11590,13679,31978,4
0.0,0.0,0.0,13764,13081,11553,13693,31849,4
0.0,0.0,0.0,13792,13136,11565,13721,31849,4
0.0,0.0,0.0,13792,13150,11603,13764,31913,4
0.0,0.0,0.0,13792,13122,11603,13906,31849,4
0.0,0.0,0.0,13792,13122,11590,13992,31978,4
0.0,0.0,0.0,13821,13150,11603,14021,31881,4
0.0,0.0,0.0,13806,13136,11565,13978,31785,4
0.0,0.0,0.0,13806,13177,11603,13863,31785,4
0.0,0.0,0.0,13806,13136,11603,13849,31785,4
0.0,0.0,0.0,13792,13136,11615,13849,31881,4
0.0,0.0,0.0,13792,13122,11603,13849,31720,4
0.0,0.0,0.0,13792,13136,11603,13992,31720,4
0.0,0.0,0.0,13792,13122,11603,13992,31624,4
0.0,0.0,0.0,13792,13136,11603,13992,31656,4
0.0,0.0,0.0,13792,13177,11603,13878,31624,4
0.0,0.0,0.0,13806,13122,11578,13792,31656,4
0.0,0.0,0.0,13806,13068,11603,13580,31849,4
0.0,0.0,0.0,13806,12878,11553,13343,31881,4
0.0,0.0,0.0,13792,12797,11553,13315,31849,4
0.0,0.0,0.0,13778,12770,11528,13343,31752,4
0.0,0.0,0.0,13792,12837,11553,13343,31720,4
0.0,0.0,0.0,13792,12837,11553,13343,31624,4
0.0,0.0,0.0,13749,12851,11553,13398,31688,4
0.0,0.0,0.0,13764,12864,11565,13412,31624,4
0.0,0.0,0.0,13764,12959,11578,13426,31624,4
0.0,0.0,0.0,13778,12972,11565,13412,31688,4
0.0,0.0,0.0,13792,12986,11603,13398,31720,4
0.0,0.0,0.0,13792,13068,11640,13510,31785,4
0.0,0.0,0.0,13806,13040,11640,13594,31688,4
0.0,0.0,0.0,13792,13068,11653,13566,31785,4
0.0,0.0,0.0,13764,13068,11653,13608,31720,4
0.0,0.0,0.0,13792,13040,11653,13580,31656,4
0.0,0.0,0.0,13749,13068,11615,13594,31688,4
0.0,0.0,0.0,13735,13068,11653,13679,31593,4
0.0,0.0,0.0,13749,13040,11628,13566,31913,4
0.0,0.0,0.0,13792,13013,11603,13205,32075,4
0.0,0.0,0.0,13792,12851,11453,12636,32500,4
0.0,0.0,0.0,13792,12636,11268,12215,32566,4
0.0,0.0,0.0,13693,12477,11133,11932,32633,4
0.0,0.0,0.0,13693,12424,11096,11754,32666,4
0.0,0.0,0.0,13679,12477,11084,11728,32140,4
0.0,0.0,0.0,13679,12490,11060,11716,32043,4
0.0,0.0,0.0,13679,12530,11084,11716,31913,4
0.0,0.0,0.0,13636,12530,11109,11703,31881,4
0.0,0.0,0.0,13650,12530,11109,11716,31913,4
0.0,0.0,0.0,13650,12610,11157,11779,31624,4
0.0,0.0,0.0,13650,12690,11157,11855,31529,4
0.0,0.0,0.0,13622,12690,11157,11868,31465,4
0.0,0.0,0.0,13650,12716,11157,11906,31370,4
0.0,0.0,0.0,13622,12716,11157,12009,31339,4
0.0,0.0,0.0,13650,12756,11170,12060,31434,4
0.0,0.0,0.0,13636,12770,11182,12086,31370,4
0.0,0.0,0.0,13693,12878,11268,12124,31402,4
0.0,0.0,0.0,13707,12878,11304,12202,31402,4
0.0,0.0,0.0,13707,12878,11304,12267,31402,4
0.0,0.0,0.0,13707,12878,11354,12372,31434,4
0.0,0.0,0.0,13735,12891,11329,12477,31307,4
0.0,0.0,0.0,13721,12891,11354,12610,31213,4
0.0,0.0,0.0,13693,12932,11354,12690,31244,4
0.0,0.0,0.0,13749,12932,11354,12690,31213,4
0.0,0.0,0.0,13749,12905,11379,12716,31087,4
0.0,0.0,0.0,13764,12959,11366,12783,31150,4
0.0,0.0,0.0,13792,12986,11440,12959,31307,4
0.0,0.0,0.0,13806,13054,11503,13013,31339,4
0.0,0.0,0.0,13921,13081,11503,13287,31593,4
0.0,0.0,0.0,13978,13081,11503,13287,31720,4
0.0,0.0,0.0,14021,13177,11553,13384,32435,4
0.0,0.0,0.0,14224,13357,11640,13454,33303,4
0.0,0.0,0.0,14518,13524,11703,13412,34910,4
0.0,0.0,0.0,14967,13792,11817,13398,36085,4
0.0,0.0,0.0,15568,14195,12176,13510,38100,4
0.0,0.0,0.0,16222,14636,12556,13906,41622,4
0.0,0.0,0.0,15996,14577,12649,14503,43759,4
0.0,0.0,0.0,15227,14079,12504,15397,45081,4
0.0,0.0,0.0,15288,14341,12918,16109,45081,4
0.0,0.0,0.0,15521,14518,13301,16287,44782,4
0.0,0.0,0.0,15852,14922,13679,16319,44487,4
0.0,0.0,0.0,16028,14982,13735,16336,44048,4
0.0,0.0,0.0,16109,15227,14166,16352,42120,4
0.0,0.0,0.0,16028,15335,14268,16222,38748,4
0.0,0.0,0.0,15900,15319,14355,16189,37701,4
0.0,0.0,0.0,15980,15537,14607,16287,37662,4
0.0,0.0,0.0,16125,15521,14547,16319,36690,4
0.0,0.0,0.0,16189,15584,14666,16287,36047,4
0.0,0.0,0.0,15996,15273,14341,15916,34946,4
0.0,0.0,0.0,15663,14429,13246,14726,34482,4
0.0,0.0,0.0,16352,13260,11766,13150,34026,4
0.0,0.0,0.0,16615,12663,11391,12385,33645,4
0.0,0.0,0.0,17084,12556,11280,12112,33439,4
0.0,0.0,0.0,17530,11703,10748,11932,33645,4
0.0,0.0,0.0,17986,11121,10325,11792,33611,4
0.0,0.0,0.0,18344,10975,9946,11754,33748,4
0.0,0.0,0.0,18746,10975,9845,11754,33921,4
0.0,0.0,0.0,19099,10987,9845,11766,34412,4
0.0,0.0,0.0,19497,11024,9811,11804,34839,4
0.0,0.0,0.0,19785,11060,9800,11932,35418,4
0.0,0.0,0.0,19941,11109,9788,12009,35712,4
0.0,0.0,0.0,20039,11170,9710,12267,36085,4
0.0,0.0,0.0,20117,11255,9621,12320,36197,4
0.0,0.0,0.0,20098,11255,9621,12228,36348,4
0.0,0.0,0.0,20196,11231,9621,12163,36614,4
0.0,0.0,0.0,20275,11255,9621,12137,36499,4
0.0,0.0,0.0,20395,11255,9632,12137,36690,4
0.0,0.0,0.0,20495,11268,9632,12267,36998,4
0.0,0.0,0.0,20595,11304,9621,12372,36920,4
0.0,0.0,0.0,20575,11379,9621,12477,36767,4
0.0,0.0,0.0,20495,11503,9632,12610,37191,4
0.0,0.0,0.0,20495,11465,9621,12636,37152,4
0.0,0.0,0.0,20515,11428,9632,12610,36998,4
0.0,0.0,0.0,20555,11403,9632,12636,36959,4
0.0,0.0,0.0,20595,11416,9632,12690,36882,4
0.0,0.0,0.0,20676,11416,9643,12649,36998,4
0.0,0.0,0.0,20798,11403,9643,12663,36998,4
0.0,0.0,0.0,20981,11528,9867,13150,37426,4
0.0,0.0,0.0,21084,11553,10140,13510,37741,4
0.0,0.0,0.0,21167,11703,10267,13665,37940,4
0.0,0.0,0.0,21187,11842,10441,13878,38341,4
0.0,0.0,0.0,21208,11932,10535,14195,38463,4
0.0,0.0,0.0,21291,11906,10535,14253,38585,4
0.0,0.0,0.0,21229,11970,10535,14268,38625,4
0.0,0.0,0.0,21250,11996,10535,14268,38544,4
0.0,0.0,0.0,21270,12021,10535,14311,38585,4
0.0,0.0,0.0,21291,12009,10546,14311,38503,4
0.0,0.0,0.0,21250,11957,10535,14282,38503,4
0.0,0.0,0.0,21208,11881,10464,14079,38220,4
0.0,0.0,0.0,21064,11817,10394,13792,38019,4
0.0,0.0,0.0,21043,11766,10371,13622,38019,4
0.0,0.0,0.0,20961,11703,10348,13468,37781,4
0.0,0.0,0.0,20879,11578,10278,13412,37860,4
0.0,0.0,0.0,20777,11478,9980,12716,37622,4
0.0,0.0,0.0,20676,11304,9677,12215,37308,4
0.0,0.0,0.0,20595,11121,9599,11932,36843,4
0.0,0.0,0.0,20455,11012,9632,11804,36538,4
0.0,0.0,0.0,20335,10927,9599,11678,36462,4
0.0,0.0,0.0,20315,10879,9621,11653,36348,4
0.0,0.0,0.0,20275,10867,9621,11653,36160,4
0.0,0.0,0.0,20236,10867,9599,11615,36085,4
0.0,0.0,0.0,20256,10867,9632,11628,36010,4
0.0,0.0,0.0,20275,10891,9599,11665,35935,4
0.0,0.0,0.0,20256,10915,9621,11716,35935,4
0.0,0.0,0.0,20236,10963,9621,11779,35935,4
0.0,0.0,0.0,20315,10951,9621,11817,36010,4
0.0,0.0,0.0,20236,10963,9621,11855,35935,4
0.0,0.0,0.0,20275,10987,9621,11932,35861,4
0.0,0.0,0.0,20275,10975,9621,11932,35861,4
0.0,0.0,0.0,20275,10987,9621,11932,35861,4
0.0,0.0,0.0,20315,10975,9621,12034,35861,4
0.0,0.0,0.0,20236,10963,9621,12009,35749,4
0.0,0.0,0.0,20236,10963,9610,12009,35749,4
0.0,0.0,0.0,20216,10915,9621,11957,35639,4
0.0,0.0,0.0,20196,10831,9621,11906,35565,4
0.0,0.0,0.0,20196,10748,9588,11868,35565,4
0.0,0.0,0.0,20157,10558,9621,11830,35492,4
0.0,0.0,0.0,20117,10371,9621,11804,35492,4
0.0,0.0,0.0,20157,10197,9621,11754,35345,4
0.0,0.0,0.0,20157,10152,9599,11716,35345,4
0.0,0.0,0.0,20058,10152,9621,11678,35199,4
0.0,0.0,0.0,20019,10140,9621,11678,35127,4
0.0,0.0,0.0,20019,10152,9621,11653,35199,4
0.0,0.0,0.0,19960,10174,9621,11628,35127,4
0.0,0.0,0.0,20019,10163,9621,11553,35272,4
0.0,0.0,0.0,19941,10163,9599,11503,35018,4
0.0,0.0,0.0,19941,10441,9621,11528,35055,4
0.0,0.0,0.0,19921,10795,9610,11416,35272,4
0.0,0.0,0.0,19766,10963,9621,11366,34982,4
0.0,0.0,0.0,19689,10879,9621,11317,34767,4
0.0,0.0,0.0,19708,10819,9621,11231,34696,4
0.0,0.0,0.0,19631,10748,9632,11157,34518,4
0.0,0.0,0.0,19631,10724,9599,11024,34482,4
0.0,0.0,0.0,19669,10664,9621,10939,34447,4
0.0,0.0,0.0,19612,10558,9632,10891,34412,4
0.0,0.0,0.0,19612,10441,9621,10867,34482,4
0.0,0.0,0.0,19766,10371,9621,10867,34341,4
0.0,0.0,0.0,19689,10290,9610,10819,34341,4
0.0,0.0,0.0,19689,10301,9621,10819,34412,4
0.0,0.0,0.0,19689,10267,9621,10807,34482,4
0.0,0.0,0.0,19689,10255,9621,10819,34482,4
0.0,0.0,0.0,19612,10255,9621,10795,34341,4
0.0,0.0,0.0,19669,10255,9621,10783,34412,4
0.0,0.0,0.0,19669,10267,9621,10795,34447,4
0.0,0.0,0.0,19650,10232,9621,10783,34412,4
0.0,0.0,0.0,19650,10255,9621,10795,34376,4
0.0,0.0,0.0,19631,10267,9621,10819,34376,4
0.0,0.0,0.0,19650,10255,9621,10795,34341,4
0.0,0.0,0.0,19650,10255,9599,10795,34412,4
0.0,0.0,0.0,19612,10255,9621,10795,34412,4
0.0,0.0,0.0,19650,10255,9621,10795,34341,4
0.0,0.0,0.0,19631,10255,9577,10771,34341,4
0.0,0.0,0.0,19612,10255,9621,10795,34271,4
0.0,0.0,0.0,19631,10255,9621,10771,34271,4
0.0,0.0,0.0,19631,10255,9621,10783,34271,4
0.0,0.0,0.0,19612,10255,9621,10783,34200,4
0.0,0.0,0.0,19612,10255,9621,10771,34200,4
0.0,0.0,0.0,19631,10255,9621,10771,34130,4
0.0,0.0,0.0,19612,10255,9599,10795,34200,4
0.0,0.0,0.0,19650,10255,9621,10771,34165,4
0.0,0.0,0.0,19612,10301,9621,10783,34130,4
0.0,0.0,0.0,19554,10301,9610,10771,34200,4
0.0,0.0,0.0,19535,10325,9621,10783,33991,4
0.0,0.0,0.0,19458,10313,9621,10783,33887,4
0.0,0.0,0.0,19497,10313,9621,10771,33852,4
0.0,0.0,0.0,19420,10325,9610,10783,33714,4
0.0,0.0,0.0,19382,10348,9621,10783,33645,4
0.0,0.0,0.0,19363,10371,9621,10783,33576,4
0.0,0.0,0.0,19155,10348,9621,10819,33439,4
0.0,0.0,0.0,19099,10348,9621,10819,33439,4
0.0,0.0,0.0,19024,10371,9621,10819,33337,4
0.0,0.0,0.0,18949,10394,9621,10867,33202,4
0.0,0.0,0.0,18931,10394,9621,10843,33100,4
0.0,0.0,0.0,18875,10394,9621,10867,33033,4
0.0,0.0,0.0,18857,10394,9621,10867,32765,4
0.0,0.0,0.0,18894,10394,9621,10867,32732,4
0.0,0.0,0.0,18801,10394,9621,10891,32633,4
0.0,0.0,0.0,18746,10394,9621,10867,32633,4
0.0,0.0,0.0,18746,10394,9621,10879,32500,4
0.0,0.0,0.0,18709,10394,9621,10879,32435,4
0.0,0.0,0.0,18709,10394,9621,10867,32369,4
0.0,0.0,0.0,18727,10371,9621,10891,32402,4
0.0,0.0,0.0,18709,10359,9621,10879,32402,4
0.0,0.0,0.0,18783,10394,9621,10879,32500,4
0.0,0.0,0.0,18783,10348,9621,10867,32435,4
0.0,0.0,0.0,18764,10301,9621,10891,32369,4
0.0,0.0,0.0,18838,10325,9621,10915,32369,4
0.0,0.0,0.0,18801,10313,9621,10891,32369,4
0.0,0.0,0.0,18801,10325,9621,10903,32303,4
0.0,0.0,0.0,18801,10348,9621,10891,32238,4
0.0,0.0,0.0,18820,10348,9621,10867,32238,4
0.0,0.0,0.0,18783,10394,9621,10891,32271,4
0.0,0.0,0.0,18801,10394,9621,10867,32205,4
0.0,0.0,0.0,18746,10394,9621,10879,32108,4
0.0,0.0,0.0,18746,10394,9621,10879,32173,4
0.0,0.0,0.0,18727,10406,9621,10915,32108,4
0.0,0.0,0.0,18709,10406,9621,10879,32173,4
0.0,0.0,0.0,18727,10464,9621,10867,32303,4
0.0,0.0,0.0,18709,10488,9621,10843,33134,4
0.0,0.0,0.0,18709,10441,9621,10867,33474,4
0.0,0.0,0.0,18635,10418,9621,10843,33337,4
0.0,0.0,0.0,18599,10418,9621,10843,33405,4
0.0,0.0,0.0,18581,10394,9621,10843,33474,4
0.0,0.0,0.0,18508,10418,9621,10819,33439,4
0.0,0.0,0.0,18581,10394,9599,10831,33303,4
0.0,0.0,0.0,18508,10406,9610,10843,33371,4
0.0,0.0,0.0,18435,10418,9621,10819,33817,4
0.0,0.0,0.0,18200,10488,9621,10831,33956,4
0.0,0.0,0.0,17898,10617,9621,10867,34271,4
0.0,0.0,0.0,17443,10915,9621,10891,33991,4
0.0,0.0,0.0,17016,11231,9621,10915,34341,4
0.0,0.0,0.0,16715,11403,9621,10927,34767,4
0.0,0.0,0.0,16483,11366,9621,10915,35127,4
0.0,0.0,0.0,16173,11354,9621,10927,35861,4
0.0,0.0,0.0,15852,11354,9621,10927,35749,4
0.0,0.0,0.0,15273,11453,9632,10951,34910,4
0.0,0.0,0.0,14982,11716,9755,10975,34767,4
0.0,0.0,0.0,14937,11906,10209,11012,34376,4
0.0,0.0,0.0,14907,11906,10325,11024,34200,4
0.0,0.0,0.0,14846,11868,10336,11048,34026,4
0.0,0.0,0.0,14741,11817,10278,11024,33576,4
0.0,0.0,0.0,14681,11804,10255,11036,33474,4
0.0,0.0,0.0,14666,11804,10255,11036,33337,4
0.0,0.0,0.0,14607,11754,10232,11036,33269,4
0.0,0.0,0.0,14577,11703,10221,11036,32932,4
0.0,0.0,0.0,14547,11678,10209,11036,32765,4
0.0,0.0,0.0,14488,11728,10301,11036,32566,4
0.0,0.0,0.0,14488,12034,10582,11121,32732,4
0.0,0.0,0.0,14488,12034,10594,11121,32599,4
0.0,0.0,0.0,14473,11932,10570,11109,32500,4
0.0,0.0,0.0,14429,11919,10558,11060,32336,4
0.0,0.0,0.0,14429,11906,10546,11060,32108,4
0.0,0.0,0.0,14399,11932,10570,11109,32173,4
0.0,0.0,0.0,14429,12009,10605,11060,32108,4
0.0,0.0,0.0,14385,12060,10582,11060,32108,4
0.0,0.0,0.0,14399,12034,10629,11060,32173,4
0.0,0.0,0.0,14399,12034,10676,11072,31978,4
0.0,0.0,0.0,14385,12086,10676,11084,31913,4
0.0,0.0,0.0,14370,12163,10688,11084,31849,4
0.0,0.0,0.0,14326,12215,10724,11109,31849,4
0.0,0.0,0.0,14370,12267,10748,11072,31849,4
0.0,0.0,0.0,14355,12320,10771,11109,31849,4
0.0,0.0,0.0,14341,12346,10771,11109,31978,4
0.0,0.0,0.0,14326,12372,10771,11109,31913,4
0.0,0.0,0.0,14326,12424,10783,11109,31849,4
0.0,0.0,0.0,14326,12424,10783,11109,31849,4
0.0,0.0,0.0,14326,12424,10783,11109,31817,4
0.0,0.0,0.0,14311,12477,10795,11133,31849,4
0.0,0.0,0.0,14355,12504,10843,11121,31817,4
0.0,0.0,0.0,14326,12530,10843,11109,31817,4
0.0,0.0,0.0,14311,12556,10843,11121,31720,4
0.0,0.0,0.0,14311,12556,10867,11133,31785,4
0.0,0.0,0.0,14297,12583,10867,11133,31720,4
0.0,0.0,0.0,14282,12583,10879,11121,31752,4
0.0,0.0,0.0,14282,12636,10867,11109,31688,4
0.0,0.0,0.0,14297,12636,10867,11121,31624,4
0.0,0.0,0.0,14282,12636,10891,11109,31688,4
0.0,0.0,0.0,14253,12703,10891,11157,31593,4
0.0,0.0,0.0,14268,12703,10915,11133,31752,4
0.0,0.0,0.0,14268,12716,10915,11133,31624,4
0.0,0.0,0.0,14253,12770,10939,11157,31656,4
0.0,0.0,0.0,14253,12797,10915,11133,31688,4
0.0,0.0,0.0,14253,12797,10927,11157,31624,4
0.0,0.0,0.0,14253,12851,10927,11157,31561,4
