GyroX,GyroY,GyroZ,Thumb,Index,Middle,Ring,Pinky,Gesture
0.0,0.0,0.0,12797,24534,10186,11970,14891,1
0.0,0.0,0.0,12824,24558,10174,11983,14907,1
0.0,0.0,0.0,12824,24606,10209,11970,14907,1
0.0,0.0,0.0,12824,24558,10209,11970,14922,1
0.0,0.0,0.0,12797,24462,10209,11996,14967,1
0.0,0.0,0.0,12783,24414,10209,12009,14922,1
0.0,0.0,0.0,12824,24438,10290,12086,14997,1
0.0,0.0,0.0,12797,24438,10325,12124,15028,1
0.0,0.0,0.0,12783,24414,10313,12189,14982,1
0.0,0.0,0.0,12797,24414,10267,12124,15028,1
0.0,0.0,0.0,12797,24414,10255,12112,14967,1
0.0,0.0,0.0,12851,24414,10209,12124,15058,1
0.0,0.0,0.0,12905,24223,10094,12189,15273,1
0.0,0.0,0.0,12851,24058,9912,12320,15647,1
0.0,0.0,0.0,12837,24034,9811,12372,15837,1
0.0,0.0,0.0,12851,23917,9777,12372,15964,1
0.0,0.0,0.0,12810,23894,9800,12424,16093,1
0.0,0.0,0.0,12783,23870,9811,12346,16060,1
0.0,0.0,0.0,12797,23754,9822,12346,16093,1
0.0,0.0,0.0,12743,23754,9845,12346,16044,1
0.0,0.0,0.0,12743,23707,9867,12320,15996,1
0.0,0.0,0.0,12690,23661,9856,12346,15868,1
0.0,0.0,0.0,12690,23615,9856,12346,15868,1
0.0,0.0,0.0,12636,23569,9901,12320,15884,1
0.0,0.0,0.0,12636,23569,9901,12293,15884,1
0.0,0.0,0.0,12596,23546,9935,12320,15837,1
0.0,0.0,0.0,12583,23477,9958,12293,15837,1
0.0,0.0,0.0,12610,23431,9980,12320,15837,1
0.0,0.0,0.0,12636,23385,10014,12346,15852,1
0.0,0.0,0.0,12623,23385,10026,12346,15852,1
0.0,0.0,0.0,12596,23271,10037,12320,15837,1
0.0,0.0,0.0,12556,23294,10026,12320,15852,1
0.0,0.0,0.0,12583,23248,10026,12346,15852,1
0.0,0.0,0.0,12583,23294,10049,12346,15837,1
0.0,0.0,0.0,12543,23225,10071,12346,15837,1
0.0,0.0,0.0,12583,23203,10071,12320,15837,1
0.0,0.0,0.0,12583,23203,10071,12372,15852,1
0.0,0.0,0.0,12636,23157,10278,12649,16157,1
0.0,0.0,0.0,12743,23112,10255,12743,16352,1
0.0,0.0,0.0,12851,22887,10186,12797,16483,1
0.0,0.0,0.0,12864,22843,10129,12864,16615,1
0.0,0.0,0.0,12851,22665,10026,12905,16615,1
0.0,0.0,0.0,12824,22576,9777,12743,16582,1
0.0,0.0,0.0,12703,22488,9710,12703,16516,1
0.0,0.0,0.0,12663,22444,9733,12649,16287,1
0.0,0.0,0.0,12636,22444,9733,12583,15868,1
0.0,0.0,0.0,12583,22313,9721,12424,15537,1
0.0,0.0,0.0,12556,22270,9733,12137,15428,1
0.0,0.0,0.0,12504,22226,9733,11817,15288,1
0.0,0.0,0.0,12438,22444,9721,11428,15104,1
0.0,0.0,0.0,12424,23339,9744,11231,14967,1
0.0,0.0,0.0,12398,23522,9710,11206,14876,1
0.0,0.0,0.0,12424,23454,9733,11170,14907,1
0.0,0.0,0.0,12411,23385,9710,11182,14861,1
0.0,0.0,0.0,12477,23135,9721,11231,14907,1
0.0,0.0,0.0,12477,23044,9710,11453,14876,1
0.0,0.0,0.0,12398,22798,9733,11578,14137,1
0.0,0.0,0.0,12424,22621,9733,11528,13964,1
0.0,0.0,0.0,12504,23477,9721,11465,13806,1
0.0,0.0,0.0,12530,24223,9721,11366,13735,1
0.0,0.0,0.0,12583,24558,9733,11341,13835,1
0.0,0.0,0.0,12743,24727,9755,11329,14166,1
0.0,0.0,0.0,12797,24751,9755,11329,14399,1
0.0,0.0,0.0,12851,24799,9733,11219,14532,1
0.0,0.0,0.0,12932,24848,9733,11072,14385,1
0.0,0.0,0.0,12972,25093,9744,10987,13935,1
0.0,0.0,0.0,13081,25341,9721,10963,13679,1
0.0,0.0,0.0,13191,25341,9733,10951,13636,1
0.0,0.0,0.0,13218,24727,9733,10927,13622,1
0.0,0.0,0.0,13177,24438,9721,10927,13580,1
0.0,0.0,0.0,13177,24081,9733,10927,13622,1
0.0,0.0,0.0,13177,23847,9721,10939,13679,1
0.0,0.0,0.0,13081,23661,9733,10927,13566,1
0.0,0.0,0.0,12959,23477,9710,10927,13622,1
0.0,0.0,0.0,12932,23339,9733,10915,13580,1
0.0,0.0,0.0,12824,23294,9710,10939,13650,1
0.0,0.0,0.0,12663,23294,9710,10963,13636,1
0.0,0.0,0.0,12530,23135,9721,10999,13650,1
0.0,0.0,0.0,12530,23067,9721,11012,13650,1
0.0,0.0,0.0,12530,23248,9733,11048,13693,1
0.0,0.0,0.0,12530,23385,9721,11060,13735,1
0.0,0.0,0.0,12530,23569,9733,11109,13735,1
0.0,0.0,0.0,12451,23894,9721,11182,13735,1
0.0,0.0,0.0,12424,24129,9744,11157,13792,1
0.0,0.0,0.0,12372,24129,9777,11157,13792,1
0.0,0.0,0.0,12306,23987,9733,11170,13821,1
0.0,0.0,0.0,12228,23940,9733,11170,13792,1
0.0,0.0,0.0,12228,23894,9733,11182,13806,1
0.0,0.0,0.0,12215,23847,9721,11206,13806,1
0.0,0.0,0.0,12189,23847,9744,11219,13764,1
0.0,0.0,0.0,12228,23847,9755,11206,13792,1
0.0,0.0,0.0,12320,23870,9733,11255,13792,1
0.0,0.0,0.0,12372,23894,9733,11243,13764,1
0.0,0.0,0.0,12320,23987,9733,11280,13693,1
0.0,0.0,0.0,12280,24034,9744,11354,13636,1
0.0,0.0,0.0,12228,23940,10071,11503,13679,1
0.0,0.0,0.0,12176,23940,10071,11453,13650,1
0.0,0.0,0.0,12241,23987,10049,11478,13693,1
0.0,0.0,0.0,12320,23847,10026,11465,13707,1
0.0,0.0,0.0,12215,23847,10003,11453,13679,1
0.0,0.0,0.0,12112,23777,10003,11465,13693,1
0.0,0.0,0.0,12060,23847,10003,11465,13679,1
0.0,0.0,0.0,11983,23847,10026,11478,13679,1
0.0,0.0,0.0,12009,23940,10026,11453,13693,1
0.0,0.0,0.0,11996,23940,10026,11478,13707,1
0.0,0.0,0.0,12060,23870,10049,11453,13707,1
0.0,0.0,0.0,12112,23847,10163,11453,13749,1
0.0,0.0,0.0,12021,23847,10313,11465,13906,1
0.0,0.0,0.0,11754,24034,10418,11503,14108,1
0.0,0.0,0.0,11553,24034,10441,11503,14195,1
0.0,0.0,0.0,11615,24034,10441,11478,14429,1
0.0,0.0,0.0,11653,24081,10441,11478,14488,1
0.0,0.0,0.0,11578,24081,10441,11465,14458,1
0.0,0.0,0.0,11465,24105,10394,11478,14488,1
0.0,0.0,0.0,11817,24129,10441,11478,14429,1
0.0,0.0,0.0,12060,24223,10488,11453,14741,1
0.0,0.0,0.0,12320,24223,10511,11453,14786,1
0.0,0.0,0.0,12099,24223,10499,11453,14861,1
0.0,0.0,0.0,11317,24414,10488,11453,14907,1
0.0,0.0,0.0,11084,24702,10499,11453,14922,1
0.0,0.0,0.0,11416,24995,10488,11453,14786,1
0.0,0.0,0.0,11528,25044,10476,11428,14786,1
0.0,0.0,0.0,11528,25316,10441,11416,14801,1
0.0,0.0,0.0,11603,25490,10488,11403,14666,1
0.0,0.0,0.0,11868,25616,10488,11403,14666,1
0.0,0.0,0.0,12451,25742,10546,11391,14681,1
0.0,0.0,0.0,13027,25742,10641,11403,14726,1
0.0,0.0,0.0,13398,25793,10653,11403,14741,1
0.0,0.0,0.0,13468,25894,10523,11329,14681,1
0.0,0.0,0.0,13552,25818,10464,11280,14547,1
0.0,0.0,0.0,13792,25818,10441,11255,14385,1
0.0,0.0,0.0,13821,25793,10394,11219,13949,1
0.0,0.0,0.0,13821,25894,10371,11206,13679,1
0.0,0.0,0.0,13821,25894,10267,11157,13482,1
0.0,0.0,0.0,13863,25945,10278,11133,13287,1
0.0,0.0,0.0,13849,26202,10232,11157,13177,1
0.0,0.0,0.0,13735,26099,10117,11133,13122,1
0.0,0.0,0.0,13594,26099,9755,11072,13013,1
0.0,0.0,0.0,13454,26047,9744,10999,12959,1
0.0,0.0,0.0,13371,26099,9721,10939,12864,1
0.0,0.0,0.0,13371,25996,9721,10915,12864,1
0.0,0.0,0.0,13371,25996,9733,10879,12756,1
0.0,0.0,0.0,13315,25894,9744,10879,12730,1
0.0,0.0,0.0,13301,25843,9721,10879,12676,1
0.0,0.0,0.0,13274,25793,9755,10879,12703,1
0.0,0.0,0.0,13246,25793,9755,10891,12743,1
0.0,0.0,0.0,13246,25691,9721,10879,12703,1
0.0,0.0,0.0,13260,25691,9733,10891,12716,1
0.0,0.0,0.0,13246,25691,9744,10879,12703,1
0.0,0.0,0.0,13218,25666,9733,10891,12743,1
0.0,0.0,0.0,13232,25591,9733,10891,12770,1
0.0,0.0,0.0,13232,25616,9733,10915,12797,1
0.0,0.0,0.0,13232,25616,9710,10927,12756,1
0.0,0.0,0.0,13246,25616,9733,10963,12851,1
0.0,0.0,0.0,13232,25691,9755,11157,13013,1
0.0,0.0,0.0,13232,25641,9946,11304,13205,1
0.0,0.0,0.0,13218,25616,9935,11243,13191,1
0.0,0.0,0.0,13177,25666,9833,11133,13177,1
0.0,0.0,0.0,13177,25591,9800,11109,13095,1
0.0,0.0,0.0,13136,25616,9755,11084,13122,1
0.0,0.0,0.0,13122,25641,9755,11060,13040,1
0.0,0.0,0.0,13122,25591,9755,11060,13013,1
0.0,0.0,0.0,13081,25591,9744,11048,13013,1
0.0,0.0,0.0,13095,25591,9721,11036,12972,1
0.0,0.0,0.0,13068,25641,9733,11024,12972,1
0.0,0.0,0.0,13027,25591,9733,11060,12959,1
0.0,0.0,0.0,13027,25565,9721,11084,13013,1
0.0,0.0,0.0,13013,25440,9733,11024,13510,1
0.0,0.0,0.0,13027,25390,9733,10975,13949,1
0.0,0.0,0.0,13027,25415,9733,11072,14399,1
0.0,0.0,0.0,13040,25490,9721,11255,14681,1
0.0,0.0,0.0,13027,25440,9755,11453,14907,1
0.0,0.0,0.0,13013,25390,9733,11603,15150,1
0.0,0.0,0.0,13040,25440,9755,11716,15211,1
0.0,0.0,0.0,13013,25390,9766,11817,15181,1
0.0,0.0,0.0,12972,25341,9755,11855,15150,1
0.0,0.0,0.0,12972,25341,9755,11881,15181,1
0.0,0.0,0.0,12945,25241,9777,11919,15211,1
0.0,0.0,0.0,13013,25241,9800,11881,15227,1
0.0,0.0,0.0,12945,25118,9777,11868,15150,1
0.0,0.0,0.0,12945,25142,9800,11804,15150,1
0.0,0.0,0.0,12864,25093,9766,11792,15119,1
0.0,0.0,0.0,12878,25093,9766,11766,15089,1
0.0,0.0,0.0,12851,25093,9777,11766,15074,1
0.0,0.0,0.0,12851,25019,9800,11754,15089,1
0.0,0.0,0.0,12851,24995,9800,11716,15058,1
0.0,0.0,0.0,12864,25044,9856,11766,15150,1
0.0,0.0,0.0,12878,24995,9935,11754,15150,1
0.0,0.0,0.0,12864,24946,9935,11754,15165,1
0.0,0.0,0.0,12905,24946,9935,11754,15150,1
0.0,0.0,0.0,12905,24995,9890,11754,15119,1
0.0,0.0,0.0,12905,24995,9912,11703,15089,1
0.0,0.0,0.0,12905,24897,9935,11703,15058,1
0.0,0.0,0.0,12864,24921,9890,11653,14907,1
0.0,0.0,0.0,12864,24946,9890,11603,14801,1
0.0,0.0,0.0,12837,24946,9845,11615,14786,1
0.0,0.0,0.0,12837,24897,9845,11603,14831,1
0.0,0.0,0.0,12851,24897,9845,11590,14846,1
0.0,0.0,0.0,12797,24897,9867,11603,14861,1
0.0,0.0,0.0,12837,24897,9845,11565,14816,1
0.0,0.0,0.0,12851,24824,9845,11615,14816,1
0.0,0.0,0.0,12824,24873,9845,11565,14786,1
0.0,0.0,0.0,12797,24799,9811,11565,14771,1
0.0,0.0,0.0,12743,24848,9811,11565,14696,1
0.0,0.0,0.0,12743,24751,9800,11540,14621,1
0.0,0.0,0.0,12743,24727,9811,11528,14607,1
0.0,0.0,0.0,12770,24727,9811,11515,14577,1
0.0,0.0,0.0,12797,24702,9822,11553,14547,1
0.0,0.0,0.0,12797,24702,9845,11503,14562,1
0.0,0.0,0.0,12797,24702,9845,11515,14473,1
0.0,0.0,0.0,12770,24606,9856,11528,14607,1
0.0,0.0,0.0,12824,24606,9890,11503,14562,1
0.0,0.0,0.0,12878,24558,9890,11503,14577,1
0.0,0.0,0.0,12905,24606,9935,11503,14547,1
0.0,0.0,0.0,12932,24462,9935,11503,14562,1
0.0,0.0,0.0,12945,24534,9935,11478,14562,1
0.0,0.0,0.0,12959,24510,9958,11503,14562,1
0.0,0.0,0.0,12905,24414,10003,11515,14562,1
0.0,0.0,0.0,12905,24414,9980,11503,14532,1
0.0,0.0,0.0,12864,24462,9946,11478,14562,1
0.0,0.0,0.0,12864,24414,9958,11465,14518,1
0.0,0.0,0.0,12851,24366,9935,11453,14444,1
0.0,0.0,0.0,12878,24414,9935,11465,14547,1
0.0,0.0,0.0,12810,24366,9935,11503,14547,1
0.0,0.0,0.0,12824,24366,9935,11465,14621,1
0.0,0.0,0.0,12797,24438,9946,11503,14621,1
0.0,0.0,0.0,12810,24510,9935,11490,14311,1
0.0,0.0,0.0,12878,24438,9912,11465,14195,1
0.0,0.0,0.0,12959,24414,10003,11465,14562,1
0.0,0.0,0.0,12972,24366,10026,11503,14444,1
0.0,0.0,0.0,12959,24342,9980,11528,14370,1
0.0,0.0,0.0,12905,24318,9958,11528,14429,1
0.0,0.0,0.0,12864,24318,9935,11528,14429,1
0.0,0.0,0.0,12851,24366,9935,11578,14385,1
0.0,0.0,0.0,12851,24271,9912,11615,14414,1
0.0,0.0,0.0,12851,24271,9912,11615,14429,1
0.0,0.0,0.0,12797,24318,9901,11628,14429,1
0.0,0.0,0.0,12797,24294,9901,11615,14429,1
0.0,0.0,0.0,12783,24271,9935,11628,14458,1
0.0,0.0,0.0,12770,24271,9935,11628,14429,1
0.0,0.0,0.0,12770,24318,9935,11603,14429,1
0.0,0.0,0.0,12743,24247,9958,11653,14444,1
0.0,0.0,0.0,12756,24223,9946,11678,14488,1
0.0,0.0,0.0,12743,24271,9980,11665,14399,1
0.0,0.0,0.0,12756,24223,10003,11703,14429,1
0.0,0.0,0.0,12743,24152,9980,11665,14429,1
0.0,0.0,0.0,12743,24199,9980,11678,14444,1
0.0,0.0,0.0,12730,24223,10003,11716,14429,1
0.0,0.0,0.0,12716,24247,10014,11728,14429,1
0.0,0.0,0.0,12716,24199,10026,11754,14429,1
0.0,0.0,0.0,12690,24247,10014,11716,14429,1
0.0,0.0,0.0,12690,24223,10003,11728,14444,1
0.0,0.0,0.0,12743,24223,10026,11754,14429,1
0.0,0.0,0.0,12690,24247,10026,11779,14458,1
0.0,0.0,0.0,12690,24176,10026,11779,14444,1
0.0,0.0,0.0,12690,24152,10083,11804,14488,1
0.0,0.0,0.0,12690,24176,10071,11830,14458,1
0.0,0.0,0.0,12690,24223,10071,11804,14488,1
0.0,0.0,0.0,12663,24199,10071,11830,14488,1
0.0,0.0,0.0,12690,24223,10071,11804,14488,1
0.0,0.0,0.0,12690,24129,10071,11804,14444,1
0.0,0.0,0.0,12676,24223,10083,11830,14488,1
0.0,0.0,0.0,12690,24152,10071,11817,14444,1
0.0,0.0,0.0,12690,24199,10071,11855,14458,1
0.0,0.0,0.0,12663,24223,10071,11830,14444,1
0.0,0.0,0.0,12703,24223,10071,11855,14444,1
0.0,0.0,0.0,12663,24176,10071,11817,14503,1
0.0,0.0,0.0,12676,24223,10071,11830,14458,1
0.0,0.0,0.0,12649,24129,10083,11804,14458,1
0.0,0.0,0.0,12690,24152,10071,11804,14488,1
0.0,0.0,0.0,12690,24176,10083,11855,14458,1
0.0,0.0,0.0,12690,24223,10071,11817,14444,1
0.0,0.0,0.0,12690,24223,10083,11804,14488,1
0.0,0.0,0.0,12649,24152,10083,11817,14444,1
0.0,0.0,0.0,12663,24152,10083,11804,14488,1
0.0,0.0,0.0,12649,24176,10071,11817,14473,1
0.0,0.0,0.0,12663,24176,10083,11817,14503,1
0.0,0.0,0.0,12676,24129,10071,11804,14429,1
0.0,0.0,0.0,12663,24152,10071,11817,14488,1
0.0,0.0,0.0,12690,24176,10060,11804,14488,1
0.0,0.0,0.0,12743,24152,10026,11817,14429,1
0.0,0.0,0.0,12797,24152,10026,11868,14547,1
0.0,0.0,0.0,12716,24176,10014,11957,14547,1
0.0,0.0,0.0,12690,24176,9980,11932,14503,1
0.0,0.0,0.0,12690,24152,9969,11932,14518,1
0.0,0.0,0.0,12663,24129,9958,11932,14518,1
0.0,0.0,0.0,12636,24129,9958,11957,14503,1
0.0,0.0,0.0,12636,24034,9958,11932,14503,1
0.0,0.0,0.0,12636,24058,10003,11957,14547,1
0.0,0.0,0.0,12636,24081,9969,11932,14518,1
0.0,0.0,0.0,12636,24011,10003,11970,14488,1
0.0,0.0,0.0,12583,24011,9980,11983,14488,1
0.0,0.0,0.0,12583,24034,9980,11983,14488,1
0.0,0.0,0.0,12610,24034,10003,11983,14518,1
0.0,0.0,0.0,12556,24034,10003,11983,14488,1
0.0,0.0,0.0,12596,24034,10003,11957,14488,1
0.0,0.0,0.0,12583,24034,9980,11983,14458,1
0.0,0.0,0.0,12610,23987,10003,11983,14488,1
0.0,0.0,0.0,12610,24034,10003,11970,14503,1
0.0,0.0,0.0,12610,24034,10003,11983,14488,1
0.0,0.0,0.0,12596,24034,10003,12009,14473,1
0.0,0.0,0.0,12583,24034,10003,11957,14518,1
0.0,0.0,0.0,12583,24034,10003,11996,14488,1
0.0,0.0,0.0,12583,23940,10026,12009,14503,1
0.0,0.0,0.0,12610,24011,10014,12021,14518,1
0.0,0.0,0.0,12596,23987,10049,12009,14518,1
0.0,0.0,0.0,12583,23964,10037,12060,14518,1
0.0,0.0,0.0,12583,23987,10049,12060,14503,1
0.0,0.0,0.0,12570,23987,10071,12047,14518,1
0.0,0.0,0.0,12583,24034,10049,12060,14547,1
0.0,0.0,0.0,12543,24058,10037,12060,14547,1
0.0,0.0,0.0,12543,24034,10037,12073,14518,1
0.0,0.0,0.0,12583,24058,10037,12073,14547,1
0.0,0.0,0.0,12543,24034,10049,12060,14547,1
0.0,0.0,0.0,12543,23987,10049,12086,14518,1
0.0,0.0,0.0,12543,23987,10037,12086,14503,1
0.0,0.0,0.0,12543,23987,10049,12073,14547,1
0.0,0.0,0.0,12543,23964,10060,12073,14547,1
0.0,0.0,0.0,12543,23987,10060,12086,14547,1
0.0,0.0,0.0,12543,23940,10037,12086,14503,1
0.0,0.0,0.0,12556,24011,10049,12073,14547,1
0.0,0.0,0.0,12556,23987,10049,12034,14577,1
0.0,0.0,0.0,12583,23940,10037,12060,14562,1
0.0,0.0,0.0,12543,23940,10060,12086,14577,1
0.0,0.0,0.0,12636,23847,10071,12060,14488,1
0.0,0.0,0.0,12596,23870,10049,12060,14547,1
0.0,0.0,0.0,12583,23940,10049,12086,14621,1
0.0,0.0,0.0,12636,23940,10037,12086,14621,1
0.0,0.0,0.0,12636,23964,10026,12086,14607,1
0.0,0.0,0.0,12610,23940,10026,12112,14666,1
0.0,0.0,0.0,12610,23917,10026,12086,14726,1
0.0,0.0,0.0,12596,23940,10060,12060,14741,1
0.0,0.0,0.0,12610,24034,10071,12086,14816,1
0.0,0.0,0.0,12610,23894,10071,12086,14997,1
0.0,0.0,0.0,12636,23940,10071,12073,15028,1
0.0,0.0,0.0,12610,23964,10071,12112,14937,1
0.0,0.0,0.0,12596,24034,9912,12060,14861,1
0.0,0.0,0.0,12610,24081,9833,12034,14876,1
0.0,0.0,0.0,12583,24129,9733,11983,14816,1
0.0,0.0,0.0,12530,24152,9721,11906,14726,1
0.0,0.0,0.0,12424,24199,9710,11817,14592,1
0.0,0.0,0.0,12346,24223,9721,11716,14108,1
0.0,0.0,0.0,12346,24176,9733,11578,13735,1
0.0,0.0,0.0,12372,24223,9721,11490,13510,1
0.0,0.0,0.0,12372,24271,9755,11453,13440,1
0.0,0.0,0.0,12372,24318,9733,11366,13191,1
0.0,0.0,0.0,12398,24342,9721,11304,12864,1
0.0,0.0,0.0,12398,24342,9733,11182,12663,1
0.0,0.0,0.0,12385,24390,9721,11072,12490,1
0.0,0.0,0.0,12424,24318,9755,11048,12438,1
0.0,0.0,0.0,12451,24223,9710,11036,12424,1
0.0,0.0,0.0,12490,24105,9721,11036,12530,1
0.0,0.0,0.0,12530,23847,9721,11012,13136,1
0.0,0.0,0.0,12596,23661,9721,11012,14370,1
0.0,0.0,0.0,12596,23477,9744,11060,14547,1
0.0,0.0,0.0,12636,23385,9733,11182,14786,1
0.0,0.0,0.0,12690,23294,9710,11255,14771,1
0.0,0.0,0.0,12743,23203,9721,11292,14756,1
0.0,0.0,0.0,12690,23112,9721,11317,14726,1
0.0,0.0,0.0,12623,23112,9733,11403,14786,1
0.0,0.0,0.0,12610,23112,9733,11453,14786,1
0.0,0.0,0.0,12543,23157,9755,11503,14816,1
0.0,0.0,0.0,12490,23112,9733,11515,14891,1
0.0,0.0,0.0,12424,23294,9721,11528,14786,1
0.0,0.0,0.0,12346,23339,9721,11478,14429,1
0.0,0.0,0.0,12359,23316,9733,11403,14108,1
0.0,0.0,0.0,12293,23225,9755,11453,14180,1
0.0,0.0,0.0,12293,23112,9721,11453,14547,1
0.0,0.0,0.0,12320,22977,9733,11503,14801,1
0.0,0.0,0.0,12320,22955,9744,11728,15150,1
0.0,0.0,0.0,12320,22932,9733,11766,15181,1
0.0,0.0,0.0,12267,22932,9721,11830,15165,1
0.0,0.0,0.0,12254,22910,9733,11919,15181,1
0.0,0.0,0.0,12267,22887,9733,12060,15211,1
0.0,0.0,0.0,12267,22843,9755,12060,15273,1
0.0,0.0,0.0,12228,22798,9744,12163,15288,1
0.0,0.0,0.0,12215,22798,9721,12228,15366,1
0.0,0.0,0.0,12241,22798,9733,12530,15506,1
0.0,0.0,0.0,12293,22798,9721,12797,15600,1
0.0,0.0,0.0,12280,22754,9733,12797,15553,1
0.0,0.0,0.0,12267,22776,9710,12959,15615,1
0.0,0.0,0.0,12241,22754,9755,13027,15647,1
0.0,0.0,0.0,12241,22709,9710,13027,15678,1
0.0,0.0,0.0,12241,22665,9733,13013,15710,1
0.0,0.0,0.0,12241,22665,9733,12851,15710,1
0.0,0.0,0.0,12215,22709,9733,12703,15678,1
0.0,0.0,0.0,12228,22665,9721,12385,15773,1
0.0,0.0,0.0,12280,22576,9744,12320,15837,1
0.0,0.0,0.0,12320,22621,9721,12215,15868,1
0.0,0.0,0.0,12320,22665,9733,12060,15837,1
0.0,0.0,0.0,12320,22754,9755,11996,15852,1
0.0,0.0,0.0,12346,22887,9744,11957,15868,1
0.0,0.0,0.0,12346,22932,9733,11855,15837,1
0.0,0.0,0.0,12346,22932,9755,11779,15789,1
0.0,0.0,0.0,12359,22820,9721,11754,15773,1
0.0,0.0,0.0,12372,22754,9721,11728,15647,1
0.0,0.0,0.0,12372,22621,9733,11728,15678,1
0.0,0.0,0.0,12385,22554,9733,11754,15600,1
0.0,0.0,0.0,12424,22401,9710,11868,15741,1
0.0,0.0,0.0,12451,22075,9710,12424,15900,1
0.0,0.0,0.0,12438,21818,9632,12583,15837,1
0.0,0.0,0.0,12346,21711,9643,12596,15789,1
0.0,0.0,0.0,12320,21754,9643,12583,15805,1
0.0,0.0,0.0,12267,21818,9666,12636,15773,1
0.0,0.0,0.0,12372,22161,9755,12636,15773,1
0.0,0.0,0.0,12530,22313,9755,12824,15837,1
0.0,0.0,0.0,12530,22401,9811,12797,15805,1
0.0,0.0,0.0,12490,22532,9946,12770,15837,1
0.0,0.0,0.0,12189,22313,9912,12716,15710,1
0.0,0.0,0.0,12150,22226,9912,12690,15710,1
0.0,0.0,0.0,12034,22075,9935,12690,15647,1
0.0,0.0,0.0,12137,21946,9890,12649,15647,1
0.0,0.0,0.0,12086,21818,9901,12649,15663,1
0.0,0.0,0.0,11957,21669,9878,12636,15678,1
0.0,0.0,0.0,11779,21479,9867,12663,15678,1
0.0,0.0,0.0,11754,21375,9811,12663,15647,1
0.0,0.0,0.0,11817,21648,9811,12610,15678,1
0.0,0.0,0.0,11970,21818,9845,12610,15678,1
0.0,0.0,0.0,12280,22226,10003,12649,15741,1
0.0,0.0,0.0,12810,22444,10026,12676,15741,1
0.0,0.0,0.0,13205,22709,10003,12636,15710,1
0.0,0.0,0.0,13594,22754,9845,12583,15678,1
0.0,0.0,0.0,13935,22798,9856,12530,15647,1
0.0,0.0,0.0,14195,22665,9845,12530,15600,1
0.0,0.0,0.0,14224,22621,9822,12504,15553,1
0.0,0.0,0.0,14253,22510,9867,12556,15584,1
0.0,0.0,0.0,14195,22226,9845,12504,15397,1
0.0,0.0,0.0,14253,22010,9800,12504,15397,1
0.0,0.0,0.0,14137,21690,9677,12504,15366,1
0.0,0.0,0.0,14050,21458,9699,12504,15366,1
0.0,0.0,0.0,14050,21375,9710,12504,15350,1
0.0,0.0,0.0,14021,21333,9721,12530,15366,1
0.0,0.0,0.0,13978,21333,9721,12530,15366,1
0.0,0.0,0.0,13978,21291,9721,12530,15381,1
0.0,0.0,0.0,14036,21500,9788,12517,15366,1
0.0,0.0,0.0,13978,21479,9800,12530,15335,1
0.0,0.0,0.0,13978,21542,9766,12530,15335,1
0.0,0.0,0.0,13964,21479,9766,12530,15319,1
0.0,0.0,0.0,13964,21521,9777,12490,15335,1
0.0,0.0,0.0,13978,21375,9800,12530,15335,1
0.0,0.0,0.0,14079,21229,9755,12504,15366,1
0.0,0.0,0.0,14195,21229,9733,12451,15150,1
0.0,0.0,0.0,14166,21333,9710,12320,15104,1
0.0,0.0,0.0,14253,21270,9744,12009,14861,1
0.0,0.0,0.0,14341,21542,9733,11615,14621,1
0.0,0.0,0.0,14429,21669,9755,11428,14547,1
0.0,0.0,0.0,14429,21818,9800,11268,14547,1
0.0,0.0,0.0,14473,22075,9901,11231,14532,1
0.0,0.0,0.0,14488,22140,9935,11133,14488,1
0.0,0.0,0.0,14488,22183,10003,11133,14444,1
0.0,0.0,0.0,14488,22226,10026,11109,14429,1
0.0,0.0,0.0,14488,22183,10117,11121,14224,1
0.0,0.0,0.0,14577,22096,10129,11157,13792,1
0.0,0.0,0.0,14636,22313,10186,11121,13735,1
0.0,0.0,0.0,14756,22843,10163,11109,13892,1
0.0,0.0,0.0,14786,22843,10174,11133,14195,1
0.0,0.0,0.0,14741,22709,10163,11133,14209,1
0.0,0.0,0.0,14726,22709,10163,11157,14122,1
0.0,0.0,0.0,14696,22621,10163,11182,14079,1
0.0,0.0,0.0,14726,22576,10163,11170,14050,1
0.0,0.0,0.0,14726,22532,10163,11157,14021,1
0.0,0.0,0.0,14696,22532,10163,11157,14079,1
0.0,0.0,0.0,14666,22554,10174,11182,14108,1
0.0,0.0,0.0,14607,22576,10163,11206,14108,1
0.0,0.0,0.0,14562,22532,10163,11231,14137,1
0.0,0.0,0.0,14577,22532,10140,11231,14137,1
0.0,0.0,0.0,14547,22444,10152,11255,14108,1
0.0,0.0,0.0,14562,22510,10174,11268,14050,1
0.0,0.0,0.0,14547,22466,10174,11354,14079,1
0.0,0.0,0.0,14429,22510,10232,11453,14079,1
0.0,0.0,0.0,14370,22488,10221,11428,14050,1
0.0,0.0,0.0,14326,22423,10209,11453,14050,1
0.0,0.0,0.0,14326,22444,10209,11403,14021,1
0.0,0.0,0.0,14370,22444,10209,11428,14108,1
0.0,0.0,0.0,14326,22401,10209,11453,14108,1
0.0,0.0,0.0,14341,22401,10209,11465,14064,1
0.0,0.0,0.0,14326,22401,10255,11453,14079,1
0.0,0.0,0.0,14370,22379,10221,11453,14036,1
0.0,0.0,0.0,14326,22401,10232,11453,14050,1
0.0,0.0,0.0,14326,22357,10255,11465,14079,1
0.0,0.0,0.0,14370,22401,10255,11503,14036,1
0.0,0.0,0.0,14385,22313,10255,11465,14079,1
0.0,0.0,0.0,14326,22248,10232,11478,14050,1
0.0,0.0,0.0,14297,22226,10221,11478,14108,1
0.0,0.0,0.0,14297,22183,10209,11503,14036,1
0.0,0.0,0.0,14311,22226,10232,11503,14108,1
0.0,0.0,0.0,14326,22118,10232,11478,14137,1
0.0,0.0,0.0,14282,22096,10174,11465,14195,1
0.0,0.0,0.0,14268,22140,10174,11453,14224,1
0.0,0.0,0.0,14253,22335,10163,11416,14195,1
0.0,0.0,0.0,14195,22270,10140,11403,14180,1
0.0,0.0,0.0,14195,22270,10163,11403,14137,1
0.0,0.0,0.0,14268,22248,10174,11403,14036,1
0.0,0.0,0.0,14399,22140,10244,11416,14021,1
0.0,0.0,0.0,14429,22140,10255,11416,14151,1
0.0,0.0,0.0,14385,22053,10278,11391,14021,1
0.0,0.0,0.0,14414,22053,10267,11403,13992,1
0.0,0.0,0.0,14370,22032,10267,11403,14021,1
0.0,0.0,0.0,14399,22010,10278,11403,14021,1
0.0,0.0,0.0,14370,22010,10325,11428,14036,1
0.0,0.0,0.0,14370,22010,10325,11453,14036,1
0.0,0.0,0.0,14311,22010,10313,11465,14064,1
0.0,0.0,0.0,14326,22010,10325,11503,14079,1
0.0,0.0,0.0,14268,21946,10313,11515,14036,1
0.0,0.0,0.0,14253,21946,10301,11515,14079,1
0.0,0.0,0.0,14238,22010,10325,11528,14050,1
0.0,0.0,0.0,14224,22010,10313,11528,14021,1
0.0,0.0,0.0,14238,21967,10313,11515,14036,1
0.0,0.0,0.0,14268,21967,10301,11528,14050,1
0.0,0.0,0.0,14238,21967,10301,11528,14036,1
0.0,0.0,0.0,14195,22010,10325,11503,14021,1
0.0,0.0,0.0,14209,21946,10301,11528,14050,1
0.0,0.0,0.0,14195,21967,10301,11553,14079,1
0.0,0.0,0.0,14151,22010,10325,11528,14050,1
0.0,0.0,0.0,14209,21924,10301,11515,14079,1
0.0,0.0,0.0,14209,22010,10301,11503,14108,1
0.0,0.0,0.0,14253,22010,10301,11528,14195,1
0.0,0.0,0.0,14253,22075,10301,11528,15304,1
0.0,0.0,0.0,14224,22096,10244,11628,16222,1
0.0,0.0,0.0,14209,22226,10221,11881,17220,1
0.0,0.0,0.0,14268,22488,10221,11881,17152,1
0.0,0.0,0.0,14238,22843,10209,11881,17084,1
0.0,0.0,0.0,14253,22798,10163,11932,17254,1
0.0,0.0,0.0,14311,22843,10152,11983,17152,1
0.0,0.0,0.0,14311,22910,10094,12009,16222,1
0.0,0.0,0.0,14399,22887,10129,12009,15996,1
0.0,0.0,0.0,14414,22887,10094,11970,15837,1
0.0,0.0,0.0,14399,22910,10037,11906,15741,1
0.0,0.0,0.0,14399,22932,10071,11906,15584,1
0.0,0.0,0.0,14399,22887,10071,11906,15459,1
0.0,0.0,0.0,14370,22910,10049,11881,15490,1
0.0,0.0,0.0,14385,22887,10071,11893,15428,1
0.0,0.0,0.0,14370,22932,10071,11881,15381,1
0.0,0.0,0.0,14399,22843,10071,11868,15335,1
0.0,0.0,0.0,14341,22843,10071,11868,15319,1
0.0,0.0,0.0,14370,22887,10083,11830,15335,1
0.0,0.0,0.0,14326,22887,10094,11855,15227,1
0.0,0.0,0.0,14341,22843,10117,11868,15335,1
0.0,0.0,0.0,14326,22843,10117,11881,15273,1
0.0,0.0,0.0,14355,22865,10129,11855,15273,1
0.0,0.0,0.0,14370,22843,10140,11855,15273,1
0.0,0.0,0.0,14355,22843,10163,11868,15211,1
0.0,0.0,0.0,14370,22776,10209,11868,15165,1
0.0,0.0,0.0,14370,22843,10186,11855,15211,1
0.0,0.0,0.0,14326,22754,10209,11893,15181,1
0.0,0.0,0.0,14311,22754,10209,11881,15181,1
0.0,0.0,0.0,14341,22754,10209,11855,15150,1
0.0,0.0,0.0,14370,22798,10163,11868,15150,1
0.0,0.0,0.0,14370,22798,10221,11855,15150,1
0.0,0.0,0.0,14370,22798,10232,11804,15119,1
0.0,0.0,0.0,14311,22754,10255,11779,15150,1
0.0,0.0,0.0,14370,22709,10267,11804,15150,1
0.0,0.0,0.0,14370,22599,10267,11804,15242,1
0.0,0.0,0.0,14370,22576,10209,11603,15288,1
0.0,0.0,0.0,14370,22576,10094,11465,15150,1
0.0,0.0,0.0,14341,22599,9980,11341,14458,1
0.0,0.0,0.0,14253,22687,9912,11231,14444,1
0.0,0.0,0.0,14079,22665,9935,11206,14577,1
0.0,0.0,0.0,13992,22665,9935,11206,14726,1
0.0,0.0,0.0,14007,22599,9935,11255,14846,1
0.0,0.0,0.0,13978,22576,9946,11354,15058,1
0.0,0.0,0.0,13964,22554,9946,11416,15521,1
0.0,0.0,0.0,14036,22576,9958,11428,15773,1
0.0,0.0,0.0,14137,22576,9969,11453,15647,1
0.0,0.0,0.0,14137,22576,9946,11453,15647,1
0.0,0.0,0.0,14209,22665,9958,11440,15663,1
0.0,0.0,0.0,14268,22621,9980,11428,15726,1
0.0,0.0,0.0,14370,22665,10003,11428,15490,1
0.0,0.0,0.0,14399,22665,9980,11416,15319,1
0.0,0.0,0.0,14488,22709,9946,11416,15196,1
0.0,0.0,0.0,14518,22798,9811,11379,15165,1
0.0,0.0,0.0,14562,22843,9721,11255,14786,1
0.0,0.0,0.0,14547,22843,9721,11121,14137,1
0.0,0.0,0.0,14429,22887,9733,10963,13693,1
0.0,0.0,0.0,14370,22955,9721,10771,13246,1
0.0,0.0,0.0,14268,23135,9733,10676,12918,1
0.0,0.0,0.0,14050,23203,9733,10629,12743,1
0.0,0.0,0.0,13921,23203,9721,10605,12636,1
0.0,0.0,0.0,13792,23225,9733,10558,12583,1
0.0,0.0,0.0,13679,23294,9721,10535,12583,1
0.0,0.0,0.0,13650,23203,9744,10582,12543,1
0.0,0.0,0.0,13665,23180,9733,10582,12530,1
0.0,0.0,0.0,13622,23112,9733,10546,12490,1
0.0,0.0,0.0,13608,23157,9733,10558,12490,1
0.0,0.0,0.0,13608,23135,9755,10535,12490,1
0.0,0.0,0.0,13566,23067,9721,10558,12451,1
0.0,0.0,0.0,13510,23067,9721,10558,12346,1
0.0,0.0,0.0,13510,23067,9733,10535,12346,1
0.0,0.0,0.0,13412,23044,9744,10535,12293,1
0.0,0.0,0.0,13371,23067,9733,10535,12398,1
0.0,0.0,0.0,13287,22999,9710,10535,12320,1
0.0,0.0,0.0,13287,22977,9710,10535,12293,1
0.0,0.0,0.0,13260,22977,9721,10535,12320,1
0.0,0.0,0.0,13246,22932,9744,10499,12293,1
0.0,0.0,0.0,13232,22977,9721,10511,12215,1
0.0,0.0,0.0,13232,22887,9710,10499,12215,1
0.0,0.0,0.0,13205,22932,9733,10511,12163,1
0.0,0.0,0.0,13232,22932,9710,10511,12176,1
0.0,0.0,0.0,13232,22887,9733,10511,12176,1
0.0,0.0,0.0,13205,22843,9710,10499,12215,1
0.0,0.0,0.0,13232,22865,9733,10511,12189,1
0.0,0.0,0.0,13274,22887,9721,10488,12215,1
0.0,0.0,0.0,13301,22798,9733,10511,12150,1
0.0,0.0,0.0,13301,22843,9755,10511,12202,1
0.0,0.0,0.0,13287,22843,9733,10511,12228,1
0.0,0.0,0.0,13315,22820,9710,10499,12228,1
0.0,0.0,0.0,13343,22843,9721,10511,12202,1
0.0,0.0,0.0,13329,22820,9733,10511,12176,1
0.0,0.0,0.0,13315,22820,9755,10511,12215,1
0.0,0.0,0.0,13371,22798,9710,10499,12215,1
0.0,0.0,0.0,13357,22843,9733,10511,12176,1
0.0,0.0,0.0,13357,22754,9721,10511,12163,1
0.0,0.0,0.0,13398,22798,9733,10488,12215,1
0.0,0.0,0.0,13412,22776,9733,10499,12228,1
0.0,0.0,0.0,13357,22798,9733,10511,12228,1
0.0,0.0,0.0,13398,22754,9733,10511,12189,1
0.0,0.0,0.0,13398,22754,9721,10499,12215,1
0.0,0.0,0.0,13371,22754,9721,10511,12189,1
0.0,0.0,0.0,13371,22731,9721,10511,12228,1
0.0,0.0,0.0,13343,22754,9721,10511,12228,1
0.0,0.0,0.0,13357,22709,9721,10511,12228,1
0.0,0.0,0.0,13371,22709,9710,10488,12228,1
0.0,0.0,0.0,13454,22754,9710,10511,12267,1
0.0,0.0,0.0,13482,22754,9733,10511,12267,1
0.0,0.0,0.0,13454,22754,9733,10535,12280,1
0.0,0.0,0.0,13482,22709,9733,10499,12267,1
0.0,0.0,0.0,13482,22776,9710,10499,12293,1
0.0,0.0,0.0,13454,22798,9721,10535,12241,1
0.0,0.0,0.0,13482,22776,9733,10535,12267,1
0.0,0.0,0.0,13454,22887,9721,10605,12346,1
0.0,0.0,0.0,13482,22865,9721,10748,12504,1
0.0,0.0,0.0,13510,22887,9733,10927,12756,1
0.0,0.0,0.0,13566,22955,9733,11206,13068,1
0.0,0.0,0.0,13566,22932,9721,11428,13398,1
0.0,0.0,0.0,13580,22955,9777,11728,13679,1
0.0,0.0,0.0,13721,23022,10348,12372,14238,1
0.0,0.0,0.0,13849,23157,10700,13343,14997,1
0.0,0.0,0.0,13921,23157,10855,13964,15710,1
0.0,0.0,0.0,14036,23225,10975,14414,16222,1
0.0,0.0,0.0,14108,23203,10927,14399,16368,1
0.0,0.0,0.0,14166,23225,10867,14224,16582,1
0.0,0.0,0.0,14195,23431,10879,14253,17933,1
0.0,0.0,0.0,14488,23499,10963,14224,18236,1
0.0,0.0,0.0,14696,23569,10963,14282,18129,1
0.0,0.0,0.0,14861,23661,10963,14547,17986,1
0.0,0.0,0.0,14786,23569,10975,14621,17792,1
0.0,0.0,0.0,14801,23522,11012,14621,17774,1
0.0,0.0,0.0,14846,23499,11157,14681,17774,1
0.0,0.0,0.0,14982,23477,11304,14846,17933,1
0.0,0.0,0.0,15028,23477,11428,14982,17986,1
0.0,0.0,0.0,15028,23431,11440,14967,18022,1
0.0,0.0,0.0,15028,23431,11503,14997,17951,1
0.0,0.0,0.0,15104,23316,11628,15242,18004,1
0.0,0.0,0.0,15459,23385,12034,16060,18931,1
0.0,0.0,0.0,15459,23339,12241,16582,18562,1
0.0,0.0,0.0,15521,23385,12583,17495,18218,1
0.0,0.0,0.0,15521,23339,12477,17289,17862,1
0.0,0.0,0.0,15459,23316,12346,17050,17757,1
0.0,0.0,0.0,15428,23339,12280,16898,17565,1
0.0,0.0,0.0,15412,23294,12241,16781,17426,1
0.0,0.0,0.0,15381,23248,12267,16698,17495,1
0.0,0.0,0.0,15366,23248,12320,16748,17565,1
0.0,0.0,0.0,15366,23203,12636,17289,17739,1
0.0,0.0,0.0,15366,23248,12851,17669,17862,1
0.0,0.0,0.0,15428,23203,12770,17426,17792,1
0.0,0.0,0.0,15459,23203,12477,17016,17845,1
0.0,0.0,0.0,15584,23225,12477,16898,17933,1
0.0,0.0,0.0,15553,23271,12424,16865,17862,1
0.0,0.0,0.0,15584,23294,12398,16582,17739,1
0.0,0.0,0.0,15647,23225,12398,16615,17739,1
0.0,0.0,0.0,15631,23157,12424,16615,17669,1
0.0,0.0,0.0,15678,23203,12424,16582,17634,1
0.0,0.0,0.0,15726,23294,12398,16549,17495,1
0.0,0.0,0.0,15805,23294,12372,16516,17461,1
0.0,0.0,0.0,15932,23248,12346,16516,17426,1
0.0,0.0,0.0,15996,23339,12280,16499,17323,1
0.0,0.0,0.0,16076,23385,12228,16483,17357,1
0.0,0.0,0.0,16222,23385,12215,16483,17323,1
0.0,0.0,0.0,16287,23385,12215,16450,17323,1
0.0,0.0,0.0,16549,23454,12176,16499,17289,1
0.0,0.0,0.0,16748,23499,12189,16450,17220,1
0.0,0.0,0.0,16949,23294,12163,16434,17152,1
0.0,0.0,0.0,17016,22932,12163,16483,17033,1
0.0,0.0,0.0,17084,22621,12163,16417,16983,1
0.0,0.0,0.0,17084,22313,12163,16483,16983,1
0.0,0.0,0.0,17033,22248,12124,16450,16983,1
0.0,0.0,0.0,16949,22226,12124,16417,16949,1
0.0,0.0,0.0,16966,22226,12112,16417,17016,1
0.0,0.0,0.0,16898,22226,12099,16368,16915,1
0.0,0.0,0.0,16898,22270,12034,16352,16882,1
0.0,0.0,0.0,16882,22205,12034,16336,16781,1
0.0,0.0,0.0,16915,22226,12009,16238,16781,1
0.0,0.0,0.0,16815,22226,12009,16222,16731,1
0.0,0.0,0.0,16882,22183,12009,16206,16715,1
0.0,0.0,0.0,16831,22183,12009,16189,16765,1
0.0,0.0,0.0,16831,22140,12009,16157,16715,1
0.0,0.0,0.0,16882,22183,12009,16222,16715,1
0.0,0.0,0.0,16949,22075,12009,16222,16681,1
0.0,0.0,0.0,16882,21946,12073,16238,16731,1
0.0,0.0,0.0,16831,21754,12073,16222,16698,1
0.0,0.0,0.0,16815,21627,12060,16222,16681,1
0.0,0.0,0.0,16815,21627,12073,16206,16698,1
0.0,0.0,0.0,16765,21563,12086,16222,16632,1
0.0,0.0,0.0,16715,21563,12060,16141,16648,1
0.0,0.0,0.0,16681,21584,12034,16141,16615,1
0.0,0.0,0.0,16648,21584,12009,16093,16632,1
0.0,0.0,0.0,16615,21627,11983,16060,16615,1
0.0,0.0,0.0,16582,21669,11957,15900,16549,1
0.0,0.0,0.0,16582,21627,11919,15852,16565,1
0.0,0.0,0.0,16549,21627,11906,15726,16549,1
0.0,0.0,0.0,16549,21669,11868,15710,16549,1
0.0,0.0,0.0,16483,21648,11868,15600,16499,1
0.0,0.0,0.0,16352,21775,11528,14311,16319,1
0.0,0.0,0.0,16222,21754,11133,13246,15273,1
0.0,0.0,0.0,16060,21796,10867,12424,14547,1
0.0,0.0,0.0,15852,21796,10594,11842,14079,1
0.0,0.0,0.0,15600,21733,10197,11403,13426,1
0.0,0.0,0.0,15475,21818,9777,11182,13013,1
0.0,0.0,0.0,15397,22010,9733,10915,12649,1
0.0,0.0,0.0,15242,21924,9632,10795,12530,1
0.0,0.0,0.0,15089,22010,9721,10688,12320,1
0.0,0.0,0.0,14922,21924,9654,10653,12228,1
0.0,0.0,0.0,14786,22010,9721,10676,12163,1
0.0,0.0,0.0,14503,22010,9733,10629,12086,1
0.0,0.0,0.0,14137,21924,9621,10605,12021,1
0.0,0.0,0.0,14036,22010,9721,10594,12009,1
0.0,0.0,0.0,13906,21946,9643,10582,12034,1
0.0,0.0,0.0,13806,21967,9643,10558,11996,1
0.0,0.0,0.0,13806,21839,9643,10582,11970,1
0.0,0.0,0.0,13764,22010,9733,10558,11970,1
0.0,0.0,0.0,13735,22010,9733,10558,11957,1
0.0,0.0,0.0,13735,22010,9721,10570,11983,1
0.0,0.0,0.0,13735,21924,9643,10546,11957,1
0.0,0.0,0.0,13735,21924,9632,10582,11957,1
0.0,0.0,0.0,13707,21967,9654,10546,11919,1
0.0,0.0,0.0,13735,22075,9721,10546,11957,1
0.0,0.0,0.0,13707,22096,9721,10546,11906,1
0.0,0.0,0.0,13679,22335,9721,10558,11957,1
0.0,0.0,0.0,13665,22401,9733,10546,11919,1
0.0,0.0,0.0,13679,22401,9721,10582,11932,1
0.0,0.0,0.0,13650,22401,9710,10582,11944,1
0.0,0.0,0.0,13650,22488,9721,10582,11932,1
0.0,0.0,0.0,13679,22444,9721,10582,11906,1
0.0,0.0,0.0,13707,22401,9721,10582,11906,1
0.0,0.0,0.0,13650,22488,9733,10605,11881,1
0.0,0.0,0.0,13650,22444,9710,10605,11919,1
0.0,0.0,0.0,13707,22444,9755,10629,11932,1
0.0,0.0,0.0,13749,22313,9733,10605,12009,1
0.0,0.0,0.0,13821,22161,9755,10629,11970,1
0.0,0.0,0.0,13863,22096,9721,10653,12034,1
0.0,0.0,0.0,13792,22053,9755,10641,12060,1
0.0,0.0,0.0,13849,21967,9632,10653,12034,1
0.0,0.0,0.0,13992,22010,9733,10676,12060,1
0.0,0.0,0.0,13992,22010,9721,10676,12060,1
0.0,0.0,0.0,13863,22053,9721,10676,12086,1
0.0,0.0,0.0,13749,22053,9733,10653,12073,1
0.0,0.0,0.0,13636,22161,9733,10653,12086,1
0.0,0.0,0.0,13566,22335,9721,10676,12112,1
0.0,0.0,0.0,13482,22335,9721,10676,12137,1
0.0,0.0,0.0,13636,22554,9733,10676,12163,1
0.0,0.0,0.0,13964,23022,9721,10688,12163,1
0.0,0.0,0.0,13978,23225,9733,10676,12163,1
0.0,0.0,0.0,14021,23294,9733,10676,12228,1
0.0,0.0,0.0,14137,23385,9733,10676,12267,1
0.0,0.0,0.0,14209,23339,9721,10676,12490,1
0.0,0.0,0.0,14224,23248,9721,10700,12583,1
0.0,0.0,0.0,14326,23157,9733,10724,12837,1
0.0,0.0,0.0,14458,23180,9721,10748,12999,1
0.0,0.0,0.0,14488,23157,9721,10795,13027,1
0.0,0.0,0.0,14607,23112,9744,10783,13191,1
0.0,0.0,0.0,14726,23067,9733,10819,13232,1
0.0,0.0,0.0,14801,23044,9755,10843,13343,1
0.0,0.0,0.0,14786,23022,9733,10879,13301,1
0.0,0.0,0.0,14726,22887,9733,10927,13177,1
0.0,0.0,0.0,14801,22731,9710,10915,13122,1
0.0,0.0,0.0,14876,22665,9721,10927,13109,1
0.0,0.0,0.0,14816,22621,9721,10915,13081,1
0.0,0.0,0.0,14726,22576,9721,10915,13013,1
0.0,0.0,0.0,14607,22576,9710,10927,13013,1
0.0,0.0,0.0,14503,22576,9733,10915,12959,1
0.0,0.0,0.0,14473,22576,9721,10903,12932,1
0.0,0.0,0.0,14488,22532,9733,10915,12972,1
0.0,0.0,0.0,14547,22488,9733,10891,12918,1
0.0,0.0,0.0,14666,22488,9733,10891,12905,1
0.0,0.0,0.0,14577,22488,9721,10891,12905,1
0.0,0.0,0.0,14577,22488,9721,10879,12905,1
0.0,0.0,0.0,14488,22510,9733,10819,12864,1
0.0,0.0,0.0,14488,22576,9721,10843,12905,1
0.0,0.0,0.0,14503,22599,9721,10819,12878,1
0.0,0.0,0.0,14488,22665,9733,10831,12851,1
0.0,0.0,0.0,14488,22709,9733,10831,12851,1
0.0,0.0,0.0,14488,22709,9733,10831,12851,1
0.0,0.0,0.0,14488,22709,9733,10831,12810,1
0.0,0.0,0.0,14473,22709,9721,10867,12703,1
0.0,0.0,0.0,14458,22709,9710,10843,12663,1
0.0,0.0,0.0,14429,22709,9710,10843,12530,1
0.0,0.0,0.0,14429,22665,9721,10843,12477,1
0.0,0.0,0.0,14429,22621,9721,10867,12438,1
0.0,0.0,0.0,14429,22665,9733,10891,12477,1
0.0,0.0,0.0,14385,22621,9733,10867,12411,1
0.0,0.0,0.0,14429,22621,9733,10867,12372,1
0.0,0.0,0.0,14370,22576,9721,10867,12320,1
0.0,0.0,0.0,14341,22576,9721,10867,12346,1
0.0,0.0,0.0,14370,22599,9721,10867,12320,1
0.0,0.0,0.0,14311,22621,9733,10843,12293,1
0.0,0.0,0.0,14253,22621,9721,10831,12215,1
0.0,0.0,0.0,14180,22843,9721,10748,12112,1
0.0,0.0,0.0,14122,22977,9710,10653,12009,1
0.0,0.0,0.0,14079,22932,9733,10676,11983,1
0.0,0.0,0.0,14079,22999,9733,10653,11957,1
0.0,0.0,0.0,14079,22977,9721,10676,11919,1
0.0,0.0,0.0,14021,22932,9733,10676,11932,1
0.0,0.0,0.0,14036,22977,9755,10641,11906,1
0.0,0.0,0.0,13978,23022,9721,10653,11957,1
0.0,0.0,0.0,13921,23067,9733,10629,11906,1
0.0,0.0,0.0,13921,23157,9733,10676,11957,1
0.0,0.0,0.0,13835,23157,9721,10748,12215,1
0.0,0.0,0.0,13749,23248,9744,10879,13679,1
0.0,0.0,0.0,13622,23225,9721,11060,14282,1
0.0,0.0,0.0,13622,23067,9755,11060,14444,1
0.0,0.0,0.0,13566,22977,9777,11060,14429,1
0.0,0.0,0.0,13594,22887,9845,11036,14341,1
0.0,0.0,0.0,13566,22798,9912,11012,14224,1
0.0,0.0,0.0,13510,22754,9845,11012,14151,1
0.0,0.0,0.0,13510,22776,9800,10999,14021,1
0.0,0.0,0.0,13538,22709,9755,10963,13949,1
0.0,0.0,0.0,13426,22621,9733,10939,13935,1
0.0,0.0,0.0,13398,22643,9721,10915,13821,1
0.0,0.0,0.0,13398,22643,9755,10915,13792,1
0.0,0.0,0.0,13398,22599,9733,10891,13764,1
0.0,0.0,0.0,13287,22576,9710,10891,13764,1
0.0,0.0,0.0,13013,22444,9733,10867,13622,1
0.0,0.0,0.0,12851,22313,9721,10795,13510,1
0.0,0.0,0.0,12770,22226,9721,10795,13426,1
0.0,0.0,0.0,12743,22226,9721,10748,13398,1
0.0,0.0,0.0,12703,22248,9710,10748,13343,1
0.0,0.0,0.0,12690,22270,9721,10748,13287,1
0.0,0.0,0.0,12716,22270,9733,10748,13301,1
0.0,0.0,0.0,12690,22248,9733,10724,13287,1
0.0,0.0,0.0,12730,22248,9733,10748,13122,1
0.0,0.0,0.0,12703,22226,9721,10676,12851,1
0.0,0.0,0.0,12663,22226,9733,10594,12690,1
0.0,0.0,0.0,12596,22226,9710,10582,12583,1
0.0,0.0,0.0,12543,22161,9744,10582,12596,1
0.0,0.0,0.0,12583,22161,9721,10546,12556,1
0.0,0.0,0.0,12556,22140,9710,10582,12583,1
0.0,0.0,0.0,12543,22205,9721,10558,12543,1
0.0,0.0,0.0,12543,22118,9733,10594,12556,1
0.0,0.0,0.0,12543,22096,9721,10546,12530,1
0.0,0.0,0.0,12517,22140,9733,10546,12530,1
0.0,0.0,0.0,12504,22140,9721,10546,12517,1
0.0,0.0,0.0,12438,22096,9744,10523,12477,1
0.0,0.0,0.0,12424,22096,9710,10523,12504,1
0.0,0.0,0.0,12372,22075,9721,10535,12477,1
0.0,0.0,0.0,12372,22075,9733,10499,12451,1
0.0,0.0,0.0,12372,22096,9733,10511,12477,1
0.0,0.0,0.0,12372,22183,9733,10535,12504,1
0.0,0.0,0.0,12372,22248,9721,10535,12490,1
0.0,0.0,0.0,12228,22313,9721,10582,12583,1
0.0,0.0,0.0,12124,22444,9721,10629,12690,1
0.0,0.0,0.0,12060,22488,9733,10831,13315,1
0.0,0.0,0.0,12009,22488,9733,11072,13566,1
0.0,0.0,0.0,12073,22488,9733,11060,13524,1
0.0,0.0,0.0,12112,22532,9733,10963,13398,1
0.0,0.0,0.0,12124,22532,9721,10975,13315,1
0.0,0.0,0.0,12163,22532,9721,10987,13566,1
0.0,0.0,0.0,12176,22576,9744,11012,13650,1
0.0,0.0,0.0,12163,22510,9755,10987,13566,1
0.0,0.0,0.0,12228,22599,9721,11024,13622,1
0.0,0.0,0.0,12267,22709,9733,11182,13992,1
0.0,0.0,0.0,12623,22709,10453,12009,14786,1
0.0,0.0,0.0,12851,22731,10394,11983,16060,1
0.0,0.0,0.0,13013,22754,10348,11868,16385,1
0.0,0.0,0.0,13232,22843,10348,11754,16173,1
0.0,0.0,0.0,13454,22910,10464,11855,16983,1
0.0,0.0,0.0,13863,22955,10664,12743,19612,1
0.0,0.0,0.0,14021,22865,10676,12905,19843,1
0.0,0.0,0.0,14036,22887,10676,12851,19458,1
0.0,0.0,0.0,14137,22887,10724,12959,19554,1
0.0,0.0,0.0,14108,22910,10700,12851,19382,1
0.0,0.0,0.0,14079,22865,10676,12824,19268,1
0.0,0.0,0.0,14108,22865,10653,12851,19287,1
0.0,0.0,0.0,14122,22887,10676,12986,18783,1
0.0,0.0,0.0,14108,22843,10641,13122,18709,1
0.0,0.0,0.0,14108,22798,10641,13150,19005,1
0.0,0.0,0.0,14108,22754,10629,13122,18783,1
0.0,0.0,0.0,14108,22843,10617,13068,18727,1
0.0,0.0,0.0,14108,22820,10546,13150,17739,1
0.0,0.0,0.0,14079,22865,10546,12905,17254,1
0.0,0.0,0.0,14108,22798,10535,12530,17513,1
0.0,0.0,0.0,14137,22776,10535,12280,17915,1
0.0,0.0,0.0,14195,22798,10535,12112,17513,1
0.0,0.0,0.0,14253,22798,10535,12163,17357,1
0.0,0.0,0.0,14297,22798,10535,12228,17152,1
0.0,0.0,0.0,14370,22865,10499,12477,16681,1
0.0,0.0,0.0,14696,22776,10488,12424,16483,1
0.0,0.0,0.0,14771,22754,10441,12254,16450,1
0.0,0.0,0.0,14801,22754,10394,11906,16401,1
0.0,0.0,0.0,14801,22754,10394,11766,16352,1
0.0,0.0,0.0,14756,22776,10267,11603,16368,1
0.0,0.0,0.0,14726,22709,10163,11478,16385,1
0.0,0.0,0.0,14681,22665,10026,11428,16434,1
0.0,0.0,0.0,14666,22687,10003,11416,16157,1
0.0,0.0,0.0,14636,22709,10003,11416,16012,1
0.0,0.0,0.0,14636,22643,9980,11403,15916,1
0.0,0.0,0.0,14621,22665,9946,11403,15868,1
0.0,0.0,0.0,14577,22599,10003,11403,15726,1
0.0,0.0,0.0,14547,22621,9980,11403,15615,1
0.0,0.0,0.0,14577,22665,9980,11366,15553,1
0.0,0.0,0.0,14547,22532,9980,11403,15615,1
0.0,0.0,0.0,14503,22532,10003,11403,15647,1
0.0,0.0,0.0,14429,22554,10026,11403,15521,1
0.0,0.0,0.0,14370,22488,10037,11379,15428,1
0.0,0.0,0.0,14370,22488,10026,11403,15397,1
0.0,0.0,0.0,14370,22532,10003,11403,15412,1
0.0,0.0,0.0,14268,22576,9777,11354,15366,1
0.0,0.0,0.0,14209,22488,9733,11317,15428,1
0.0,0.0,0.0,14180,22488,9733,11304,15459,1
0.0,0.0,0.0,14108,22488,9733,11304,15412,1
0.0,0.0,0.0,14079,22466,9710,11317,15537,1
0.0,0.0,0.0,14050,22444,9710,11317,15568,1
0.0,0.0,0.0,14064,22401,9721,11317,15490,1
0.0,0.0,0.0,14079,22401,9710,11304,15475,1
0.0,0.0,0.0,14079,22444,9733,11317,15459,1
0.0,0.0,0.0,14036,22401,9733,11317,15490,1
0.0,0.0,0.0,14036,22357,9721,11354,15490,1
0.0,0.0,0.0,13992,22401,9721,11354,15412,1
0.0,0.0,0.0,14079,22401,9733,11379,15412,1
0.0,0.0,0.0,14021,22357,9710,11403,15412,1
0.0,0.0,0.0,13978,22401,9721,11403,15397,1
0.0,0.0,0.0,13992,22357,9721,11428,15412,1
0.0,0.0,0.0,13964,22357,9721,11428,15397,1
0.0,0.0,0.0,13935,22401,9721,11428,15428,1
0.0,0.0,0.0,13935,22357,9721,11416,15412,1
0.0,0.0,0.0,13906,22357,9721,11428,15397,1
0.0,0.0,0.0,13906,22335,9755,11416,15366,1
0.0,0.0,0.0,13892,22357,9733,11428,15381,1
0.0,0.0,0.0,13863,22313,9721,11403,15397,1
0.0,0.0,0.0,13878,22313,9733,11403,15397,1
0.0,0.0,0.0,13863,22335,9744,11428,15350,1
0.0,0.0,0.0,13849,22313,9721,11403,15366,1
0.0,0.0,0.0,13863,22313,9721,11416,15366,1
0.0,0.0,0.0,13906,22313,9710,11416,15304,1
0.0,0.0,0.0,13878,22226,9721,11416,15366,1
0.0,0.0,0.0,13849,22313,9744,11416,15335,1
0.0,0.0,0.0,13849,22270,9721,11453,15335,1
0.0,0.0,0.0,13863,22270,9721,11416,15288,1
0.0,0.0,0.0,13849,22270,9733,11403,15288,1
0.0,0.0,0.0,13849,22248,9710,11453,15366,1
0.0,0.0,0.0,13849,22270,9755,11440,15350,1
0.0,0.0,0.0,13849,22313,9755,11403,15335,1
0.0,0.0,0.0,13863,22270,9744,11428,15304,1
0.0,0.0,0.0,13849,22270,9755,11428,15335,1
0.0,0.0,0.0,13863,22270,9766,11403,15335,1
0.0,0.0,0.0,13906,22248,9766,11403,15288,1
0.0,0.0,0.0,13906,22248,9755,11416,15288,1
0.0,0.0,0.0,13906,22226,9766,11403,15288,1
0.0,0.0,0.0,13906,22226,9755,11416,15273,1
0.0,0.0,0.0,13863,22248,9777,11403,15335,1
0.0,0.0,0.0,13906,22270,9766,11453,15335,1
0.0,0.0,0.0,13892,22248,9755,11428,15273,1
0.0,0.0,0.0,13878,22313,9755,11428,15273,1
0.0,0.0,0.0,13878,22226,9766,11416,15288,1
0.0,0.0,0.0,13906,22248,9766,11428,15242,1
0.0,0.0,0.0,13906,22248,9788,11416,15227,1
0.0,0.0,0.0,13863,22226,9777,11428,15242,1
0.0,0.0,0.0,13892,22226,9788,11416,15211,1
0.0,0.0,0.0,13892,22270,9766,11416,15211,1
0.0,0.0,0.0,13906,22226,9766,11416,15211,1
0.0,0.0,0.0,13906,22226,9777,11403,15242,1
0.0,0.0,0.0,13863,22226,9766,11453,15211,1
0.0,0.0,0.0,13906,22226,9800,11453,15181,1
0.0,0.0,0.0,13906,22183,9777,11416,15211,1
0.0,0.0,0.0,13906,22205,9766,11416,15211,1
0.0,0.0,0.0,13878,22226,9800,11453,15211,1
0.0,0.0,0.0,13863,22183,9800,11453,15181,1
0.0,0.0,0.0,13849,22226,9777,11428,15211,1
0.0,0.0,0.0,13863,22226,9800,11416,15211,1
0.0,0.0,0.0,13849,22205,9811,11428,15211,1
0.0,0.0,0.0,13863,22226,9800,11428,15165,1
0.0,0.0,0.0,13849,22183,9822,11453,15227,1
0.0,0.0,0.0,13849,22183,9822,11453,15227,1
0.0,0.0,0.0,13849,22183,9811,11416,15196,1
0.0,0.0,0.0,13863,22183,9845,11403,15211,1
0.0,0.0,0.0,13863,22183,9890,11403,15242,1
0.0,0.0,0.0,13835,22183,9890,11416,15227,1
0.0,0.0,0.0,13849,22161,9912,11416,15196,1
0.0,0.0,0.0,13849,22183,9912,11428,15211,1
0.0,0.0,0.0,13835,22161,9890,11428,15242,1
0.0,0.0,0.0,13764,22140,9890,11403,15288,1
0.0,0.0,0.0,13764,22096,9935,11416,15242,1
0.0,0.0,0.0,13735,22140,9890,11416,15242,1
0.0,0.0,0.0,13735,22140,9890,11416,15273,1
0.0,0.0,0.0,13749,22140,9890,11428,15273,1
0.0,0.0,0.0,13749,22096,9901,11453,15273,1
0.0,0.0,0.0,13764,22096,9901,11403,15288,1
0.0,0.0,0.0,13749,22075,9912,11416,15227,1
0.0,0.0,0.0,13735,22096,9901,11416,15227,1
0.0,0.0,0.0,13749,22140,9901,11416,15227,1
0.0,0.0,0.0,13764,22140,9890,11416,15211,1
0.0,0.0,0.0,13735,22096,9912,11416,15242,1
0.0,0.0,0.0,13735,22075,9935,11416,15227,1
0.0,0.0,0.0,13749,22140,9935,11428,15227,1
0.0,0.0,0.0,13792,22096,9935,11379,15227,1
0.0,0.0,0.0,13735,22075,9935,11416,15196,1
0.0,0.0,0.0,13778,22140,9935,11403,15181,1
0.0,0.0,0.0,13792,22118,9946,11403,15211,1
0.0,0.0,0.0,13735,22096,9958,11416,15165,1
0.0,0.0,0.0,13764,22140,9935,11416,15181,1
0.0,0.0,0.0,13735,22096,9958,11428,15211,1
0.0,0.0,0.0,13778,22096,9958,11403,15165,1
0.0,0.0,0.0,13764,22140,9946,11403,15165,1
0.0,0.0,0.0,13778,22096,9946,11416,15211,1
0.0,0.0,0.0,13749,22053,9980,11416,15211,1
0.0,0.0,0.0,13792,22053,9935,11403,15165,1
0.0,0.0,0.0,13764,22075,9935,11403,15181,1
0.0,0.0,0.0,13792,22270,9811,11416,15196,1
0.0,0.0,0.0,13849,22292,9755,11416,15119,1
0.0,0.0,0.0,13849,22313,9721,11379,15104,1
0.0,0.0,0.0,13849,22335,9755,11379,15104,1
0.0,0.0,0.0,13849,22270,9721,11391,15196,1
0.0,0.0,0.0,13849,22248,9755,11366,15335,1
0.0,0.0,0.0,13906,22248,9733,11379,15273,1
0.0,0.0,0.0,13935,22248,9721,11329,15181,1
0.0,0.0,0.0,13978,22248,9721,11304,15119,1
0.0,0.0,0.0,14137,22270,9733,11304,15058,1
0.0,0.0,0.0,14311,22313,9733,11268,14997,1
0.0,0.0,0.0,14756,22357,9733,11304,14907,1
0.0,0.0,0.0,15150,22357,9710,11304,14876,1
0.0,0.0,0.0,15397,22401,9733,11268,14786,1
0.0,0.0,0.0,15475,22335,9688,11304,14846,1
0.0,0.0,0.0,15412,22313,9721,11292,15165,1
0.0,0.0,0.0,15459,22248,9721,11354,15397,1
0.0,0.0,0.0,15506,22270,9744,11354,15663,1
0.0,0.0,0.0,15521,22248,9721,11354,15553,1
0.0,0.0,0.0,15521,22226,9744,11354,15459,1
0.0,0.0,0.0,15537,22226,9744,11354,15506,1
0.0,0.0,0.0,15521,22183,9755,11304,15443,1
0.0,0.0,0.0,15584,22183,9755,11354,15350,1
0.0,0.0,0.0,15584,22161,9755,11317,15242,1
0.0,0.0,0.0,15647,22140,9777,11280,15074,1
0.0,0.0,0.0,15726,22118,9755,11280,15013,1
0.0,0.0,0.0,15741,22032,9744,11304,14907,1
0.0,0.0,0.0,15710,21924,9666,11268,14846,1
0.0,0.0,0.0,15694,21733,9721,11268,14726,1
0.0,0.0,0.0,15647,21458,9800,11354,14385,1
0.0,0.0,0.0,15600,21458,9856,11366,14108,1
0.0,0.0,0.0,15584,21458,9912,11403,13792,1
0.0,0.0,0.0,15490,21458,9980,11453,13454,1
0.0,0.0,0.0,15412,21375,9980,11453,13343,1
0.0,0.0,0.0,15397,21375,10003,11403,13260,1
0.0,0.0,0.0,15335,21312,9992,11403,13191,1
0.0,0.0,0.0,15350,21312,10026,11366,13205,1
0.0,0.0,0.0,15288,21312,10003,11354,13260,1
0.0,0.0,0.0,15273,21312,10003,11341,13371,1
0.0,0.0,0.0,15258,21375,9980,11329,13357,1
0.0,0.0,0.0,15242,21375,9946,11354,13412,1
0.0,0.0,0.0,15211,21458,9867,11304,13594,1
0.0,0.0,0.0,15150,21542,9856,11304,13679,1
0.0,0.0,0.0,15119,21542,9935,11329,14488,1
0.0,0.0,0.0,15104,21479,10003,11603,15678,1
0.0,0.0,0.0,15043,21458,10014,11817,15980,1
0.0,0.0,0.0,15058,21479,10026,11754,15553,1
0.0,0.0,0.0,15058,21416,10026,11653,15242,1
0.0,0.0,0.0,15028,21458,10026,11603,15165,1
0.0,0.0,0.0,15028,21479,10037,11578,15150,1
0.0,0.0,0.0,15058,21479,10026,11628,15397,1
0.0,0.0,0.0,15028,21458,10049,11779,15964,1
0.0,0.0,0.0,15043,21775,10003,11957,16565,1
0.0,0.0,0.0,15074,21882,9980,12060,16632,1
0.0,0.0,0.0,15089,22140,10026,12112,16615,1
0.0,0.0,0.0,15119,22075,10049,12021,16516,1
0.0,0.0,0.0,15104,22096,10026,11983,16483,1
0.0,0.0,0.0,15150,22248,10026,11906,16385,1
0.0,0.0,0.0,15150,22313,9992,11906,16352,1
0.0,0.0,0.0,15119,22313,9935,12137,16549,1
0.0,0.0,0.0,15104,22313,9946,12215,16483,1
0.0,0.0,0.0,15150,22357,9958,12124,16125,1
0.0,0.0,0.0,15074,22357,9958,12009,15932,1
0.0,0.0,0.0,15089,22357,9969,11957,15710,1
0.0,0.0,0.0,15135,22335,10255,11817,14922,1
0.0,0.0,0.0,15119,22444,10278,11754,14385,1
0.0,0.0,0.0,15119,22488,10278,11691,14151,1
0.0,0.0,0.0,15150,22423,10348,11653,14021,1
0.0,0.0,0.0,15150,22444,10371,11615,13935,1
0.0,0.0,0.0,15119,22401,10383,11565,13849,1
0.0,0.0,0.0,15119,22401,10418,11565,13764,1
0.0,0.0,0.0,15104,22401,10418,11553,13735,1
0.0,0.0,0.0,15058,22423,10348,11553,13792,1
0.0,0.0,0.0,15013,22423,10267,11515,14166,1
0.0,0.0,0.0,14997,22488,10221,11603,15028,1
0.0,0.0,0.0,14876,22401,10174,11754,16093,1
0.0,0.0,0.0,14907,22401,10117,11728,16336,1
0.0,0.0,0.0,14907,22444,10094,11716,16352,1
0.0,0.0,0.0,14907,22423,10071,11728,16157,1
0.0,0.0,0.0,14891,22444,10071,11804,16109,1
0.0,0.0,0.0,14907,22401,10083,11817,16060,1
0.0,0.0,0.0,14846,22401,10094,11703,15900,1
0.0,0.0,0.0,14861,22444,10129,11603,15553,1
0.0,0.0,0.0,14801,22423,10232,11603,15273,1
0.0,0.0,0.0,14816,22466,10267,11528,14592,1
0.0,0.0,0.0,14801,22444,10301,11503,14253,1
0.0,0.0,0.0,14786,22466,10255,11453,13878,1
0.0,0.0,0.0,14756,22488,10278,11428,13622,1
0.0,0.0,0.0,14741,22488,10255,11354,13371,1
0.0,0.0,0.0,14726,22554,10209,11268,13232,1
0.0,0.0,0.0,14741,22643,10049,11182,13122,1
0.0,0.0,0.0,14681,22665,10026,11109,12743,1
0.0,0.0,0.0,14666,22576,10003,11012,12690,1
0.0,0.0,0.0,14607,22532,9980,10963,12596,1
0.0,0.0,0.0,14547,22576,9901,10915,12583,1
0.0,0.0,0.0,14532,22576,9845,10843,12556,1
0.0,0.0,0.0,14444,22554,9755,10819,12530,1
0.0,0.0,0.0,14370,22576,9733,10795,12424,1
0.0,0.0,0.0,14137,22444,9721,10771,12424,1
0.0,0.0,0.0,13863,22270,9733,10724,12346,1
0.0,0.0,0.0,13679,22248,9721,10700,12280,1
0.0,0.0,0.0,13538,22140,9721,10641,12254,1
0.0,0.0,0.0,13398,22226,9733,10641,12215,1
0.0,0.0,0.0,13371,22161,9721,10629,12189,1
0.0,0.0,0.0,13343,22096,9721,10605,12189,1
0.0,0.0,0.0,13329,22140,9721,10629,12163,1
0.0,0.0,0.0,13343,22161,9733,10629,12163,1
0.0,0.0,0.0,13315,22096,9710,10629,12189,1
0.0,0.0,0.0,13315,22140,9721,10605,12163,1
0.0,0.0,0.0,13343,22096,9733,10629,12189,1
0.0,0.0,0.0,13357,22096,9744,10617,12163,1
0.0,0.0,0.0,13482,22226,9733,10605,12163,1
0.0,0.0,0.0,13679,22313,9755,10629,12176,1
0.0,0.0,0.0,13608,22270,9744,10629,12215,1
0.0,0.0,0.0,13566,22161,9733,10629,12215,1
0.0,0.0,0.0,13510,22161,9733,10617,12228,1
0.0,0.0,0.0,13510,22226,9733,10629,12267,1
0.0,0.0,0.0,13510,22183,9721,10629,12372,1
0.0,0.0,0.0,13510,22226,9733,10629,12477,1
0.0,0.0,0.0,13510,22226,9710,10653,12797,1
0.0,0.0,0.0,13510,22183,9721,10688,13122,1
0.0,0.0,0.0,13482,22183,9721,10688,13232,1
0.0,0.0,0.0,13468,22161,9710,10688,13205,1
0.0,0.0,0.0,13454,22183,9721,10700,13191,1
0.0,0.0,0.0,13468,22140,9733,10688,13177,1
0.0,0.0,0.0,13454,22161,9710,10688,13205,1
0.0,0.0,0.0,13454,22161,9733,10688,13232,1
0.0,0.0,0.0,13468,22140,9733,10700,13260,1
0.0,0.0,0.0,13454,22140,9755,10700,13232,1
0.0,0.0,0.0,13454,22096,9710,10700,13246,1
0.0,0.0,0.0,13482,22096,9733,10724,13205,1
0.0,0.0,0.0,13468,22140,9721,10736,13260,1
0.0,0.0,0.0,13454,22053,9733,10748,13232,1
0.0,0.0,0.0,13482,22096,9733,10748,13232,1
0.0,0.0,0.0,13482,22075,9733,10759,13315,1
0.0,0.0,0.0,13510,22096,9710,10771,13343,1
0.0,0.0,0.0,13679,22032,9845,10771,13426,1
0.0,0.0,0.0,13749,21924,9856,10795,13398,1
0.0,0.0,0.0,13735,21882,9856,10783,13398,1
0.0,0.0,0.0,13735,21818,9867,10819,13343,1
0.0,0.0,0.0,13778,21818,9912,10795,13357,1
0.0,0.0,0.0,13735,21796,9935,10819,13357,1
0.0,0.0,0.0,13749,21818,9958,10819,13343,1
0.0,0.0,0.0,13735,21818,9946,10795,13343,1
0.0,0.0,0.0,13735,21818,9935,10819,13343,1
0.0,0.0,0.0,13735,21818,9912,10819,13274,1
0.0,0.0,0.0,13764,21796,9935,10831,13260,1
0.0,0.0,0.0,13735,21796,9901,10795,13287,1
0.0,0.0,0.0,13792,21818,9912,10819,13260,1
0.0,0.0,0.0,14209,21818,9946,10819,13260,1
0.0,0.0,0.0,14311,21796,10003,10819,13232,1
0.0,0.0,0.0,14021,21669,9980,10819,13232,1
0.0,0.0,0.0,13892,21648,9935,10819,13205,1
0.0,0.0,0.0,13735,21796,9890,10819,13150,1
0.0,0.0,0.0,13608,21903,9901,10819,13122,1
0.0,0.0,0.0,13524,22183,10174,10831,13122,1
0.0,0.0,0.0,13566,22401,10359,10819,13122,1
0.0,0.0,0.0,13679,22621,10488,10867,13068,1
0.0,0.0,0.0,13992,23112,10748,10915,12959,1
0.0,0.0,0.0,14253,23294,10963,10963,12959,1
0.0,0.0,0.0,14268,23294,11024,10987,12972,1
0.0,0.0,0.0,14282,23431,11109,11012,12972,1
0.0,0.0,0.0,14137,23431,11072,11012,12851,1
0.0,0.0,0.0,14079,23385,11072,11024,12851,1
0.0,0.0,0.0,14021,23294,11060,11012,12851,1
0.0,0.0,0.0,13921,23157,11012,10975,12797,1
0.0,0.0,0.0,13749,22754,10771,10963,12743,1
0.0,0.0,0.0,13538,22379,10499,10891,12610,1
0.0,0.0,0.0,13398,22248,10348,10843,12583,1
0.0,0.0,0.0,13191,22226,10083,10831,12570,1
0.0,0.0,0.0,13136,22226,10060,10831,12530,1
0.0,0.0,0.0,13068,22140,10003,10843,12490,1
0.0,0.0,0.0,12972,22161,10026,10843,12477,1
0.0,0.0,0.0,12959,22248,10003,10819,12477,1
0.0,0.0,0.0,12932,22248,10117,10831,12530,1
0.0,0.0,0.0,12959,22270,10117,10831,12530,1
0.0,0.0,0.0,12972,22270,10163,10819,12490,1
0.0,0.0,0.0,12932,22248,10174,10819,12477,1
0.0,0.0,0.0,12959,22248,10209,10795,12398,1
0.0,0.0,0.0,12959,22248,10278,10819,12438,1
0.0,0.0,0.0,12959,22226,10267,10819,12424,1
0.0,0.0,0.0,12972,22248,10290,10819,12424,1
0.0,0.0,0.0,12959,22183,10313,10819,12398,1
0.0,0.0,0.0,12972,22183,10325,10819,12424,1
0.0,0.0,0.0,12986,22161,10348,10795,12398,1
0.0,0.0,0.0,12972,22140,10348,10795,12424,1
0.0,0.0,0.0,12972,22226,10348,10795,12372,1
0.0,0.0,0.0,12999,22183,10359,10795,12398,1
0.0,0.0,0.0,12972,22161,10371,10819,12424,1
0.0,0.0,0.0,12959,22161,10371,10819,12424,1
0.0,0.0,0.0,12972,22161,10371,10819,12424,1
0.0,0.0,0.0,12972,22140,10359,10819,12398,1
0.0,0.0,0.0,12972,22140,10359,10819,12398,1
0.0,0.0,0.0,12972,22183,10371,10831,12398,1
0.0,0.0,0.0,12972,22161,10371,10831,12424,1
0.0,0.0,0.0,12959,22140,10371,10819,12398,1
0.0,0.0,0.0,12959,22183,10371,10819,12424,1
0.0,0.0,0.0,12959,22161,10371,10819,12424,1
0.0,0.0,0.0,12972,22226,10359,10819,12385,1
0.0,0.0,0.0,13013,22183,10394,10819,12438,1
0.0,0.0,0.0,12972,22118,10394,10819,12424,1
0.0,0.0,0.0,12972,22161,10394,10819,12398,1
0.0,0.0,0.0,12959,22075,10394,10819,12385,1
0.0,0.0,0.0,12918,22096,10371,10819,12623,1
0.0,0.0,0.0,12918,22096,10394,10867,12743,1
0.0,0.0,0.0,12959,22140,10359,10879,12851,1
0.0,0.0,0.0,12959,22140,10371,10879,13136,1
0.0,0.0,0.0,12932,22292,10359,10975,13246,1
0.0,0.0,0.0,12959,22270,10418,11072,13454,1
0.0,0.0,0.0,12932,22401,10406,11109,13524,1
0.0,0.0,0.0,12959,22379,10383,11133,13821,1
0.0,0.0,0.0,12945,22444,10394,11182,13964,1
0.0,0.0,0.0,12959,22488,10394,11206,14050,1
0.0,0.0,0.0,12959,22554,10406,11206,13964,1
0.0,0.0,0.0,12932,22776,10394,11206,13806,1
0.0,0.0,0.0,12959,22865,10441,11206,13566,1
0.0,0.0,0.0,13013,22798,10453,11170,13357,1
0.0,0.0,0.0,12972,22820,10488,11206,13218,1
0.0,0.0,0.0,12959,22865,10523,11157,13122,1
0.0,0.0,0.0,12972,22865,10535,11157,13136,1
0.0,0.0,0.0,13013,22887,10511,11157,13095,1
0.0,0.0,0.0,13013,22865,10511,11157,13081,1
0.0,0.0,0.0,13013,22843,10535,11182,13081,1
0.0,0.0,0.0,12972,22865,10511,11157,13068,1
0.0,0.0,0.0,13013,22820,10535,11157,13068,1
0.0,0.0,0.0,12972,22820,10511,11157,13040,1
0.0,0.0,0.0,13013,22820,10511,11145,13040,1
0.0,0.0,0.0,13013,22843,10511,11157,13040,1
0.0,0.0,0.0,13027,22887,10499,11157,13013,1
0.0,0.0,0.0,13013,22843,10511,11157,12959,1
0.0,0.0,0.0,13040,22798,10535,11170,12851,1
0.0,0.0,0.0,13040,22731,10535,11182,12797,1
0.0,0.0,0.0,13013,22709,10582,11157,12824,1
0.0,0.0,0.0,13013,22665,10546,11170,12770,1
0.0,0.0,0.0,12986,22665,10546,11182,12743,1
0.0,0.0,0.0,12959,22599,10570,11157,12756,1
0.0,0.0,0.0,12972,22599,10582,11170,12770,1
0.0,0.0,0.0,12959,22599,10582,11157,12743,1
0.0,0.0,0.0,12959,22554,10582,11170,12716,1
0.0,0.0,0.0,12959,22621,10605,11206,12797,1
0.0,0.0,0.0,12918,22621,10605,11219,12770,1
0.0,0.0,0.0,12972,22665,10594,11182,12743,1
0.0,0.0,0.0,12972,22554,10582,11157,12730,1
0.0,0.0,0.0,12959,22576,10558,11182,12716,1
0.0,0.0,0.0,12932,22510,10582,11182,12743,1
0.0,0.0,0.0,12959,22488,10582,11157,12756,1
0.0,0.0,0.0,12959,22554,10594,11182,12690,1
0.0,0.0,0.0,12918,22532,10582,11145,12703,1
0.0,0.0,0.0,12945,22488,10582,11170,12690,1
0.0,0.0,0.0,12918,22488,10582,11170,12743,1
0.0,0.0,0.0,12932,22488,10582,11170,12743,1
0.0,0.0,0.0,12918,22488,10582,11182,12743,1
0.0,0.0,0.0,12918,22488,10582,11206,12743,1
0.0,0.0,0.0,12932,22488,10582,11182,12743,1
0.0,0.0,0.0,12918,22488,10582,11170,12770,1
0.0,0.0,0.0,12918,22488,10546,11206,12824,1
0.0,0.0,0.0,12905,22599,10523,11182,12797,1
0.0,0.0,0.0,12972,22401,10535,11255,12824,1
0.0,0.0,0.0,13109,22010,10546,11515,13482,1
0.0,0.0,0.0,13081,21542,10629,11754,13806,1
0.0,0.0,0.0,13122,21312,10700,12034,13792,1
0.0,0.0,0.0,13109,21208,10676,12112,13849,1
0.0,0.0,0.0,13081,21146,10653,12215,13878,1
0.0,0.0,0.0,13068,21043,10641,12398,13964,1
0.0,0.0,0.0,12999,21002,10582,12464,13792,1
0.0,0.0,0.0,12756,20981,10499,12372,13679,1
0.0,0.0,0.0,12690,20899,10511,12280,13594,1
0.0,0.0,0.0,12583,20961,10511,12202,13735,1
0.0,0.0,0.0,12570,20961,10499,12124,13650,1
0.0,0.0,0.0,12530,20961,10511,11906,13735,1
0.0,0.0,0.0,12477,21043,10535,11906,13792,1
0.0,0.0,0.0,12438,21043,10535,11855,13721,1
0.0,0.0,0.0,12464,21043,10535,11817,13566,1
0.0,0.0,0.0,12346,21208,10582,11804,13524,1
0.0,0.0,0.0,12202,21967,10783,11817,13371,1
0.0,0.0,0.0,11754,22313,10915,11855,13426,1
0.0,0.0,0.0,11678,22226,10915,11868,13398,1
0.0,0.0,0.0,11792,22335,11036,11906,13371,1
0.0,0.0,0.0,11855,22865,11157,11932,13357,1
0.0,0.0,0.0,11830,23112,11194,11906,13398,1
0.0,0.0,0.0,11703,23316,11133,11881,13398,1
0.0,0.0,0.0,11754,23522,11072,11881,13301,1
0.0,0.0,0.0,11855,23522,11060,11881,13287,1
0.0,0.0,0.0,12021,23661,11036,11868,13287,1
0.0,0.0,0.0,12346,23477,11024,11868,13287,1
0.0,0.0,0.0,12346,23112,10939,11868,13426,1
0.0,0.0,0.0,12293,22932,10891,11804,13454,1
0.0,0.0,0.0,12215,22709,10855,11678,13398,1
0.0,0.0,0.0,12163,22510,10783,11578,13384,1
0.0,0.0,0.0,12163,21839,10867,11578,13343,1
0.0,0.0,0.0,12202,21584,10879,11553,13398,1
0.0,0.0,0.0,12163,21208,10879,11553,13343,1
0.0,0.0,0.0,12215,21229,10867,11528,13454,1
0.0,0.0,0.0,12464,21458,10819,11503,13357,1
0.0,0.0,0.0,12690,21627,10676,11478,12986,1
0.0,0.0,0.0,12730,21500,10499,11403,12743,1
0.0,0.0,0.0,12716,21375,10278,11329,12797,1
0.0,0.0,0.0,12649,21333,10221,11354,13122,1
0.0,0.0,0.0,12596,21395,10026,11453,13150,1
0.0,0.0,0.0,12477,21375,9733,11528,13246,1
0.0,0.0,0.0,12372,21291,9643,11465,13315,1
0.0,0.0,0.0,12346,21312,9666,11453,13454,1
0.0,0.0,0.0,12267,21291,9632,11428,13398,1
0.0,0.0,0.0,12228,21229,9666,11403,13343,1
0.0,0.0,0.0,12189,21291,9632,11428,13315,1
0.0,0.0,0.0,12189,21208,9666,11403,13566,1
0.0,0.0,0.0,12176,21167,9643,11403,13693,1
0.0,0.0,0.0,12163,21125,9666,11391,13863,1
0.0,0.0,0.0,12163,21043,9654,11403,14108,1
0.0,0.0,0.0,12124,21064,9666,11478,14282,1
0.0,0.0,0.0,12137,21064,9677,11603,14370,1
0.0,0.0,0.0,12124,21043,9800,11678,14444,1
0.0,0.0,0.0,12124,20961,9958,11653,14429,1
0.0,0.0,0.0,12124,20899,10026,11628,14399,1
0.0,0.0,0.0,12124,20899,10026,11628,14429,1
0.0,0.0,0.0,12124,20879,10026,11653,14414,1
0.0,0.0,0.0,12112,20879,10026,11678,14429,1
0.0,0.0,0.0,12099,20818,10129,11728,14355,1
0.0,0.0,0.0,12112,20838,10174,11728,14399,1
0.0,0.0,0.0,12099,20838,10174,11754,14385,1
0.0,0.0,0.0,12099,20838,10209,11804,14429,1
0.0,0.0,0.0,12086,20838,10209,11754,14370,1
0.0,0.0,0.0,12073,20757,10209,11804,14370,1
0.0,0.0,0.0,12073,20777,10267,11804,14370,1
0.0,0.0,0.0,12112,20757,10255,11804,14355,1
0.0,0.0,0.0,12124,20737,10301,11830,14385,1
0.0,0.0,0.0,12112,20777,10371,11881,14399,1
0.0,0.0,0.0,12112,20798,10371,11881,14458,1
0.0,0.0,0.0,12112,20798,10336,11855,14429,1
0.0,0.0,0.0,12124,20737,10348,11868,14458,1
0.0,0.0,0.0,12112,20798,10348,11868,14385,1
0.0,0.0,0.0,12112,20798,10325,11855,14311,1
0.0,0.0,0.0,12112,20757,10301,11855,14341,1
0.0,0.0,0.0,12124,20716,10255,11868,14326,1
0.0,0.0,0.0,12124,20636,9766,12137,14224,1
0.0,0.0,0.0,12086,20757,10301,13510,15273,1
0.0,0.0,0.0,12073,20636,10406,13792,15900,1
0.0,0.0,0.0,12034,20555,10418,13735,15837,1
0.0,0.0,0.0,11970,20575,10371,13764,15710,1
0.0,0.0,0.0,11906,20798,10441,13707,15663,1
0.0,0.0,0.0,11906,20716,10511,13707,15273,1
0.0,0.0,0.0,11906,20879,10546,13650,14488,1
0.0,0.0,0.0,11906,20981,10582,13538,14195,1
0.0,0.0,0.0,11906,21043,10582,13287,14050,1
0.0,0.0,0.0,11932,21270,10582,13013,13992,1
0.0,0.0,0.0,11957,21270,10582,12756,13735,1
0.0,0.0,0.0,11983,21458,10629,12716,13566,1
0.0,0.0,0.0,12021,21291,10641,12703,13398,1
0.0,0.0,0.0,12228,20961,10724,12464,13163,1
0.0,0.0,0.0,12215,20595,10771,12060,12986,1
0.0,0.0,0.0,12228,20515,10724,12009,12972,1
0.0,0.0,0.0,12124,20415,10748,12060,12972,1
0.0,0.0,0.0,12124,20475,10724,12047,13013,1
0.0,0.0,0.0,12073,20395,10748,12060,12986,1
0.0,0.0,0.0,12009,20415,10724,12060,13013,1
0.0,0.0,0.0,11970,20335,10759,12073,13081,1
0.0,0.0,0.0,12009,20256,10748,12086,13095,1
0.0,0.0,0.0,12034,20256,10771,12086,13163,1
0.0,0.0,0.0,12009,20157,10748,12073,13205,1
0.0,0.0,0.0,11919,20117,10594,12009,13287,1
0.0,0.0,0.0,11716,20078,10488,11881,13260,1
0.0,0.0,0.0,11703,20595,10453,11830,13232,1
0.0,0.0,0.0,11653,21022,10441,11792,13068,1
0.0,0.0,0.0,11817,21458,10418,11817,12797,1
0.0,0.0,0.0,12241,21711,10535,12490,12517,1
0.0,0.0,0.0,12398,21711,10629,13454,12398,1
0.0,0.0,0.0,12477,21796,10641,13371,12372,1
0.0,0.0,0.0,12424,21882,10629,13232,12398,1
0.0,0.0,0.0,12438,21882,10676,13343,12530,1
0.0,0.0,0.0,12424,21924,10653,13398,12556,1
0.0,0.0,0.0,12438,22053,10629,13150,12504,1
0.0,0.0,0.0,12490,22270,10629,12293,12570,1
0.0,0.0,0.0,12438,22270,10641,11932,12636,1
0.0,0.0,0.0,12438,22226,10629,12086,12690,1
0.0,0.0,0.0,12424,22226,10629,12112,12649,1
0.0,0.0,0.0,12385,22248,10629,12451,12610,1
0.0,0.0,0.0,12372,22183,10605,12610,12596,1
0.0,0.0,0.0,12372,22183,10629,12583,12530,1
0.0,0.0,0.0,12346,22140,10594,12477,12530,1
0.0,0.0,0.0,12346,22140,10629,12477,12530,1
0.0,0.0,0.0,12372,22096,10605,12477,12530,1
0.0,0.0,0.0,12372,22140,10617,12438,12556,1
0.0,0.0,0.0,12346,22053,10617,12372,12583,1
0.0,0.0,0.0,12346,22096,10629,12372,12556,1
0.0,0.0,0.0,12346,22053,10629,12372,12530,1
0.0,0.0,0.0,12333,22010,10629,12346,12583,1
0.0,0.0,0.0,12320,21967,10641,12267,12530,1
0.0,0.0,0.0,12346,22010,10629,12163,12504,1
0.0,0.0,0.0,12280,21924,10629,12021,12293,1
0.0,0.0,0.0,12267,22032,10511,11804,11983,1
0.0,0.0,0.0,12176,21967,10348,11553,11754,1
0.0,0.0,0.0,12124,21860,10186,11403,11603,1
0.0,0.0,0.0,12086,21775,10071,11317,11490,1
0.0,0.0,0.0,12060,21648,9935,11268,11478,1
0.0,0.0,0.0,12009,21754,9878,11255,11453,1
0.0,0.0,0.0,12034,21733,9811,11231,11428,1
0.0,0.0,0.0,12021,21669,9788,11231,11428,1
0.0,0.0,0.0,12009,21627,9755,11219,11440,1
0.0,0.0,0.0,11983,21627,9733,11255,11453,1
0.0,0.0,0.0,12034,21754,9755,11219,11428,1
0.0,0.0,0.0,12086,21967,9733,11219,11453,1
0.0,0.0,0.0,12086,21690,9755,11231,11478,1
0.0,0.0,0.0,12163,21229,9800,11231,11428,1
0.0,0.0,0.0,12086,20879,9924,11231,11465,1
0.0,0.0,0.0,12086,20475,9980,11231,11503,1
0.0,0.0,0.0,12060,20256,10037,11231,11503,1
0.0,0.0,0.0,12034,20176,10037,11231,11478,1
0.0,0.0,0.0,12009,20019,10049,11255,11503,1
0.0,0.0,0.0,12009,19999,10071,11231,11515,1
0.0,0.0,0.0,12009,20196,10071,11219,11478,1
0.0,0.0,0.0,12009,20636,10071,11206,11515,1
0.0,0.0,0.0,12009,21711,10037,11206,11478,1
0.0,0.0,0.0,12047,21500,9980,11219,11503,1
0.0,0.0,0.0,12009,21458,9935,11206,11465,1
0.0,0.0,0.0,12009,21333,9890,11206,11478,1
0.0,0.0,0.0,11957,21270,9867,11206,11478,1
0.0,0.0,0.0,11970,21229,9856,11219,11453,1
0.0,0.0,0.0,11944,21229,9856,11206,11453,1
0.0,0.0,0.0,11919,21250,9845,11219,11453,1
0.0,0.0,0.0,11855,21458,9845,11206,11465,1
0.0,0.0,0.0,11842,21584,9935,11206,11453,1
0.0,0.0,0.0,11906,20555,10117,11206,11503,1
0.0,0.0,0.0,11944,19766,10174,11231,11528,1
0.0,0.0,0.0,12009,19439,10209,11219,11553,1
0.0,0.0,0.0,11932,19306,10209,11255,11528,1
0.0,0.0,0.0,11957,19882,10209,11219,11528,1
0.0,0.0,0.0,11919,19921,10209,11255,11528,1
0.0,0.0,0.0,11932,19650,10209,11255,11503,1
0.0,0.0,0.0,11970,19477,10232,11243,11515,1
0.0,0.0,0.0,12009,19306,10290,11255,11528,1
0.0,0.0,0.0,12009,19193,10359,11255,11515,1
0.0,0.0,0.0,12021,19174,10371,11231,11528,1
0.0,0.0,0.0,12009,19193,10348,11219,11528,1
0.0,0.0,0.0,11996,19193,10383,11255,11553,1
0.0,0.0,0.0,12021,19118,10359,11243,11553,1
0.0,0.0,0.0,12021,19155,10348,11219,11528,1
0.0,0.0,0.0,12021,19099,10371,11219,11565,1
0.0,0.0,0.0,12009,19174,10371,11255,11528,1
0.0,0.0,0.0,12021,19193,10371,11255,11540,1
0.0,0.0,0.0,12021,19155,10371,11255,11553,1
0.0,0.0,0.0,12021,19249,10394,11219,11553,1
0.0,0.0,0.0,12060,21312,10418,11231,11553,1
0.0,0.0,0.0,12073,21882,10394,11255,11528,1
0.0,0.0,0.0,12073,21903,10371,11255,11553,1
0.0,0.0,0.0,11919,21754,10301,11206,11540,1
0.0,0.0,0.0,11906,21711,10301,11206,11503,1
0.0,0.0,0.0,11868,21627,10267,11219,11503,1
0.0,0.0,0.0,11855,21584,10255,11206,11503,1
0.0,0.0,0.0,11855,21627,10267,11206,11515,1
0.0,0.0,0.0,11855,21563,10255,11219,11503,1
0.0,0.0,0.0,11817,21584,10255,11219,11528,1
0.0,0.0,0.0,11830,21542,10244,11206,11528,1
0.0,0.0,0.0,11842,21500,10255,11206,11528,1
0.0,0.0,0.0,11804,21479,10255,11206,11503,1
0.0,0.0,0.0,11804,21479,10255,11206,11503,1
0.0,0.0,0.0,11804,21542,10255,11206,11515,1
0.0,0.0,0.0,11804,21500,10232,11206,11503,1
0.0,0.0,0.0,11804,21479,10255,11206,11478,1
0.0,0.0,0.0,11792,21521,10232,11206,11528,1
0.0,0.0,0.0,11779,21839,10278,11206,11528,1
0.0,0.0,0.0,11779,21627,10301,11206,11528,1
0.0,0.0,0.0,11779,21437,10313,11206,11528,1
0.0,0.0,0.0,11779,21084,10325,11182,11553,1
0.0,0.0,0.0,11754,20475,10394,11182,11528,1
0.0,0.0,0.0,11766,19727,10441,11206,11565,1
0.0,0.0,0.0,11766,19401,10476,11206,11578,1
0.0,0.0,0.0,11779,19193,10499,11206,11603,1
0.0,0.0,0.0,11754,19155,10488,11206,11603,1
0.0,0.0,0.0,11766,19099,10488,11206,11565,1
0.0,0.0,0.0,11754,19080,10488,11206,11603,1
0.0,0.0,0.0,11754,19080,10488,11206,11578,1
0.0,0.0,0.0,11754,19024,10488,11194,11578,1
0.0,0.0,0.0,11728,19061,10488,11206,11603,1
0.0,0.0,0.0,11703,18949,10488,11206,11553,1
0.0,0.0,0.0,11678,18968,10441,11206,11578,1
0.0,0.0,0.0,11703,19005,10464,11206,11590,1
0.0,0.0,0.0,11703,19024,10488,11206,11565,1
0.0,0.0,0.0,11703,19005,10488,11206,11578,1
0.0,0.0,0.0,11703,19005,10464,11206,11603,1
0.0,0.0,0.0,11678,19005,10464,11182,11578,1
0.0,0.0,0.0,11703,19005,10488,11206,11578,1
0.0,0.0,0.0,11703,19005,10488,11194,11603,1
0.0,0.0,0.0,11678,19005,10464,11206,11603,1
0.0,0.0,0.0,11665,18987,10488,11206,11578,1
0.0,0.0,0.0,11653,19005,10488,11219,11603,1
0.0,0.0,0.0,11653,18931,10488,11206,11603,1
0.0,0.0,0.0,11665,18949,10488,11206,11615,1
0.0,0.0,0.0,11678,18968,10488,11206,11603,1
0.0,0.0,0.0,11678,18949,10488,11206,11578,1
0.0,0.0,0.0,11716,18968,10488,11206,11628,1
0.0,0.0,0.0,11703,18968,10511,11206,11603,1
0.0,0.0,0.0,11779,18875,10594,11206,11603,1
0.0,0.0,0.0,11855,18949,10676,11206,11603,1
0.0,0.0,0.0,11817,18949,10664,11206,11653,1
0.0,0.0,0.0,11855,18968,10605,11194,11653,1
0.0,0.0,0.0,11855,18931,10594,11206,11615,1
0.0,0.0,0.0,11830,18949,10582,11182,11603,1
0.0,0.0,0.0,11830,18931,10582,11182,11603,1
0.0,0.0,0.0,11792,19005,10582,11206,11603,1
0.0,0.0,0.0,11792,19921,10582,11194,11603,1
0.0,0.0,0.0,11766,21291,10570,11182,11603,1
0.0,0.0,0.0,11653,21775,10499,11206,11578,1
0.0,0.0,0.0,11453,21458,10394,11182,11553,1
0.0,0.0,0.0,11428,21125,10336,11157,11553,1
0.0,0.0,0.0,11391,21064,10313,11133,11553,1
0.0,0.0,0.0,11366,21043,10301,11133,11503,1
0.0,0.0,0.0,11379,20981,10255,11133,11528,1
0.0,0.0,0.0,11366,20981,10232,11109,11528,1
0.0,0.0,0.0,11354,20961,10244,11084,11515,1
0.0,0.0,0.0,11354,20920,10221,11109,11515,1
0.0,0.0,0.0,11354,20961,10221,11109,11503,1
0.0,0.0,0.0,11354,20961,10221,11109,11503,1
0.0,0.0,0.0,11317,20981,10221,11109,11528,1
0.0,0.0,0.0,11304,20961,10221,11084,11528,1
0.0,0.0,0.0,11341,20981,10221,11084,11503,1
0.0,0.0,0.0,11304,20961,10209,11084,11503,1
0.0,0.0,0.0,11304,20920,10209,11109,11503,1
0.0,0.0,0.0,11317,20981,10221,11109,11503,1
0.0,0.0,0.0,11304,20940,10209,11072,11503,1
0.0,0.0,0.0,11304,20961,10209,11084,11528,1
0.0,0.0,0.0,11304,20879,10209,11109,11503,1
0.0,0.0,0.0,11304,20961,10174,11109,11540,1
0.0,0.0,0.0,11280,20940,10174,11109,11490,1
0.0,0.0,0.0,11304,20981,10197,11109,11528,1
0.0,0.0,0.0,11304,21002,10197,11157,11490,1
0.0,0.0,0.0,11292,21064,10071,11170,11503,1
0.0,0.0,0.0,11268,21064,10003,11133,11503,1
0.0,0.0,0.0,11268,21084,9811,11157,11453,1
0.0,0.0,0.0,11255,21043,9666,11157,11453,1
0.0,0.0,0.0,11255,21043,9666,11133,11453,1
0.0,0.0,0.0,11231,21084,9632,11072,11403,1
0.0,0.0,0.0,11206,21084,9632,11012,11403,1
0.0,0.0,0.0,11206,20961,9643,10987,11440,1
0.0,0.0,0.0,11206,20838,9666,10891,11553,1
0.0,0.0,0.0,11157,20696,9632,10891,11453,1
0.0,0.0,0.0,11170,20676,9666,10891,11428,1
0.0,0.0,0.0,11157,20757,9621,10891,11379,1
0.0,0.0,0.0,11084,20757,9643,10879,11366,1
0.0,0.0,0.0,11133,20676,9643,10867,11403,1
0.0,0.0,0.0,11157,20696,9632,10867,11354,1
0.0,0.0,0.0,11157,20676,9654,10879,11354,1
0.0,0.0,0.0,11157,20656,9643,10867,11379,1
0.0,0.0,0.0,11157,20696,9643,10879,11354,1
0.0,0.0,0.0,11145,20636,9643,10867,11354,1
0.0,0.0,0.0,11157,20676,9643,10867,11354,1
0.0,0.0,0.0,11157,20636,9643,10867,11379,1
0.0,0.0,0.0,11157,20716,9643,10867,11354,1
0.0,0.0,0.0,11157,20636,9621,10867,11354,1
0.0,0.0,0.0,11157,20656,9643,10867,11379,1
0.0,0.0,0.0,11157,20595,9643,10867,11329,1
0.0,0.0,0.0,11157,20636,9666,10867,11379,1
0.0,0.0,0.0,11157,20636,9632,10867,11354,1
0.0,0.0,0.0,11157,20615,9632,10867,11366,1
0.0,0.0,0.0,11170,20636,9632,10867,11354,1
0.0,0.0,0.0,11170,20656,9632,10843,11354,1
0.0,0.0,0.0,11157,20676,9643,10831,11379,1
0.0,0.0,0.0,11157,20676,9666,10843,11329,1
0.0,0.0,0.0,11157,20716,9666,10867,11366,1
0.0,0.0,0.0,11182,20676,9632,10843,11329,1
0.0,0.0,0.0,11157,20798,9666,10843,11403,1
0.0,0.0,0.0,11157,20879,9677,10843,11379,1
0.0,0.0,0.0,11133,21043,9632,10843,11379,1
0.0,0.0,0.0,11133,21125,9643,10855,11403,1
0.0,0.0,0.0,11121,21291,9643,10867,11379,1
0.0,0.0,0.0,11133,21229,9643,10867,11379,1
0.0,0.0,0.0,11109,21291,9643,10867,11403,1
0.0,0.0,0.0,11157,21291,9632,10867,11354,1
0.0,0.0,0.0,11145,21291,9643,10867,11379,1
0.0,0.0,0.0,11157,21229,9632,10867,11379,1
0.0,0.0,0.0,11133,21167,9643,10879,11366,1
0.0,0.0,0.0,11133,21291,9643,10879,11366,1
0.0,0.0,0.0,11133,21187,9632,10867,11403,1
0.0,0.0,0.0,11145,21125,9621,10879,11391,1
0.0,0.0,0.0,11121,21187,9632,10879,11379,1
0.0,0.0,0.0,11145,21208,9632,10867,11403,1
0.0,0.0,0.0,11157,21125,9654,10879,11403,1
0.0,0.0,0.0,11145,21229,9643,10891,11403,1
0.0,0.0,0.0,11157,21208,9643,10879,11416,1
0.0,0.0,0.0,11121,21208,9632,10867,11403,1
0.0,0.0,0.0,11133,21208,9666,10879,11391,1
0.0,0.0,0.0,11133,21208,9643,10891,11416,1
0.0,0.0,0.0,11157,21167,9643,10879,11391,1
0.0,0.0,0.0,11133,21146,9643,10891,11416,1
0.0,0.0,0.0,11133,21146,9643,10879,11416,1
0.0,0.0,0.0,11133,21146,9632,10891,11403,1
0.0,0.0,0.0,11133,21125,9632,10879,11379,1
0.0,0.0,0.0,11133,21125,9643,10879,11403,1
0.0,0.0,0.0,11133,21125,9643,10891,11403,1
0.0,0.0,0.0,11121,21167,9632,10891,11403,1
0.0,0.0,0.0,11157,21125,9621,10867,11416,1
0.0,0.0,0.0,11157,21208,9666,10879,11416,1
0.0,0.0,0.0,11182,21167,9632,10891,11379,1
0.0,0.0,0.0,11157,21146,9632,10879,11403,1
0.0,0.0,0.0,11157,21125,9643,10879,11416,1
0.0,0.0,0.0,11157,21167,9666,10891,11440,1
0.0,0.0,0.0,11157,21167,9643,10879,11403,1
0.0,0.0,0.0,11157,21105,9643,10891,11403,1
0.0,0.0,0.0,11231,21105,9643,10891,11416,1
0.0,0.0,0.0,11268,20716,9643,10975,11428,1
0.0,0.0,0.0,11304,20435,9621,11133,11403,1
0.0,0.0,0.0,11304,20415,9643,11206,11403,1
0.0,0.0,0.0,11268,20395,9632,11206,11403,1
0.0,0.0,0.0,11255,20355,9643,11036,11354,1
0.0,0.0,0.0,11231,20435,9643,11012,11379,1
0.0,0.0,0.0,11255,20777,9643,10987,11379,1
0.0,0.0,0.0,11304,21291,9643,10927,11366,1
0.0,0.0,0.0,11304,21333,9643,10915,11379,1
0.0,0.0,0.0,11354,21167,9643,10915,11403,1
0.0,0.0,0.0,11354,21187,9643,10891,11366,1
0.0,0.0,0.0,11403,21291,9666,10915,11354,1
0.0,0.0,0.0,11354,21333,9666,10975,11354,1
0.0,0.0,0.0,11317,21291,9811,11060,11403,1
0.0,0.0,0.0,11354,21229,10371,11354,11416,1
0.0,0.0,0.0,11304,21208,10605,11855,11453,1
0.0,0.0,0.0,11354,21084,10594,11855,11416,1
0.0,0.0,0.0,11317,21064,10546,11754,11416,1
0.0,0.0,0.0,11341,21064,10546,11665,11403,1
0.0,0.0,0.0,11329,21229,10394,11565,11366,1
0.0,0.0,0.0,11317,21125,10255,11565,11354,1
0.0,0.0,0.0,11366,21146,9766,11503,11354,1
0.0,0.0,0.0,11379,21105,9599,11465,11354,1
0.0,0.0,0.0,11403,21064,9632,11453,11317,1
0.0,0.0,0.0,11366,21002,9643,11391,11341,1
0.0,0.0,0.0,11354,21002,10117,11403,11354,1
0.0,0.0,0.0,11366,20940,10186,11403,11354,1
0.0,0.0,0.0,11354,20798,10163,11329,11403,1
0.0,0.0,0.0,11354,20737,10117,11268,11379,1
0.0,0.0,0.0,11379,20777,10129,11157,11366,1
0.0,0.0,0.0,11354,20716,10163,10987,11403,1
0.0,0.0,0.0,11379,20676,10186,10891,11503,1
0.0,0.0,0.0,11379,20636,10221,10795,11528,1
0.0,0.0,0.0,11403,20535,10232,10783,11703,1
0.0,0.0,0.0,11379,20575,10221,10748,11703,1
0.0,0.0,0.0,11379,20575,10221,10748,11804,1
0.0,0.0,0.0,11403,20515,10174,10748,11830,1
0.0,0.0,0.0,11416,20495,10117,10783,12009,1
0.0,0.0,0.0,11428,20495,10071,10807,11983,1
0.0,0.0,0.0,11416,20495,10014,10748,11970,1
0.0,0.0,0.0,11379,20495,9980,10748,11957,1
0.0,0.0,0.0,11403,20515,9890,10676,11804,1
0.0,0.0,0.0,11416,20737,9733,10676,11703,1
0.0,0.0,0.0,11428,20879,9666,10712,11578,1
0.0,0.0,0.0,11403,20961,9643,10724,11478,1
0.0,0.0,0.0,11403,20981,9632,10724,11366,1
0.0,0.0,0.0,11403,20961,9632,10748,11329,1
0.0,0.0,0.0,11416,21064,9643,10783,11304,1
0.0,0.0,0.0,11416,21229,9632,10795,11379,1
0.0,0.0,0.0,11465,21416,9643,10855,11453,1
0.0,0.0,0.0,11465,21479,9643,10975,11478,1
0.0,0.0,0.0,11465,21458,9643,11072,11503,1
0.0,0.0,0.0,11503,21458,9643,11121,11503,1
0.0,0.0,0.0,11515,21500,9643,11060,11503,1
0.0,0.0,0.0,11503,21458,9643,11072,11528,1
0.0,0.0,0.0,11528,21416,9632,11060,11528,1
0.0,0.0,0.0,11528,21542,9632,11109,11503,1
0.0,0.0,0.0,11453,21627,9621,11255,11465,1
0.0,0.0,0.0,11478,21563,9643,11182,11453,1
0.0,0.0,0.0,11478,21416,9654,11157,11653,1
0.0,0.0,0.0,11478,21105,9643,11206,11932,1
0.0,0.0,0.0,11453,20920,9677,11280,12215,1
0.0,0.0,0.0,11465,20798,10301,11354,12346,1
0.0,0.0,0.0,11478,20716,10546,11317,12411,1
0.0,0.0,0.0,11503,20636,10724,11416,12451,1
0.0,0.0,0.0,11503,20535,10700,11403,12267,1
0.0,0.0,0.0,11503,20435,10688,11354,12267,1
0.0,0.0,0.0,11503,20435,10676,11354,12163,1
0.0,0.0,0.0,11465,20395,10641,11354,12124,1
0.0,0.0,0.0,11465,20395,10629,11317,12086,1
0.0,0.0,0.0,11503,20375,10594,11317,12086,1
0.0,0.0,0.0,11453,20395,10605,11304,12021,1
0.0,0.0,0.0,11478,20375,10582,11304,12034,1
0.0,0.0,0.0,11453,20355,10535,11317,11957,1
0.0,0.0,0.0,11465,20395,10511,11304,11906,1
0.0,0.0,0.0,11478,20435,10488,11304,11855,1
0.0,0.0,0.0,11453,20395,10464,11255,11855,1
0.0,0.0,0.0,11453,20435,10441,11304,11842,1
0.0,0.0,0.0,11440,20415,10441,11280,11817,1
0.0,0.0,0.0,11416,20475,10429,11304,11817,1
0.0,0.0,0.0,11428,20455,10418,11280,11817,1
0.0,0.0,0.0,11465,20415,10394,11280,11804,1
0.0,0.0,0.0,11428,20455,10348,11304,11792,1
0.0,0.0,0.0,11416,20475,10267,11280,11754,1
0.0,0.0,0.0,11428,20395,10163,11268,11754,1
0.0,0.0,0.0,11428,20395,10071,11304,11766,1
0.0,0.0,0.0,11403,20315,10037,11304,11728,1
0.0,0.0,0.0,11391,20335,9980,11280,11728,1
0.0,0.0,0.0,11379,20435,9935,11255,11665,1
0.0,0.0,0.0,11478,20636,10026,11072,11728,1
0.0,0.0,0.0,11615,20176,10071,11012,11741,1
0.0,0.0,0.0,11628,19921,10140,11012,11766,1
0.0,0.0,0.0,11653,19708,10232,11012,11754,1
0.0,0.0,0.0,11754,19785,10348,11024,11766,1
0.0,0.0,0.0,11868,20236,10371,11012,11766,1
0.0,0.0,0.0,12034,20555,10371,11012,11754,1
0.0,0.0,0.0,11983,20475,10371,11012,11766,1
0.0,0.0,0.0,11804,20355,10441,11012,11792,1
0.0,0.0,0.0,11553,20176,10464,11024,11779,1
0.0,0.0,0.0,11766,21187,10617,11048,11830,1
0.0,0.0,0.0,12267,22401,10724,11157,11881,1
0.0,0.0,0.0,12267,22665,10724,11157,11919,1
0.0,0.0,0.0,11919,22731,10700,11157,11932,1
0.0,0.0,0.0,11603,22754,10676,11206,11932,1
0.0,0.0,0.0,11553,22709,10688,11206,11957,1
0.0,0.0,0.0,11628,22621,10641,11182,11906,1
0.0,0.0,0.0,11906,22754,10629,11206,11906,1
0.0,0.0,0.0,12112,23044,10594,11206,11906,1
0.0,0.0,0.0,12346,23067,10617,11206,11906,1
0.0,0.0,0.0,12189,22488,10558,11182,11881,1
0.0,0.0,0.0,12112,22226,10558,11194,11804,1
0.0,0.0,0.0,12060,22140,10535,11206,11779,1
0.0,0.0,0.0,11970,22140,10523,11182,11779,1
0.0,0.0,0.0,11932,22140,10523,11157,11766,1
0.0,0.0,0.0,11881,22096,10511,11157,11766,1
0.0,0.0,0.0,11906,22053,10499,11157,11766,1
0.0,0.0,0.0,11855,22010,10511,11133,11779,1
0.0,0.0,0.0,11830,22010,10511,11157,11754,1
0.0,0.0,0.0,11804,22010,10488,11133,11754,1
0.0,0.0,0.0,11817,22053,10488,11109,11728,1
0.0,0.0,0.0,11792,22096,10488,11133,11716,1
0.0,0.0,0.0,11804,22053,10488,11157,11754,1
0.0,0.0,0.0,11792,22096,10488,11145,11728,1
0.0,0.0,0.0,11779,22096,10488,11157,11754,1
0.0,0.0,0.0,11804,22096,10476,11133,11716,1
0.0,0.0,0.0,11817,22226,10441,11170,11716,1
0.0,0.0,0.0,11957,22401,10325,11206,11703,1
0.0,0.0,0.0,12385,22576,10163,11206,11754,1
0.0,0.0,0.0,12477,22075,10026,11157,11716,1
0.0,0.0,0.0,12530,21669,9946,11133,11741,1
0.0,0.0,0.0,12583,21375,9912,11133,11754,1
0.0,0.0,0.0,12451,21648,9901,11084,11728,1
0.0,0.0,0.0,12372,21967,9935,11036,11703,1
0.0,0.0,0.0,12293,22096,9946,11024,11678,1
0.0,0.0,0.0,12163,21882,9867,11024,11615,1
0.0,0.0,0.0,12073,21839,9845,11024,11653,1
0.0,0.0,0.0,11970,21860,9800,11024,11653,1
0.0,0.0,0.0,11957,21796,9800,11024,11615,1
0.0,0.0,0.0,11906,21733,9800,10999,11603,1
0.0,0.0,0.0,11881,21648,9845,11012,11628,1
0.0,0.0,0.0,11906,21669,9811,11012,11653,1
0.0,0.0,0.0,11906,21648,9833,11012,11603,1
0.0,0.0,0.0,11932,21669,9822,11012,11615,1
0.0,0.0,0.0,11919,21627,9845,11012,11628,1
0.0,0.0,0.0,11855,21627,9856,11012,11628,1
0.0,0.0,0.0,11906,21627,9845,11012,11665,1
0.0,0.0,0.0,11881,21711,9856,11024,11615,1
0.0,0.0,0.0,11881,21669,9845,11036,11603,1
0.0,0.0,0.0,11855,21669,9811,11024,11615,1
0.0,0.0,0.0,11817,21669,9766,11133,11603,1
0.0,0.0,0.0,11804,21648,9755,11133,11553,1
0.0,0.0,0.0,11804,21627,9755,11157,11553,1
0.0,0.0,0.0,11766,21648,9733,11182,11603,1
0.0,0.0,0.0,11779,21796,9755,11280,11855,1
0.0,0.0,0.0,11779,21733,9766,11280,11842,1
0.0,0.0,0.0,11804,21690,9845,11304,11881,1
0.0,0.0,0.0,11855,21711,9958,11304,12346,1
0.0,0.0,0.0,11881,21733,10026,11304,13679,1
0.0,0.0,0.0,11957,21733,10003,11268,13792,1
0.0,0.0,0.0,11970,21690,10003,11268,13849,1
0.0,0.0,0.0,11983,21733,10003,11255,13821,1
0.0,0.0,0.0,12009,21775,9958,11317,13792,1
0.0,0.0,0.0,12021,21711,9980,11304,13849,1
0.0,0.0,0.0,12112,21711,9958,11280,13863,1
0.0,0.0,0.0,12112,21648,9912,11268,14137,1
0.0,0.0,0.0,12086,21711,9845,11304,14562,1
0.0,0.0,0.0,12047,21648,9710,11304,14741,1
0.0,0.0,0.0,12086,21627,9666,11317,14967,1
0.0,0.0,0.0,12060,21627,9666,11317,14907,1
0.0,0.0,0.0,12073,21627,9688,11304,14726,1
0.0,0.0,0.0,12112,21627,9755,11354,14282,1
0.0,0.0,0.0,12137,21606,9811,11354,14079,1
0.0,0.0,0.0,12163,21627,9845,11366,13821,1
0.0,0.0,0.0,12189,21627,10026,11416,13468,1
0.0,0.0,0.0,12176,21690,10049,11428,13343,1
0.0,0.0,0.0,12215,21733,10026,11416,13246,1
0.0,0.0,0.0,12163,21733,9980,11428,13246,1
0.0,0.0,0.0,12163,21754,9980,11403,13301,1
0.0,0.0,0.0,12124,21839,10117,11503,13218,1
0.0,0.0,0.0,12060,21818,10267,11779,13287,1
0.0,0.0,0.0,12073,21818,10267,11716,13412,1
0.0,0.0,0.0,12112,21796,10371,11503,13454,1
0.0,0.0,0.0,11932,21796,10267,11329,13398,1
0.0,0.0,0.0,11817,21775,10163,11354,14036,1
0.0,0.0,0.0,11804,21627,10106,11341,13749,1
0.0,0.0,0.0,11830,21627,10083,11354,13636,1
0.0,0.0,0.0,11855,21648,10094,11354,13566,1
0.0,0.0,0.0,11868,21648,10071,11354,13468,1
0.0,0.0,0.0,11996,21648,10071,11317,13454,1
0.0,0.0,0.0,11983,21584,10049,11304,13398,1
0.0,0.0,0.0,12009,21584,10140,11280,13412,1
0.0,0.0,0.0,12021,21479,10441,11403,13510,1
0.0,0.0,0.0,11830,21312,10348,11528,13650,1
0.0,0.0,0.0,11804,21312,10301,11465,13482,1
0.0,0.0,0.0,11919,21395,10255,11478,13315,1
0.0,0.0,0.0,11944,21375,10255,11678,13205,1
0.0,0.0,0.0,12060,21542,10255,11653,12959,1
0.0,0.0,0.0,11944,21395,10244,11817,12730,1
0.0,0.0,0.0,11804,21229,10255,11970,12596,1
0.0,0.0,0.0,11855,21229,10244,11944,12424,1
0.0,0.0,0.0,11906,21208,10232,11932,12320,1
0.0,0.0,0.0,11906,21187,10221,11881,12320,1
0.0,0.0,0.0,11906,21146,10232,11881,12320,1
0.0,0.0,0.0,11881,21125,10232,11919,12306,1
0.0,0.0,0.0,11855,21125,10232,11881,12346,1
0.0,0.0,0.0,11855,21105,10255,11893,12346,1
0.0,0.0,0.0,11830,21125,10255,11906,12320,1
0.0,0.0,0.0,11855,21146,10255,12060,12346,1
0.0,0.0,0.0,11855,21084,10255,12112,12320,1
0.0,0.0,0.0,11817,21125,10301,12163,12346,1
0.0,0.0,0.0,11855,21084,10301,12241,12372,1
0.0,0.0,0.0,11855,21084,10278,12241,12320,1
0.0,0.0,0.0,11868,21043,10325,12320,12320,1
0.0,0.0,0.0,11868,21043,10348,12372,12372,1
0.0,0.0,0.0,11855,21043,10336,12372,12359,1
0.0,0.0,0.0,11855,21043,10325,12398,12372,1
0.0,0.0,0.0,11868,20961,10348,12451,12372,1
0.0,0.0,0.0,11855,21043,10325,12663,12385,1
0.0,0.0,0.0,11881,21043,10348,12797,12385,1
0.0,0.0,0.0,11868,20961,10348,12797,12385,1
0.0,0.0,0.0,11906,21022,10348,12743,12372,1
0.0,0.0,0.0,11944,20961,10359,12770,12424,1
0.0,0.0,0.0,11983,21002,10394,12716,12477,1
0.0,0.0,0.0,11957,20981,10406,12716,12878,1
0.0,0.0,0.0,11906,21043,10418,12636,12932,1
0.0,0.0,0.0,11817,20961,10394,12543,12851,1
0.0,0.0,0.0,11653,21125,10313,12438,12743,1
0.0,0.0,0.0,11528,21002,10255,12424,12690,1
0.0,0.0,0.0,11465,20920,10129,12293,12797,1
0.0,0.0,0.0,11453,20940,10094,12267,12851,1
0.0,0.0,0.0,11428,20879,10026,12241,12824,1
0.0,0.0,0.0,11453,20798,10049,12372,12783,1
0.0,0.0,0.0,11440,20838,10117,13398,13260,1
0.0,0.0,0.0,11465,20777,10129,14137,13594,1
0.0,0.0,0.0,11503,20798,10255,14681,13749,1
0.0,0.0,0.0,11490,20818,10267,14370,13707,1
0.0,0.0,0.0,11478,20798,10278,14064,13524,1
0.0,0.0,0.0,11515,20757,10267,13906,13371,1
0.0,0.0,0.0,11503,20798,10255,13735,13301,1
0.0,0.0,0.0,11515,20879,10301,13636,13232,1
0.0,0.0,0.0,11503,20838,10301,13622,13191,1
0.0,0.0,0.0,11515,20920,10301,13594,13218,1
0.0,0.0,0.0,11528,20838,10301,13580,13177,1
0.0,0.0,0.0,11503,20818,10301,13580,13177,1
0.0,0.0,0.0,11540,20920,10301,13566,13150,1
0.0,0.0,0.0,11528,20920,10325,13566,13177,1
0.0,0.0,0.0,11528,20920,10371,13510,13122,1
0.0,0.0,0.0,11528,20940,10371,13524,13150,1
0.0,0.0,0.0,11503,20961,10359,13510,13177,1
0.0,0.0,0.0,11528,20961,10348,13510,13177,1
0.0,0.0,0.0,11528,20961,10359,13510,13122,1
0.0,0.0,0.0,11528,20899,10348,13510,13150,1
0.0,0.0,0.0,11528,20961,10359,13482,13177,1
0.0,0.0,0.0,11528,20981,10348,13454,13122,1
0.0,0.0,0.0,11553,20981,10348,13440,13122,1
0.0,0.0,0.0,11528,20920,10325,13412,13150,1
0.0,0.0,0.0,11528,20879,10325,13468,13136,1
0.0,0.0,0.0,11565,20798,10511,14268,13205,1
0.0,0.0,0.0,11804,21002,10629,14488,13232,1
0.0,0.0,0.0,12009,21270,10748,14399,13177,1
0.0,0.0,0.0,12021,21250,10903,14607,13580,1
0.0,0.0,0.0,12086,21208,10987,14518,13650,1
0.0,0.0,0.0,12060,21043,10963,14311,13636,1
0.0,0.0,0.0,12060,20920,10879,14108,13566,1
0.0,0.0,0.0,11970,20879,10843,14108,13566,1
0.0,0.0,0.0,11932,20798,10831,14050,13510,1
0.0,0.0,0.0,11855,20818,10795,14021,13412,1
0.0,0.0,0.0,11804,20961,10688,13650,13287,1
0.0,0.0,0.0,11906,21043,10676,13426,13205,1
0.0,0.0,0.0,12254,21146,10795,13454,13177,1
0.0,0.0,0.0,12959,21312,11060,13622,13205,1
0.0,0.0,0.0,12959,21818,11109,13693,13150,1
0.0,0.0,0.0,12583,21796,11109,13679,13122,1
0.0,0.0,0.0,12504,22010,11024,13679,13068,1
0.0,0.0,0.0,12477,22096,11012,13679,13068,1
0.0,0.0,0.0,12398,22140,11157,13622,13027,1
0.0,0.0,0.0,12346,22401,11366,13594,13040,1
0.0,0.0,0.0,12346,22313,11206,13454,12891,1
0.0,0.0,0.0,12320,22313,10963,13246,12797,1
0.0,0.0,0.0,12215,22075,10795,13013,12716,1
0.0,0.0,0.0,12163,22010,10783,12905,12636,1
0.0,0.0,0.0,12150,21924,10831,12864,12636,1
0.0,0.0,0.0,12346,21924,10867,12851,12649,1
0.0,0.0,0.0,12451,22010,10867,12851,12649,1
0.0,0.0,0.0,12477,22010,10831,12851,12636,1
0.0,0.0,0.0,12438,22096,10819,12851,12530,1
0.0,0.0,0.0,12398,22444,10771,12596,12215,1
0.0,0.0,0.0,12346,22709,10748,12596,12009,1
0.0,0.0,0.0,12320,22488,10748,12570,11957,1
0.0,0.0,0.0,12320,22488,10724,12543,11868,1
0.0,0.0,0.0,12267,22576,10653,12424,11703,1
0.0,0.0,0.0,12267,22510,10582,12228,11665,1
0.0,0.0,0.0,12215,22423,10535,12189,11703,1
0.0,0.0,0.0,12280,22423,10546,12137,11665,1
0.0,0.0,0.0,12228,22621,10488,11957,11703,1
0.0,0.0,0.0,12228,22401,10371,11603,11728,1
0.0,0.0,0.0,12215,22510,10290,11453,11728,1
0.0,0.0,0.0,12215,22532,10174,11366,11754,1
0.0,0.0,0.0,12267,22510,10152,11304,11817,1
0.0,0.0,0.0,12293,22444,10186,11329,11842,1
0.0,0.0,0.0,12267,22488,10232,11329,11855,1
0.0,0.0,0.0,12320,22488,10301,11354,11804,1
0.0,0.0,0.0,12320,22466,10371,11678,11804,1
0.0,0.0,0.0,12320,22444,10582,13150,11779,1
0.0,0.0,0.0,12346,22357,10676,13343,11817,1
0.0,0.0,0.0,12372,22357,10831,13454,11779,1
0.0,0.0,0.0,12398,22335,11453,14137,11804,1
0.0,0.0,0.0,12504,22313,12009,15028,11893,1
0.0,0.0,0.0,12583,22335,13650,16401,11970,1
0.0,0.0,0.0,12636,22313,13764,16450,11957,1
0.0,0.0,0.0,12543,22313,12797,15900,11944,1
0.0,0.0,0.0,12583,22357,12112,15288,11957,1
0.0,0.0,0.0,12556,22313,12021,15089,11932,1
0.0,0.0,0.0,12543,22313,11957,15028,11944,1
0.0,0.0,0.0,12583,22292,11703,14831,11970,1
0.0,0.0,0.0,12530,22292,11478,14666,12112,1
0.0,0.0,0.0,12504,22270,11219,14532,12636,1
0.0,0.0,0.0,12530,22357,11157,15600,13679,1
0.0,0.0,0.0,12504,22335,11121,16565,14786,1
0.0,0.0,0.0,12490,22270,11121,17118,15104,1
0.0,0.0,0.0,12530,22292,11084,16848,15104,1
0.0,0.0,0.0,12530,22313,11084,16748,15043,1
0.0,0.0,0.0,12530,22270,11084,16798,14907,1
0.0,0.0,0.0,12543,22226,11084,16815,14967,1
0.0,0.0,0.0,12543,22205,11109,16665,14922,1
0.0,0.0,0.0,12556,22226,11109,16352,14696,1
0.0,0.0,0.0,12543,22183,11121,16238,14547,1
0.0,0.0,0.0,12570,22161,11109,16157,14488,1
0.0,0.0,0.0,12530,22140,11109,16206,14488,1
0.0,0.0,0.0,12530,22118,11109,16125,14399,1
0.0,0.0,0.0,12530,22140,11084,16093,14385,1
0.0,0.0,0.0,12543,22096,11084,16093,14370,1
0.0,0.0,0.0,12530,22053,11109,16093,14370,1
0.0,0.0,0.0,12543,22096,11084,16093,14385,1
0.0,0.0,0.0,12530,22053,11084,16028,14370,1
0.0,0.0,0.0,12543,22075,11084,16028,14429,1
0.0,0.0,0.0,12543,22010,11109,16028,14399,1
0.0,0.0,0.0,12556,22075,11084,16028,14370,1
0.0,0.0,0.0,12556,22096,11072,15996,14399,1
0.0,0.0,0.0,12583,22096,11048,15980,14326,1
0.0,0.0,0.0,12543,22053,10975,15600,14253,1
0.0,0.0,0.0,12543,22096,10915,15165,14238,1
0.0,0.0,0.0,12556,22075,10867,14982,14195,1
0.0,0.0,0.0,12583,22140,10867,14726,14108,1
0.0,0.0,0.0,12649,22096,10879,14621,14021,1
0.0,0.0,0.0,12649,22075,10891,14607,13978,1
0.0,0.0,0.0,12610,22096,10891,14636,13978,1
0.0,0.0,0.0,12623,22075,10915,14607,13906,1
0.0,0.0,0.0,12690,22140,10915,14621,13863,1
0.0,0.0,0.0,12716,22140,10915,14621,13906,1
0.0,0.0,0.0,12716,22140,10915,14681,13964,1
0.0,0.0,0.0,12743,22161,10927,14666,13935,1
0.0,0.0,0.0,12730,22183,10927,14636,13906,1
0.0,0.0,0.0,12703,22183,10915,14651,13906,1
0.0,0.0,0.0,12743,22335,10963,14562,13935,1
0.0,0.0,0.0,12743,22401,10963,14518,13964,1
0.0,0.0,0.0,12770,22313,10987,14488,13935,1
0.0,0.0,0.0,12824,22205,10987,14503,13921,1
0.0,0.0,0.0,12797,21882,11072,14577,14021,1
0.0,0.0,0.0,12851,21627,11109,14488,14021,1
0.0,0.0,0.0,12797,21542,11109,14444,14137,1
0.0,0.0,0.0,12837,21542,11133,14297,14224,1
0.0,0.0,0.0,12824,21416,11170,14021,14592,1
0.0,0.0,0.0,12797,21375,11280,13524,14696,1
0.0,0.0,0.0,12851,21375,11280,13426,14577,1
0.0,0.0,0.0,12797,21416,11157,13454,14282,1
0.0,0.0,0.0,12743,21521,11036,13412,14021,1
0.0,0.0,0.0,12703,21542,10975,13357,13849,1
0.0,0.0,0.0,12649,21796,10939,13440,13054,1
0.0,0.0,0.0,12636,21818,10963,13679,12864,1
0.0,0.0,0.0,12596,21775,10927,13454,12905,1
0.0,0.0,0.0,12543,21584,10748,12596,13232,1
0.0,0.0,0.0,12451,21416,10174,11754,12905,1
0.0,0.0,0.0,12372,21208,9666,11528,12716,1
0.0,0.0,0.0,12320,21125,9643,11428,12596,1
0.0,0.0,0.0,12267,21043,9643,11379,12530,1
0.0,0.0,0.0,12267,20981,9643,11329,12490,1
0.0,0.0,0.0,12228,20981,9643,11304,12424,1
0.0,0.0,0.0,12215,20940,9632,11182,12398,1
0.0,0.0,0.0,12163,20798,9654,10963,12320,1
0.0,0.0,0.0,12112,20818,9643,10819,12215,1
0.0,0.0,0.0,12060,20798,9643,10759,12124,1
0.0,0.0,0.0,12034,20757,9643,10724,12124,1
0.0,0.0,0.0,12060,20716,9632,10700,12280,1
0.0,0.0,0.0,12009,20636,9632,10676,12241,1
0.0,0.0,0.0,12021,20716,9643,10688,12267,1
0.0,0.0,0.0,11957,20716,9654,10676,12267,1
0.0,0.0,0.0,11881,20636,9643,10688,12320,1
0.0,0.0,0.0,11804,20555,9643,10676,12424,1
0.0,0.0,0.0,11703,20555,9632,10700,12570,1
0.0,0.0,0.0,11678,20555,9632,10748,12690,1
0.0,0.0,0.0,11628,20475,9632,10748,12663,1
0.0,0.0,0.0,11653,20716,9643,10783,12743,1
0.0,0.0,0.0,11779,20961,9666,11133,13013,1
0.0,0.0,0.0,11957,21043,9666,11628,13177,1
0.0,0.0,0.0,12009,21064,9666,11703,13013,1
0.0,0.0,0.0,12047,21208,9744,12060,13122,1
0.0,0.0,0.0,12060,21208,9699,12124,12932,1
0.0,0.0,0.0,12112,21291,10003,12477,12932,1
0.0,0.0,0.0,12163,21375,10499,13735,13821,1
0.0,0.0,0.0,12228,21416,10546,14311,14577,1
0.0,0.0,0.0,12228,21416,10629,14741,14846,1
0.0,0.0,0.0,12228,21416,10629,14488,14429,1
0.0,0.0,0.0,12293,21416,10605,14166,14108,1
0.0,0.0,0.0,12320,21500,10594,13538,13792,1
0.0,0.0,0.0,12346,21563,10605,13287,13510,1
0.0,0.0,0.0,12346,21563,10558,13232,13232,1
0.0,0.0,0.0,12346,21542,10535,13246,13068,1
0.0,0.0,0.0,12346,21500,10546,13122,13081,1
0.0,0.0,0.0,12320,21521,10535,13027,13040,1
0.0,0.0,0.0,12293,21479,10535,12905,13027,1
0.0,0.0,0.0,12267,21458,10535,12905,13013,1
0.0,0.0,0.0,12320,21458,10546,12851,12999,1
0.0,0.0,0.0,12293,21479,10546,12797,12945,1
0.0,0.0,0.0,12293,21542,10546,12810,12932,1
0.0,0.0,0.0,12280,21563,10546,12770,12945,1
0.0,0.0,0.0,12293,21479,10570,12770,12905,1
0.0,0.0,0.0,12280,21500,10558,12797,12905,1
0.0,0.0,0.0,12320,21479,10582,12797,12932,1
0.0,0.0,0.0,12280,21479,10582,12770,12932,1
0.0,0.0,0.0,12267,21479,10582,12743,12918,1
0.0,0.0,0.0,12267,21479,10582,12783,12905,1
0.0,0.0,0.0,12267,21458,10558,12743,12905,1
0.0,0.0,0.0,12267,21479,10582,12743,12932,1
