GyroX,GyroY,GyroZ,Thumb,Index,Middle,Ring,Pinky,Gesture
0.0,0.0,0.0,13081,25843,27911,40912,20475,5
0.0,0.0,0.0,13068,25894,27828,40868,20515,5
0.0,0.0,0.0,13040,25894,27856,40868,20515,5
0.0,0.0,0.0,13054,25894,27800,40780,20555,5
0.0,0.0,0.0,13068,25793,27828,40736,20555,5
0.0,0.0,0.0,13040,25793,27745,40780,20595,5
0.0,0.0,0.0,13040,25818,27745,40693,20636,5
0.0,0.0,0.0,12972,25793,27800,40605,20555,5
0.0,0.0,0.0,13013,25793,27745,40649,20495,5
0.0,0.0,0.0,13027,25767,27691,40649,20475,5
0.0,0.0,0.0,13013,25742,27691,40519,20495,5
0.0,0.0,0.0,13040,25742,27636,40519,20475,5
0.0,0.0,0.0,13027,25691,27691,40605,20435,5
0.0,0.0,0.0,13013,25691,27609,40519,20435,5
0.0,0.0,0.0,13013,25666,27636,40519,20475,5
0.0,0.0,0.0,13013,25691,27581,40475,20475,5
0.0,0.0,0.0,12972,25691,27581,40432,20495,5
0.0,0.0,0.0,12972,25666,27554,40389,20395,5
0.0,0.0,0.0,12999,25691,27527,40346,20515,5
0.0,0.0,0.0,12972,25666,27527,40346,20475,5
0.0,0.0,0.0,13013,25641,27554,40259,20475,5
0.0,0.0,0.0,12959,25591,27554,40346,20475,5
0.0,0.0,0.0,12959,25515,27581,40259,20495,5
0.0,0.0,0.0,12986,25490,27527,40259,20455,5
0.0,0.0,0.0,12972,25591,27472,40259,20475,5
0.0,0.0,0.0,12972,25591,27472,40173,20495,5
0.0,0.0,0.0,12999,25591,27472,40173,20495,5
0.0,0.0,0.0,12972,25591,27472,40088,20515,5
0.0,0.0,0.0,12972,25515,27472,40173,20475,5
0.0,0.0,0.0,12972,25515,27418,40088,20495,5
0.0,0.0,0.0,12918,25515,27391,40088,20495,5
0.0,0.0,0.0,12959,25490,27418,40045,20535,5
0.0,0.0,0.0,12959,25440,27418,40088,20475,5
0.0,0.0,0.0,12932,25440,27418,40002,20535,5
0.0,0.0,0.0,12905,25390,27418,40002,20636,5
0.0,0.0,0.0,12864,25390,27391,39832,20595,5
0.0,0.0,0.0,12851,25390,27283,39832,20595,5
0.0,0.0,0.0,12851,25341,27283,39832,20495,5
0.0,0.0,0.0,12851,25316,27364,39790,20515,5
0.0,0.0,0.0,12824,25291,27337,39790,20555,5
0.0,0.0,0.0,12824,25266,27283,39705,20555,5
0.0,0.0,0.0,12810,25241,27310,39747,20555,5
0.0,0.0,0.0,12756,25266,27283,39663,20575,5
0.0,0.0,0.0,12810,25241,27256,39578,20636,5
0.0,0.0,0.0,12797,25266,27175,39621,20615,5
0.0,0.0,0.0,12797,25241,27256,39705,20555,5
0.0,0.0,0.0,12797,25192,27256,39705,20555,5
0.0,0.0,0.0,12770,25216,27202,39578,20636,5
0.0,0.0,0.0,12797,25192,27175,39494,20676,5
0.0,0.0,0.0,12770,25241,27148,39452,20636,5
0.0,0.0,0.0,12770,25192,27202,39536,20676,5
0.0,0.0,0.0,12703,25192,27095,39452,20595,5
0.0,0.0,0.0,12690,25142,27122,39411,20636,5
0.0,0.0,0.0,12690,25192,27095,39578,20636,5
0.0,0.0,0.0,12636,25093,27041,39411,20676,5
0.0,0.0,0.0,12556,25118,27041,39327,20676,5
0.0,0.0,0.0,12636,25093,27068,39494,20676,5
0.0,0.0,0.0,12636,25093,26961,39369,20676,5
0.0,0.0,0.0,12649,25093,27041,39369,20636,5
0.0,0.0,0.0,12663,25093,26935,39369,20676,5
0.0,0.0,0.0,12649,25019,26961,39327,20716,5
0.0,0.0,0.0,12636,25093,26961,39327,20696,5
0.0,0.0,0.0,12636,25044,26935,39327,20716,5
0.0,0.0,0.0,12636,25044,26908,39285,20676,5
0.0,0.0,0.0,12636,25044,26882,39244,20636,5
0.0,0.0,0.0,12636,24946,26908,39327,20716,5
0.0,0.0,0.0,12610,25044,26882,39244,20716,5
0.0,0.0,0.0,12636,25044,26855,39202,20716,5
0.0,0.0,0.0,12636,24946,26829,39160,20656,5
0.0,0.0,0.0,12610,24946,26882,39202,20696,5
0.0,0.0,0.0,12623,24897,26802,39244,20676,5
0.0,0.0,0.0,12649,24946,26855,39160,20696,5
0.0,0.0,0.0,12663,24946,26829,39077,20716,5
0.0,0.0,0.0,12730,24946,26829,39036,20716,5
0.0,0.0,0.0,12743,24921,26776,39077,20676,5
0.0,0.0,0.0,12690,24921,26829,39036,20716,5
0.0,0.0,0.0,12676,24946,26829,38995,20676,5
0.0,0.0,0.0,12690,24946,26749,38995,20676,5
0.0,0.0,0.0,12649,24897,26802,38995,20676,5
0.0,0.0,0.0,12636,24897,26776,38830,20716,5
0.0,0.0,0.0,12636,24897,26829,38995,20636,5
0.0,0.0,0.0,12649,24897,26776,38830,20696,5
0.0,0.0,0.0,12636,24897,26776,38953,20696,5
0.0,0.0,0.0,12636,24873,26776,39036,20656,5
0.0,0.0,0.0,12583,24897,26776,38871,20676,5
0.0,0.0,0.0,12596,24799,26776,38995,20656,5
0.0,0.0,0.0,12596,24824,26723,38953,20676,5
0.0,0.0,0.0,12596,24897,26723,38789,20676,5
0.0,0.0,0.0,12583,24799,26670,38830,20716,5
0.0,0.0,0.0,12610,24799,26749,38789,20716,5
0.0,0.0,0.0,12583,24799,26723,38830,20716,5
0.0,0.0,0.0,12596,24824,26670,38707,20757,5
0.0,0.0,0.0,12556,24751,26723,38748,20757,5
0.0,0.0,0.0,12610,24775,26670,38666,20716,5
0.0,0.0,0.0,12543,24799,26723,38748,20716,5
0.0,0.0,0.0,12583,24799,26670,38666,20737,5
0.0,0.0,0.0,12543,24799,26670,38666,20757,5
0.0,0.0,0.0,12583,24775,26670,38707,20716,5
0.0,0.0,0.0,12543,24727,26670,38585,20757,5
0.0,0.0,0.0,12543,24727,26618,38707,20757,5
0.0,0.0,0.0,12530,24751,26723,38666,20757,5
0.0,0.0,0.0,12583,24702,26618,38666,20757,5
0.0,0.0,0.0,12543,24654,26618,38707,20757,5
0.0,0.0,0.0,12583,24702,26592,38666,20798,5
0.0,0.0,0.0,12583,24727,26644,38666,20798,5
0.0,0.0,0.0,12583,24702,26592,38544,20737,5
0.0,0.0,0.0,12530,24727,26618,38585,20798,5
0.0,0.0,0.0,12583,24727,26618,38585,20716,5
0.0,0.0,0.0,12583,24702,26592,38503,20737,5
0.0,0.0,0.0,12543,24702,26566,38422,20818,5
0.0,0.0,0.0,12543,24654,26566,38503,20757,5
0.0,0.0,0.0,12543,24727,26566,38544,20757,5
0.0,0.0,0.0,12543,24654,26566,38463,20757,5
0.0,0.0,0.0,12543,24654,26539,38382,20737,5
0.0,0.0,0.0,12583,24654,26566,38422,20798,5
0.0,0.0,0.0,12543,24654,26566,38382,20798,5
0.0,0.0,0.0,12543,24678,26513,38382,21002,5
0.0,0.0,0.0,12556,24630,26513,38100,21690,5
0.0,0.0,0.0,12530,24606,26566,38059,21521,5
0.0,0.0,0.0,12690,24606,26487,38059,20495,5
0.0,0.0,0.0,12932,24558,26513,38260,19921,5
0.0,0.0,0.0,13636,24727,26513,38585,18987,5
0.0,0.0,0.0,14108,24873,26618,39119,17704,5
0.0,0.0,0.0,13935,25044,26776,39369,16915,5
0.0,0.0,0.0,13232,25291,26935,39327,16385,5
0.0,0.0,0.0,12770,25341,26961,39036,15900,5
0.0,0.0,0.0,12743,25365,26961,38871,15428,5
0.0,0.0,0.0,12797,25216,27041,38585,15211,5
0.0,0.0,0.0,12851,25192,27041,38220,14967,5
0.0,0.0,0.0,13357,24995,26988,37741,14907,5
0.0,0.0,0.0,13398,24946,26935,37347,14967,5
0.0,0.0,0.0,13454,24897,26882,37230,14922,5
0.0,0.0,0.0,13978,24897,26855,37191,14937,5
0.0,0.0,0.0,14726,24848,26829,37075,15104,5
0.0,0.0,0.0,17186,24824,26829,37230,15196,5
0.0,0.0,0.0,19999,24897,26829,37230,15335,5
0.0,0.0,0.0,20256,24921,26882,37308,15366,5
0.0,0.0,0.0,19080,24946,26882,37308,15397,5
0.0,0.0,0.0,17669,25093,26988,37583,15397,5
0.0,0.0,0.0,17461,25044,26855,37386,15521,5
0.0,0.0,0.0,17495,24995,26882,37230,15710,5
0.0,0.0,0.0,17774,24946,26829,37114,15663,5
0.0,0.0,0.0,17739,24873,26829,37075,15710,5
0.0,0.0,0.0,17739,24873,26882,37114,15726,5
0.0,0.0,0.0,17652,24824,26829,37152,15741,5
0.0,0.0,0.0,17340,24751,26802,37075,15900,5
0.0,0.0,0.0,17050,24799,26618,36386,16125,5
0.0,0.0,0.0,16815,24702,26435,36010,16287,5
0.0,0.0,0.0,16615,24606,26566,35898,16319,5
0.0,0.0,0.0,16417,24654,26618,36160,16483,5
0.0,0.0,0.0,16319,24970,27041,36122,16483,5
0.0,0.0,0.0,16157,25291,27499,36386,16499,5
0.0,0.0,0.0,15789,25767,28301,36690,16549,5
0.0,0.0,0.0,15521,26124,28840,37622,16665,5
0.0,0.0,0.0,15412,26670,29187,39244,17084,5
0.0,0.0,0.0,15459,27095,29509,40519,17050,5
0.0,0.0,0.0,15397,27418,29746,41265,17289,5
0.0,0.0,0.0,15350,27911,30105,42304,18362,5
0.0,0.0,0.0,15242,28301,30408,42304,18894,5
0.0,0.0,0.0,15150,28583,30745,42906,19231,5
0.0,0.0,0.0,15211,28840,31056,43519,19344,5
0.0,0.0,0.0,15304,28955,31181,43903,19344,5
0.0,0.0,0.0,15521,28955,31150,43711,19249,5
0.0,0.0,0.0,15615,28840,31213,44000,19061,5
0.0,0.0,0.0,15773,28898,31150,43855,18931,5
0.0,0.0,0.0,16060,28754,31087,43519,18912,5
0.0,0.0,0.0,16076,28583,31025,43472,18672,5
0.0,0.0,0.0,16060,28245,30776,43093,18236,5
0.0,0.0,0.0,15932,28105,30622,43046,17915,5
0.0,0.0,0.0,15900,27966,30561,42766,17951,5
0.0,0.0,0.0,15805,27800,30469,42719,17565,5
0.0,0.0,0.0,15710,27800,30347,42580,17084,5
0.0,0.0,0.0,15584,27718,30377,42673,16044,5
0.0,0.0,0.0,15615,27581,30286,42488,15089,5
0.0,0.0,0.0,15273,27364,30045,42304,14607,5
0.0,0.0,0.0,15150,27095,29716,41848,14458,5
0.0,0.0,0.0,15089,26829,29421,40955,14547,5
0.0,0.0,0.0,15119,26331,29042,40045,14771,5
0.0,0.0,0.0,15288,25894,28697,39536,15074,5
0.0,0.0,0.0,15789,25717,27966,38382,15242,5
0.0,0.0,0.0,15964,25490,27229,38220,15350,5
0.0,0.0,0.0,16483,25241,26566,37940,15428,5
0.0,0.0,0.0,16848,25068,26253,37701,15459,5
0.0,0.0,0.0,15964,24897,26124,37308,15366,5
0.0,0.0,0.0,15288,24873,25996,37386,15181,5
0.0,0.0,0.0,14861,24751,25920,37308,15089,5
0.0,0.0,0.0,14666,24727,25920,37230,15150,5
0.0,0.0,0.0,14666,24606,25894,37230,15089,5
0.0,0.0,0.0,14876,24654,25894,37230,15150,5
0.0,0.0,0.0,15104,24654,25894,37152,15181,5
0.0,0.0,0.0,15647,24630,25843,37269,15150,5
0.0,0.0,0.0,16615,24654,25843,37191,15165,5
0.0,0.0,0.0,17186,24702,25843,37308,15211,5
0.0,0.0,0.0,16966,24702,25894,37426,15227,5
0.0,0.0,0.0,16681,24751,25894,37386,15242,5
0.0,0.0,0.0,16303,24727,25869,37543,15304,5
0.0,0.0,0.0,15916,24702,25894,37386,15273,5
0.0,0.0,0.0,15868,24702,25869,37386,15350,5
0.0,0.0,0.0,15584,24606,25920,37465,15366,5
0.0,0.0,0.0,15119,24558,25945,37504,15381,5
0.0,0.0,0.0,14891,24606,25945,37465,15490,5
0.0,0.0,0.0,14801,24534,25971,37504,15428,5
0.0,0.0,0.0,14726,24534,25894,37504,15428,5
0.0,0.0,0.0,14636,24462,25996,37386,15459,5
0.0,0.0,0.0,14488,24414,25894,37386,15521,5
0.0,0.0,0.0,14370,24414,25920,37269,15537,5
0.0,0.0,0.0,14224,24318,25920,37230,15615,5
0.0,0.0,0.0,14238,24390,25945,37269,15615,5
0.0,0.0,0.0,14195,24342,25920,37191,15647,5
0.0,0.0,0.0,14195,24438,25894,37152,15710,5
0.0,0.0,0.0,14195,24414,25945,37152,15631,5
0.0,0.0,0.0,14021,24414,25894,37152,15647,5
0.0,0.0,0.0,13906,24462,25920,37152,15710,5
0.0,0.0,0.0,13835,24414,25945,37152,15647,5
0.0,0.0,0.0,13892,24414,25945,37504,15443,5
0.0,0.0,0.0,14079,24462,25894,37701,15304,5
0.0,0.0,0.0,14021,24438,25869,37900,15089,5
0.0,0.0,0.0,13978,24414,25818,37940,14816,5
0.0,0.0,0.0,13935,24438,25818,38019,14666,5
0.0,0.0,0.0,14021,24438,25793,37781,14636,5
0.0,0.0,0.0,14007,24271,25742,37701,14801,5
0.0,0.0,0.0,13992,24342,25717,37504,14967,5
0.0,0.0,0.0,14021,24318,25742,37622,14982,5
0.0,0.0,0.0,13964,24271,25793,37543,14907,5
0.0,0.0,0.0,13892,24294,25691,37543,14997,5
0.0,0.0,0.0,13906,24294,25742,37504,15089,5
0.0,0.0,0.0,13792,24318,25717,37347,15089,5
0.0,0.0,0.0,13735,24318,25691,37347,15089,5
0.0,0.0,0.0,13735,24271,25691,37386,15089,5
0.0,0.0,0.0,13735,24294,25691,37386,15119,5
0.0,0.0,0.0,13735,24271,25691,37308,15089,5
0.0,0.0,0.0,13735,24247,25767,37386,15089,5
0.0,0.0,0.0,13735,24318,25742,37426,15135,5
0.0,0.0,0.0,13566,24294,25742,37308,15119,5
0.0,0.0,0.0,13454,24294,25691,37308,15181,5
0.0,0.0,0.0,13357,24318,25717,37347,15165,5
0.0,0.0,0.0,13343,24223,25666,37230,15150,5
0.0,0.0,0.0,13287,24271,25717,37230,15135,5
0.0,0.0,0.0,13287,24247,25691,37347,15150,5
0.0,0.0,0.0,13287,24271,25641,37308,15150,5
0.0,0.0,0.0,13246,24271,25691,37308,15119,5
0.0,0.0,0.0,13177,24271,25691,37230,15150,5
0.0,0.0,0.0,13177,24271,25641,37230,15227,5
0.0,0.0,0.0,13177,24247,25691,37230,15150,5
0.0,0.0,0.0,13150,24152,25691,37308,15181,5
0.0,0.0,0.0,13122,24223,25691,37308,15196,5
0.0,0.0,0.0,13122,24199,25691,37308,15181,5
0.0,0.0,0.0,13027,24223,25691,37230,15273,5
0.0,0.0,0.0,12959,24152,25717,37230,15211,5
0.0,0.0,0.0,12824,24199,25641,37230,15227,5
0.0,0.0,0.0,12596,24176,25591,37114,15304,5
0.0,0.0,0.0,12490,24129,25591,37152,15335,5
0.0,0.0,0.0,12398,24081,25641,37114,15350,5
0.0,0.0,0.0,12346,24129,25641,37075,15475,5
0.0,0.0,0.0,12267,24081,25616,37075,15443,5
0.0,0.0,0.0,12228,24058,25591,37114,15428,5
0.0,0.0,0.0,12163,24129,25616,37114,15459,5
0.0,0.0,0.0,12112,24058,25591,37075,15459,5
0.0,0.0,0.0,11983,23987,25591,36998,15490,5
0.0,0.0,0.0,11893,23987,25591,37075,15710,5
0.0,0.0,0.0,11855,23964,25591,37114,16028,5
0.0,0.0,0.0,11830,23870,25515,36998,16125,5
0.0,0.0,0.0,11817,23847,25490,36767,16109,5
0.0,0.0,0.0,11804,23707,25291,36538,16060,5
0.0,0.0,0.0,11754,23684,25216,36424,16060,5
0.0,0.0,0.0,11779,23661,25291,36462,16189,5
0.0,0.0,0.0,11817,23661,25266,36310,16189,5
0.0,0.0,0.0,11855,23661,25192,36235,16157,5
0.0,0.0,0.0,11932,23592,25192,36160,16157,5
0.0,0.0,0.0,11983,23592,25093,36010,16173,5
0.0,0.0,0.0,12189,23615,25093,35972,16238,5
0.0,0.0,0.0,12267,23569,25068,35898,16287,5
0.0,0.0,0.0,12320,23592,25068,35861,16206,5
0.0,0.0,0.0,12320,23569,25044,35861,16157,5
0.0,0.0,0.0,12189,23615,25093,36160,16093,5
0.0,0.0,0.0,12424,23847,25093,36235,16060,5
0.0,0.0,0.0,13095,24366,25093,36310,16044,5
0.0,0.0,0.0,13371,24751,25118,36160,15980,5
0.0,0.0,0.0,12770,25093,25241,36010,15900,5
0.0,0.0,0.0,11603,25192,25440,35861,15366,5
0.0,0.0,0.0,10441,25540,25843,36010,15028,5
0.0,0.0,0.0,10163,25691,26357,36272,14621,5
0.0,0.0,0.0,9935,25996,27015,36310,14253,5
0.0,0.0,0.0,9183,26202,27202,35972,14007,5
0.0,0.0,0.0,8863,26176,27418,35418,13821,5
0.0,0.0,0.0,8852,26150,27472,35127,13735,5
0.0,0.0,0.0,8863,25818,27256,34553,13735,5
0.0,0.0,0.0,8852,24799,26618,34553,13679,5
0.0,0.0,0.0,10174,24129,26202,34874,13878,5
0.0,0.0,0.0,11317,23777,25818,34839,14209,5
0.0,0.0,0.0,11366,23477,25515,34982,14268,5
0.0,0.0,0.0,11317,23431,25490,35018,14399,5
0.0,0.0,0.0,11304,23477,25440,35127,14547,5
0.0,0.0,0.0,11317,23431,25390,34982,14562,5
0.0,0.0,0.0,11255,23339,25316,35018,14636,5
0.0,0.0,0.0,11255,23316,25291,34874,14607,5
0.0,0.0,0.0,10867,23248,25142,34624,14370,5
0.0,0.0,0.0,10629,23522,25291,35272,13594,5
0.0,0.0,0.0,10748,23431,25093,34412,13081,5
0.0,0.0,0.0,10867,23477,25717,28498,13150,5
0.0,0.0,0.0,10963,23569,25843,24824,12743,5
0.0,0.0,0.0,10927,23615,25843,25291,12636,5
0.0,0.0,0.0,10879,23800,26150,25793,12570,5
0.0,0.0,0.0,11157,23707,26253,27581,12932,5
0.0,0.0,0.0,11182,23248,25945,27364,13136,5
0.0,0.0,0.0,11157,22977,25440,26592,13580,5
0.0,0.0,0.0,11268,22843,24897,26150,13849,5
0.0,0.0,0.0,11157,22709,24271,25691,14166,5
0.0,0.0,0.0,11268,22510,23987,25793,16060,5
0.0,0.0,0.0,11304,22444,23800,26099,16698,5
0.0,0.0,0.0,11109,22183,23847,26253,17461,5
0.0,0.0,0.0,11170,22161,24199,26566,18471,5
0.0,0.0,0.0,11304,22010,24630,27636,19746,5
0.0,0.0,0.0,11565,21839,25093,26961,19268,5
0.0,0.0,0.0,11983,21584,25044,27068,19689,5
0.0,0.0,0.0,12490,21584,24848,26935,17774,5
0.0,0.0,0.0,12743,22010,24702,27581,16385,5
0.0,0.0,0.0,13013,22576,25291,28527,16352,5
0.0,0.0,0.0,13357,23339,25691,28869,16748,5
0.0,0.0,0.0,13906,24058,25894,29391,16815,5
0.0,0.0,0.0,14547,24799,26150,29716,16731,5
0.0,0.0,0.0,14756,25019,26202,30105,16385,5
0.0,0.0,0.0,14982,25044,26202,30105,16222,5
0.0,0.0,0.0,14922,25291,26150,30286,16157,5
0.0,0.0,0.0,14846,25415,26099,30165,16303,5
0.0,0.0,0.0,15074,25490,26099,29984,16648,5
0.0,0.0,0.0,15119,25440,26022,29805,16681,5
0.0,0.0,0.0,15089,25440,25996,29391,16831,5
0.0,0.0,0.0,14967,25192,25894,28840,16999,5
0.0,0.0,0.0,14488,25093,25843,28357,17186,5
0.0,0.0,0.0,14429,25044,25793,28161,17135,5
0.0,0.0,0.0,14547,24946,25717,27911,16848,5
0.0,0.0,0.0,14458,24897,25616,27636,16598,5
0.0,0.0,0.0,14385,24630,25440,27472,16271,5
0.0,0.0,0.0,14326,24510,25390,27828,15868,5
0.0,0.0,0.0,14385,24438,25390,28527,15600,5
0.0,0.0,0.0,14326,24510,25316,28555,15996,5
0.0,0.0,0.0,14166,24271,25192,28133,16352,5
0.0,0.0,0.0,14021,24223,25216,28049,16385,5
0.0,0.0,0.0,13978,24081,25192,27911,16450,5
0.0,0.0,0.0,13835,24058,25118,27911,16615,5
0.0,0.0,0.0,13764,23987,25044,27828,16681,5
0.0,0.0,0.0,13679,23940,24995,27800,16681,5
0.0,0.0,0.0,13622,23894,25044,27800,16765,5
0.0,0.0,0.0,13468,23894,24897,28442,16748,5
0.0,0.0,0.0,13412,23870,24946,28133,17169,5
0.0,0.0,0.0,13315,23684,24897,28669,17495,5
0.0,0.0,0.0,13122,23661,24873,30105,17704,5
0.0,0.0,0.0,13013,23385,24897,31244,17722,5
0.0,0.0,0.0,12932,23180,25291,33956,17845,5
0.0,0.0,0.0,12743,22096,24897,38707,18272,5
0.0,0.0,0.0,12477,20879,22532,45231,19268,5
0.0,0.0,0.0,12320,20636,21967,47783,19727,5
0.0,0.0,0.0,12372,20818,22401,46146,19650,5
0.0,0.0,0.0,12293,20737,22401,45281,19612,5
0.0,0.0,0.0,12280,20716,22444,44881,19592,5
0.0,0.0,0.0,12267,20676,22379,44389,19573,5
0.0,0.0,0.0,12202,20676,22423,43759,19458,5
0.0,0.0,0.0,12215,20555,22270,42075,19960,5
0.0,0.0,0.0,12189,20595,22183,41309,21563,5
0.0,0.0,0.0,12228,21711,23157,38912,23431,5
0.0,0.0,0.0,12490,23112,24438,38260,25945,5
0.0,0.0,0.0,12663,24558,26829,40173,29716,5
0.0,0.0,0.0,12797,24946,27472,41088,28955,5
0.0,0.0,0.0,12972,25167,27095,40780,27911,5
0.0,0.0,0.0,12972,25192,26723,40736,26305,5
0.0,0.0,0.0,13068,24654,26202,40045,24582,5
0.0,0.0,0.0,13150,24223,25996,39832,21416,5
0.0,0.0,0.0,12986,23522,25843,40173,17461,5
0.0,0.0,0.0,12959,23477,25666,40649,16093,5
0.0,0.0,0.0,12878,23477,25717,41132,15397,5
0.0,0.0,0.0,12878,23499,25793,41132,15211,5
0.0,0.0,0.0,12824,23569,25793,41044,15089,5
0.0,0.0,0.0,12824,23522,25742,40824,15119,5
0.0,0.0,0.0,13013,23546,25818,40912,15211,5
0.0,0.0,0.0,13343,23569,25742,40868,15211,5
0.0,0.0,0.0,14326,23754,25742,40562,15150,5
0.0,0.0,0.0,14253,23730,25717,40693,14922,5
0.0,0.0,0.0,14137,23592,25591,40562,14577,5
0.0,0.0,0.0,13650,23477,25591,40173,14137,5
0.0,0.0,0.0,13177,23385,25440,39747,13849,5
0.0,0.0,0.0,13013,23203,25142,39160,13707,5
0.0,0.0,0.0,12797,22932,24897,38748,13510,5
0.0,0.0,0.0,12690,22843,24799,38503,13371,5
0.0,0.0,0.0,12649,22843,24751,38220,13329,5
0.0,0.0,0.0,12530,22754,24799,38180,13232,5
0.0,0.0,0.0,12424,22709,24799,38220,13232,5
0.0,0.0,0.0,12346,22731,24702,38503,13191,5
0.0,0.0,0.0,12124,22820,24775,38912,13205,5
0.0,0.0,0.0,12280,22865,24799,39160,13260,5
0.0,0.0,0.0,11553,23022,24946,39832,13205,5
0.0,0.0,0.0,11268,23203,25192,40088,13218,5
0.0,0.0,0.0,11255,23248,25192,40346,13191,5
0.0,0.0,0.0,11268,23431,25390,40605,13177,5
0.0,0.0,0.0,11540,23638,25641,41000,13150,5
0.0,0.0,0.0,11881,23615,25717,41265,13122,5
0.0,0.0,0.0,12636,23638,25691,41132,13136,5
0.0,0.0,0.0,13013,23569,25641,41176,13136,5
0.0,0.0,0.0,13095,23546,25793,41221,13136,5
0.0,0.0,0.0,13580,23477,25818,41132,13136,5
0.0,0.0,0.0,14209,23499,25742,41000,13205,5
0.0,0.0,0.0,15165,23615,25691,40912,13246,5
0.0,0.0,0.0,16157,23615,25717,41132,13329,5
0.0,0.0,0.0,17951,23569,25591,40693,13482,5
0.0,0.0,0.0,17986,23203,25291,40346,13510,5
0.0,0.0,0.0,17634,23225,25192,40173,13510,5
0.0,0.0,0.0,17220,23157,25192,40045,13538,5
0.0,0.0,0.0,17118,23067,25118,40002,13566,5
0.0,0.0,0.0,17915,22932,25192,39960,13580,5
0.0,0.0,0.0,18417,22932,25142,40045,13622,5
0.0,0.0,0.0,18654,22932,25093,39874,13538,5
0.0,0.0,0.0,18562,22798,25044,39832,13566,5
0.0,0.0,0.0,18057,22820,25044,39747,13580,5
0.0,0.0,0.0,17565,22709,24946,39747,13538,5
0.0,0.0,0.0,17289,22709,24897,39663,13566,5
0.0,0.0,0.0,16815,22621,24897,39494,13510,5
0.0,0.0,0.0,16549,22423,24799,39244,13510,5
0.0,0.0,0.0,16352,22357,24510,38707,13622,5
0.0,0.0,0.0,15805,22226,24438,38059,13580,5
0.0,0.0,0.0,15521,22140,24414,37980,13524,5
0.0,0.0,0.0,15028,22053,24342,38019,13510,5
0.0,0.0,0.0,14666,22010,24318,37860,13538,5
0.0,0.0,0.0,14399,21946,24534,37900,13566,5
0.0,0.0,0.0,14370,21924,24462,37701,13594,5
0.0,0.0,0.0,14224,21839,24462,37781,13580,5
0.0,0.0,0.0,14253,21818,24414,37662,13594,5
0.0,0.0,0.0,14488,21818,24414,37622,13622,5
0.0,0.0,0.0,14399,21775,24342,37622,13594,5
0.0,0.0,0.0,14786,21775,24318,37622,13622,5
0.0,0.0,0.0,15900,21711,24271,37583,13580,5
0.0,0.0,0.0,17101,21754,24342,37701,13580,5
0.0,0.0,0.0,16831,21711,24223,38260,13906,5
0.0,0.0,0.0,16483,21542,23894,38019,13778,5
0.0,0.0,0.0,16401,21458,23894,37820,13538,5
0.0,0.0,0.0,16352,21542,23800,37741,13426,5
0.0,0.0,0.0,16287,21458,23777,37622,13287,5
0.0,0.0,0.0,16189,21542,23777,37543,13287,5
0.0,0.0,0.0,16254,21479,23754,37386,13301,5
0.0,0.0,0.0,16483,21500,23684,37308,13287,5
0.0,0.0,0.0,16222,21416,23684,37152,13343,5
0.0,0.0,0.0,15964,21416,23661,37230,13440,5
0.0,0.0,0.0,15789,21500,23592,37230,13524,5
0.0,0.0,0.0,15710,21563,23615,37269,13524,5
0.0,0.0,0.0,15553,21584,23615,37465,13594,5
0.0,0.0,0.0,15568,21563,23615,37230,13693,5
0.0,0.0,0.0,15615,21542,23615,37269,13650,5
0.0,0.0,0.0,15584,21500,23569,37230,13707,5
0.0,0.0,0.0,15647,21479,23569,37230,13749,5
0.0,0.0,0.0,15490,21458,23569,37386,13878,5
0.0,0.0,0.0,15350,21458,23615,37386,13964,5
0.0,0.0,0.0,15335,21416,23615,37347,13863,5
0.0,0.0,0.0,15273,21416,23569,37386,13863,5
0.0,0.0,0.0,15150,21375,23522,37347,13921,5
0.0,0.0,0.0,15104,21333,23431,37308,13964,5
0.0,0.0,0.0,15119,21333,23499,37230,13964,5
0.0,0.0,0.0,15150,21312,23499,37269,13849,5
0.0,0.0,0.0,15058,21291,23431,37191,13849,5
0.0,0.0,0.0,15104,21333,23477,37152,13821,5
0.0,0.0,0.0,15104,21375,23477,37114,13792,5
0.0,0.0,0.0,15058,21291,23477,37075,13821,5
0.0,0.0,0.0,15089,21229,23431,37075,13821,5
0.0,0.0,0.0,15089,21229,23431,37114,13707,5
0.0,0.0,0.0,15584,21208,23339,36920,13679,5
0.0,0.0,0.0,16319,21208,23385,36767,13735,5
0.0,0.0,0.0,16499,21125,23203,36576,13707,5
0.0,0.0,0.0,16831,21250,23203,36690,13707,5
0.0,0.0,0.0,17033,21291,23294,36690,13821,5
0.0,0.0,0.0,16915,21479,23385,36843,13892,5
0.0,0.0,0.0,16516,21542,23522,36920,13878,5
0.0,0.0,0.0,15678,21521,23569,37152,13935,5
0.0,0.0,0.0,15412,21627,23661,37269,14021,5
0.0,0.0,0.0,15366,21775,23987,37504,14036,5
0.0,0.0,0.0,15350,21818,24129,37386,14021,5
0.0,0.0,0.0,15350,22010,23940,37583,14195,5
0.0,0.0,0.0,15459,22401,24318,37980,14282,5
0.0,0.0,0.0,15459,22621,24702,38260,14370,5
0.0,0.0,0.0,15506,22576,24702,38180,14429,5
0.0,0.0,0.0,15490,22621,24702,38180,14488,5
0.0,0.0,0.0,15428,22510,24702,38019,14488,5
0.0,0.0,0.0,15412,22488,24606,37820,14444,5
0.0,0.0,0.0,15227,22401,24606,37940,14370,5
0.0,0.0,0.0,15104,22270,24534,37860,14326,5
0.0,0.0,0.0,14967,22226,24510,37860,14370,5
0.0,0.0,0.0,14801,22183,24438,37701,14355,5
0.0,0.0,0.0,14756,22140,24366,37701,14326,5
0.0,0.0,0.0,14607,22118,24342,37622,14370,5
0.0,0.0,0.0,14503,22183,24438,37543,14385,5
0.0,0.0,0.0,14370,22183,24534,37860,14429,5
0.0,0.0,0.0,14224,22183,24462,37701,14488,5
0.0,0.0,0.0,14108,22096,24342,37504,14488,5
0.0,0.0,0.0,14021,22010,24318,37543,14518,5
0.0,0.0,0.0,13992,22096,24247,37701,14518,5
0.0,0.0,0.0,13906,22401,25093,38422,14577,5
0.0,0.0,0.0,13964,22932,26305,39077,14696,5
0.0,0.0,0.0,14108,23522,27364,40088,14711,5
0.0,0.0,0.0,14108,24129,27911,41044,14786,5
0.0,0.0,0.0,14064,24366,28245,41309,15028,5
0.0,0.0,0.0,14064,24558,28583,42029,15181,5
0.0,0.0,0.0,14137,24995,28927,42766,15165,5
0.0,0.0,0.0,14209,25390,29450,43472,15242,5
0.0,0.0,0.0,14341,25767,29746,43855,15335,5
0.0,0.0,0.0,14488,26047,29984,44291,15304,5
0.0,0.0,0.0,14562,26357,30226,44389,15397,5
0.0,0.0,0.0,14621,26409,30469,44832,15366,5
0.0,0.0,0.0,14621,26513,30591,44881,15521,5
0.0,0.0,0.0,14577,26566,30530,44981,15647,5
0.0,0.0,0.0,14488,26357,30469,44931,15615,5
0.0,0.0,0.0,14488,26331,30377,44782,15647,5
0.0,0.0,0.0,14429,26253,30317,44782,15584,5
0.0,0.0,0.0,14399,26279,30226,44487,15584,5
0.0,0.0,0.0,14311,26099,30165,44389,15615,5
0.0,0.0,0.0,14297,25945,29865,44000,15615,5
0.0,0.0,0.0,14224,25793,29627,43615,15584,5
0.0,0.0,0.0,14195,25641,29509,43235,15553,5
0.0,0.0,0.0,14166,25591,29450,43093,15584,5
0.0,0.0,0.0,14151,25515,29391,43235,15568,5
0.0,0.0,0.0,14137,25490,29304,42906,15600,5
0.0,0.0,0.0,14050,25341,29129,42580,15600,5
0.0,0.0,0.0,13992,25142,28984,42304,15615,5
0.0,0.0,0.0,13992,24946,28869,42120,15584,5
0.0,0.0,0.0,13964,24799,28697,42029,15521,5
0.0,0.0,0.0,13849,24558,28385,41443,15521,5
0.0,0.0,0.0,13764,24294,27939,40693,15600,5
0.0,0.0,0.0,13707,23964,27527,39536,15821,5
0.0,0.0,0.0,13707,23569,26487,38341,16028,5
0.0,0.0,0.0,13665,23294,25742,37426,15980,5
0.0,0.0,0.0,13538,22932,25316,36920,15916,5
0.0,0.0,0.0,13524,22820,25291,36690,15884,5
0.0,0.0,0.0,13454,22754,25142,36690,15805,5
0.0,0.0,0.0,13454,22754,25192,36690,15837,5
0.0,0.0,0.0,13496,22798,25266,36690,15837,5
0.0,0.0,0.0,13510,22932,25291,36843,16012,5
0.0,0.0,0.0,13524,23157,25490,36920,16898,5
0.0,0.0,0.0,13622,23248,25565,36920,17289,5
0.0,0.0,0.0,13679,23431,25591,36920,17186,5
0.0,0.0,0.0,13679,23385,25591,36690,16966,5
0.0,0.0,0.0,13679,23385,25591,36690,16648,5
0.0,0.0,0.0,13735,23431,25616,36614,16681,5
0.0,0.0,0.0,13849,23477,25793,36767,16632,5
0.0,0.0,0.0,13935,23592,25742,36767,16483,5
0.0,0.0,0.0,13935,23522,25793,36690,16385,5
0.0,0.0,0.0,13964,23569,25793,36690,16368,5
0.0,0.0,0.0,14108,23569,25793,36728,16385,5
0.0,0.0,0.0,14036,23569,25793,36614,16287,5
0.0,0.0,0.0,14021,23615,25894,36538,16352,5
0.0,0.0,0.0,13906,23431,25843,36424,16352,5
0.0,0.0,0.0,13849,23454,25742,36424,16303,5
0.0,0.0,0.0,13764,23180,25440,36462,16028,5
0.0,0.0,0.0,13524,22379,24702,35639,15553,5
0.0,0.0,0.0,13454,22183,24462,35309,15459,5
0.0,0.0,0.0,13524,22709,24897,35861,15710,5
0.0,0.0,0.0,13735,23477,25641,36197,16765,5
0.0,0.0,0.0,13863,23707,25894,36010,17374,5
0.0,0.0,0.0,13650,23248,25365,35309,16882,5
0.0,0.0,0.0,13398,22444,24486,34839,15789,5
0.0,0.0,0.0,13440,22621,24534,34982,15757,5
0.0,0.0,0.0,13566,23339,25241,35492,16271,5
0.0,0.0,0.0,13566,23135,25044,35055,16254,5
0.0,0.0,0.0,13343,22423,24414,34482,15773,5
0.0,0.0,0.0,13301,22776,24606,34624,15868,5
0.0,0.0,0.0,13287,22977,24946,34839,15964,5
0.0,0.0,0.0,13122,22576,24534,34767,15412,5
0.0,0.0,0.0,12959,22532,24630,35565,14922,5
0.0,0.0,0.0,12851,22576,24702,35787,14666,5
0.0,0.0,0.0,12932,22510,24606,35345,15028,5
0.0,0.0,0.0,12932,22709,24702,35163,15304,5
0.0,0.0,0.0,12972,22532,24534,34767,15916,5
0.0,0.0,0.0,12851,22292,24271,34767,15227,5
0.0,0.0,0.0,12797,22248,24271,34803,15058,5
0.0,0.0,0.0,12905,22665,24799,35309,15397,5
0.0,0.0,0.0,13068,23316,25515,35712,15932,5
0.0,0.0,0.0,13081,23339,25440,35602,16028,5
0.0,0.0,0.0,13013,23248,25316,35418,15980,5
0.0,0.0,0.0,12918,23157,25241,35272,15916,5
0.0,0.0,0.0,12905,23022,25093,35345,15868,5
0.0,0.0,0.0,12596,22053,24105,34553,15366,5
0.0,0.0,0.0,12451,21796,24105,34341,15211,5
0.0,0.0,0.0,12346,21796,24129,34165,15211,5
0.0,0.0,0.0,12530,23022,25291,35565,16287,5
0.0,0.0,0.0,12583,23316,25490,35272,17792,5
0.0,0.0,0.0,12490,23248,25365,34946,17634,5
0.0,0.0,0.0,12464,23044,25142,34624,17289,5
0.0,0.0,0.0,12267,22010,23987,33852,16125,5
0.0,0.0,0.0,12372,22865,24799,34803,16222,5
0.0,0.0,0.0,12372,23022,25093,34696,16615,5
0.0,0.0,0.0,12215,22010,23987,33645,16189,5
0.0,0.0,0.0,11970,22096,23777,33679,15964,5
0.0,0.0,0.0,12009,22843,24702,34412,16983,5
0.0,0.0,0.0,11919,22357,24223,33611,16698,5
0.0,0.0,0.0,11804,22140,23940,33303,16565,5
0.0,0.0,0.0,11779,22140,23940,33337,16615,5
0.0,0.0,0.0,11804,22096,23964,33337,16632,5
0.0,0.0,0.0,11804,22140,23940,33303,16715,5
0.0,0.0,0.0,11754,22140,23987,33371,16898,5
0.0,0.0,0.0,11779,22140,23940,33337,17016,5
0.0,0.0,0.0,11779,22140,23987,33508,17033,5
0.0,0.0,0.0,11754,22183,23987,33371,17101,5
0.0,0.0,0.0,11754,22183,24081,33474,17237,5
0.0,0.0,0.0,11754,22140,24129,33508,17254,5
0.0,0.0,0.0,11728,22183,24081,33508,17220,5
0.0,0.0,0.0,11716,22183,24129,33576,17220,5
0.0,0.0,0.0,11716,22161,24081,33508,17220,5
0.0,0.0,0.0,11703,22183,24081,33611,17254,5
0.0,0.0,0.0,11716,22226,24081,33576,17289,5
0.0,0.0,0.0,11703,22183,24081,33576,17289,5
0.0,0.0,0.0,11703,22140,24034,33474,17289,5
0.0,0.0,0.0,11691,22270,24034,33576,17289,5
0.0,0.0,0.0,11703,22183,24129,33508,17357,5
0.0,0.0,0.0,11703,22183,24105,33508,17357,5
0.0,0.0,0.0,11703,22096,24058,33508,17426,5
0.0,0.0,0.0,11678,22183,24081,33576,17357,5
0.0,0.0,0.0,11703,22140,24034,33474,17426,5
0.0,0.0,0.0,11703,22226,24058,33576,17426,5
0.0,0.0,0.0,11754,22226,24129,33508,17374,5
0.0,0.0,0.0,11716,22226,24129,33576,17374,5
0.0,0.0,0.0,11728,22226,24105,33576,17357,5
0.0,0.0,0.0,11754,22270,24176,33645,17306,5
0.0,0.0,0.0,11741,22248,24129,33611,17306,5
0.0,0.0,0.0,11728,22226,24129,33508,17323,5
0.0,0.0,0.0,11754,22248,24176,33645,17357,5
0.0,0.0,0.0,11754,22292,24176,33852,17254,5
0.0,0.0,0.0,11716,22313,24176,33576,17289,5
0.0,0.0,0.0,11754,22270,24176,33645,17306,5
0.0,0.0,0.0,11703,22270,24176,33714,17357,5
0.0,0.0,0.0,11728,22270,24176,33508,17357,5
0.0,0.0,0.0,11716,22226,24176,33576,17357,5
0.0,0.0,0.0,11754,22226,24176,33508,17374,5
0.0,0.0,0.0,11716,22205,24129,33439,17357,5
0.0,0.0,0.0,11716,22205,24105,33474,17357,5
0.0,0.0,0.0,11703,22161,24081,33508,17392,5
0.0,0.0,0.0,11728,22183,24129,33508,17426,5
0.0,0.0,0.0,11703,22226,24105,33508,17461,5
0.0,0.0,0.0,11754,22226,24176,33508,17426,5
0.0,0.0,0.0,11754,22226,24129,33508,17357,5
0.0,0.0,0.0,11855,22248,24129,33576,17306,5
0.0,0.0,0.0,12009,22335,24223,33783,17237,5
0.0,0.0,0.0,12112,22532,24438,33714,17220,5
0.0,0.0,0.0,12215,22798,24702,33748,18200,5
0.0,0.0,0.0,12267,22776,24678,33303,18471,5
0.0,0.0,0.0,12189,22665,24438,32832,17933,5
0.0,0.0,0.0,12021,22313,24129,33168,16483,5
0.0,0.0,0.0,11983,22357,24271,33817,15521,5
0.0,0.0,0.0,11932,22488,24606,34696,14907,5
0.0,0.0,0.0,11868,22576,24824,34803,14577,5
0.0,0.0,0.0,11804,22488,24702,34589,14151,5
0.0,0.0,0.0,11678,22444,24751,34412,14021,5
0.0,0.0,0.0,11640,22401,24751,34341,13964,5
0.0,0.0,0.0,11615,22401,24630,34200,14268,5
0.0,0.0,0.0,11628,22313,24606,34165,14756,5
0.0,0.0,0.0,11665,22313,24606,33852,15381,5
0.0,0.0,0.0,11703,22248,24558,33783,15412,5
0.0,0.0,0.0,11703,22248,24510,33817,15335,5
0.0,0.0,0.0,11754,22270,24486,33887,15258,5
0.0,0.0,0.0,11703,22292,24534,33852,15335,5
0.0,0.0,0.0,11665,22248,24510,33991,15397,5
0.0,0.0,0.0,11665,22270,24510,34060,15475,5
0.0,0.0,0.0,11665,22270,24510,34026,15506,5
0.0,0.0,0.0,11665,22270,24510,33887,15647,5
0.0,0.0,0.0,11678,22270,24558,33921,15710,5
0.0,0.0,0.0,11640,22226,24510,33852,15726,5
0.0,0.0,0.0,11640,22248,24462,34130,15789,5
0.0,0.0,0.0,11653,22313,24510,33991,15789,5
0.0,0.0,0.0,11653,22313,24510,33887,15837,5
0.0,0.0,0.0,11628,22379,24558,33956,15852,5
0.0,0.0,0.0,11665,22313,24534,34060,15916,5
0.0,0.0,0.0,11653,22357,24606,34130,15964,5
0.0,0.0,0.0,11665,22248,24606,34060,15996,5
0.0,0.0,0.0,11653,22313,24558,34060,16060,5
0.0,0.0,0.0,11665,22292,24534,34026,16060,5
0.0,0.0,0.0,11665,22335,24486,34026,16044,5
0.0,0.0,0.0,11665,22292,24510,33921,16093,5
0.0,0.0,0.0,11754,22313,24510,33887,15996,5
0.0,0.0,0.0,11855,22313,24510,33852,15916,5
0.0,0.0,0.0,11932,22313,24486,34095,15678,5
0.0,0.0,0.0,12851,22488,24606,33991,15663,5
0.0,0.0,0.0,13949,22621,24702,33887,15615,5
0.0,0.0,0.0,14370,22621,24727,33783,15584,5
0.0,0.0,0.0,14846,22754,24727,33783,15553,5
0.0,0.0,0.0,15350,22731,24799,33887,15553,5
0.0,0.0,0.0,15773,22754,24799,33817,15553,5
0.0,0.0,0.0,15710,22731,24751,33852,15537,5
0.0,0.0,0.0,15089,22665,24702,33714,15521,5
0.0,0.0,0.0,14547,22621,24702,33714,15521,5
0.0,0.0,0.0,14414,22488,24678,33645,15553,5
0.0,0.0,0.0,14268,22532,24630,33645,15490,5
0.0,0.0,0.0,14224,22510,24606,33645,15490,5
0.0,0.0,0.0,14137,22488,24606,33714,15490,5
0.0,0.0,0.0,14108,22444,24630,33679,15521,5
0.0,0.0,0.0,14021,22444,24582,33645,15553,5
0.0,0.0,0.0,14021,22423,24606,33645,15568,5
0.0,0.0,0.0,13964,22401,24558,33508,15600,5
0.0,0.0,0.0,13964,22401,24582,33645,15631,5
0.0,0.0,0.0,13992,22335,24558,33576,15615,5
0.0,0.0,0.0,13992,22401,24558,33645,15584,5
0.0,0.0,0.0,14050,22357,24510,33576,15631,5
0.0,0.0,0.0,14050,22313,24606,33645,15710,5
0.0,0.0,0.0,14050,22335,24558,33611,15678,5
0.0,0.0,0.0,13992,22357,24630,33611,15710,5
0.0,0.0,0.0,13906,22335,24510,33542,15710,5
0.0,0.0,0.0,13792,22313,24510,33508,15805,5
0.0,0.0,0.0,13764,22357,24534,33508,15837,5
0.0,0.0,0.0,13735,22270,24534,33508,15837,5
0.0,0.0,0.0,13650,22335,24510,33508,15837,5
0.0,0.0,0.0,13622,22313,24534,33508,15868,5
0.0,0.0,0.0,13580,22313,24534,33576,15868,5
0.0,0.0,0.0,13566,22313,24510,33508,15868,5
0.0,0.0,0.0,13566,22270,24486,33508,15868,5
0.0,0.0,0.0,13524,22313,24510,33474,15900,5
0.0,0.0,0.0,13510,22270,24486,33439,15916,5
0.0,0.0,0.0,13468,22270,24486,33474,15916,5
0.0,0.0,0.0,13468,22292,24462,33439,15868,5
0.0,0.0,0.0,13468,22183,24462,33474,15964,5
0.0,0.0,0.0,13343,22313,24486,33439,15980,5
0.0,0.0,0.0,13468,22248,24510,33508,16028,5
0.0,0.0,0.0,13109,22226,24510,33474,16060,5
0.0,0.0,0.0,12372,22248,24462,33474,16060,5
0.0,0.0,0.0,11957,22226,24558,33439,16060,5
0.0,0.0,0.0,11983,22248,24510,33439,16093,5
0.0,0.0,0.0,12346,22270,24462,33439,16125,5
0.0,0.0,0.0,12333,22183,24510,33439,16093,5
0.0,0.0,0.0,11830,22226,24510,33371,16093,5
0.0,0.0,0.0,11280,22205,24462,33371,16173,5
0.0,0.0,0.0,11084,22226,24438,33439,16238,5
0.0,0.0,0.0,10891,22226,24510,33371,16238,5
0.0,0.0,0.0,10915,22226,24462,33303,16254,5
0.0,0.0,0.0,11304,22183,24510,33337,16303,5
0.0,0.0,0.0,11354,22205,24462,33337,16303,5
0.0,0.0,0.0,10688,22183,24534,33269,16287,5
0.0,0.0,0.0,10629,22161,24510,33236,16352,5
0.0,0.0,0.0,10605,22140,24462,33269,16319,5
0.0,0.0,0.0,10724,22183,24486,33236,16319,5
0.0,0.0,0.0,10582,22161,24462,33236,16352,5
0.0,0.0,0.0,10819,22183,24462,33269,16352,5
0.0,0.0,0.0,11133,22096,24462,33269,16303,5
0.0,0.0,0.0,11084,22161,24438,33168,16319,5
0.0,0.0,0.0,10867,22140,24462,33168,16303,5
0.0,0.0,0.0,11109,22096,24462,33168,16352,5
0.0,0.0,0.0,11157,22118,24438,33202,16385,5
0.0,0.0,0.0,10987,22140,24414,33168,16385,5
0.0,0.0,0.0,10499,22118,24390,33168,16385,5
0.0,0.0,0.0,10975,22096,24462,33168,16368,5
0.0,0.0,0.0,10641,22183,24390,33100,16401,5
0.0,0.0,0.0,10605,22205,24342,33100,16401,5
0.0,0.0,0.0,10700,22183,24342,33067,16417,5
0.0,0.0,0.0,10771,22226,24294,33067,16417,5
0.0,0.0,0.0,10939,22183,24342,33100,16417,5
0.0,0.0,0.0,11012,22205,24318,33100,16385,5
0.0,0.0,0.0,10987,22183,24318,33100,16417,5
0.0,0.0,0.0,10975,22183,24342,33100,16417,5
0.0,0.0,0.0,10987,22226,24414,33168,16368,5
0.0,0.0,0.0,11206,22270,24414,33371,16352,5
0.0,0.0,0.0,11478,22313,24486,33337,16352,5
0.0,0.0,0.0,11703,22313,24510,33508,16303,5
0.0,0.0,0.0,12060,22401,24582,33508,16303,5
0.0,0.0,0.0,12189,22488,24654,33921,16287,5
0.0,0.0,0.0,12189,22510,24702,34095,16254,5
0.0,0.0,0.0,12267,22510,24751,34165,16287,5
0.0,0.0,0.0,12086,22488,24727,34060,16287,5
0.0,0.0,0.0,11983,22554,24775,34095,16222,5
0.0,0.0,0.0,12163,22709,24702,34271,16222,5
0.0,0.0,0.0,12477,22709,24751,34412,16222,5
0.0,0.0,0.0,12636,22709,24775,34553,16173,5
0.0,0.0,0.0,12293,22621,24751,34518,16125,5
0.0,0.0,0.0,11932,22599,24775,34376,16093,5
0.0,0.0,0.0,11391,22488,24727,34165,16093,5
0.0,0.0,0.0,10867,22488,24727,34095,16109,5
0.0,0.0,0.0,10795,22444,24702,34060,16157,5
0.0,0.0,0.0,10795,22444,24654,34026,16125,5
0.0,0.0,0.0,10771,22444,24702,33991,16157,5
0.0,0.0,0.0,10724,22444,24654,33991,16173,5
0.0,0.0,0.0,10748,22401,24630,33991,16125,5
0.0,0.0,0.0,10700,22444,24654,33921,16125,5
0.0,0.0,0.0,10748,22423,24606,33921,16157,5
0.0,0.0,0.0,10724,22379,24606,33921,16109,5
0.0,0.0,0.0,10724,22444,24606,33887,16173,5
0.0,0.0,0.0,10700,22401,24654,33852,16125,5
0.0,0.0,0.0,10676,22357,24606,33852,16173,5
0.0,0.0,0.0,10700,22357,24654,33852,16125,5
0.0,0.0,0.0,10748,22401,24558,33991,16157,5
0.0,0.0,0.0,10843,22401,24534,33748,16125,5
0.0,0.0,0.0,11182,22357,24558,33852,16125,5
0.0,0.0,0.0,11133,22401,24606,33887,16157,5
0.0,0.0,0.0,11182,22401,24606,33991,16060,5
0.0,0.0,0.0,11157,22488,24606,35018,15710,5
0.0,0.0,0.0,11121,22599,24799,35565,15584,5
0.0,0.0,0.0,11060,22621,24897,35861,15459,5
0.0,0.0,0.0,11024,22665,24995,36085,15288,5
0.0,0.0,0.0,11109,22665,24995,36386,15227,5
0.0,0.0,0.0,11206,22665,25019,36122,15335,5
0.0,0.0,0.0,11182,22665,24897,35972,15335,5
0.0,0.0,0.0,11465,22665,24848,35749,15381,5
0.0,0.0,0.0,12438,22643,24824,35418,15475,5
0.0,0.0,0.0,13260,22621,24799,35272,15521,5
0.0,0.0,0.0,13081,22510,24799,35199,15475,5
0.0,0.0,0.0,13040,22488,24799,35055,15521,5
0.0,0.0,0.0,12837,22444,24799,34910,15521,5
0.0,0.0,0.0,12690,22401,24799,34982,15506,5
0.0,0.0,0.0,12009,22401,24799,34982,15584,5
0.0,0.0,0.0,11868,22488,24946,35272,15631,5
0.0,0.0,0.0,11868,22665,24970,35602,15568,5
0.0,0.0,0.0,11970,22887,25192,36010,15366,5
0.0,0.0,0.0,12034,23044,25241,36310,15273,5
0.0,0.0,0.0,11957,23157,25316,36424,15273,5
0.0,0.0,0.0,12047,23203,25341,36614,15242,5
0.0,0.0,0.0,11996,23157,25390,36690,15335,5
0.0,0.0,0.0,11932,23112,25316,36538,15335,5
0.0,0.0,0.0,11868,23044,25266,36424,15242,5
0.0,0.0,0.0,11804,23044,25316,36348,15242,5
0.0,0.0,0.0,11804,23067,25291,36235,15273,5
0.0,0.0,0.0,11754,23022,25266,36085,15288,5
0.0,0.0,0.0,11703,23022,25216,36272,15288,5
0.0,0.0,0.0,11716,23022,25291,36197,15335,5
0.0,0.0,0.0,11603,22932,25241,36197,15366,5
0.0,0.0,0.0,11553,22932,25266,36085,15459,5
0.0,0.0,0.0,11465,22865,25291,36085,15459,5
0.0,0.0,0.0,11453,22932,25291,36010,15475,5
0.0,0.0,0.0,11416,23022,25241,36197,15428,5
0.0,0.0,0.0,11403,23044,25341,36160,15459,5
0.0,0.0,0.0,11416,22955,25291,36235,15459,5
0.0,0.0,0.0,11403,23022,25266,36085,15521,5
0.0,0.0,0.0,11440,23022,25241,36160,15553,5
0.0,0.0,0.0,11565,23180,25192,36235,15631,5
0.0,0.0,0.0,11703,23203,25093,36235,15273,5
0.0,0.0,0.0,11881,23203,24995,36310,15089,5
0.0,0.0,0.0,11868,23203,25019,36386,15089,5
0.0,0.0,0.0,11881,23203,24946,36386,15089,5
0.0,0.0,0.0,11906,23248,24897,36499,15211,5
0.0,0.0,0.0,11868,23203,24995,36767,15459,5
0.0,0.0,0.0,11830,23203,24897,36348,15381,5
0.0,0.0,0.0,11830,23157,24897,36499,15366,5
0.0,0.0,0.0,11804,23112,24946,36499,15288,5
0.0,0.0,0.0,11766,23112,24897,36310,15258,5
0.0,0.0,0.0,11703,23112,24921,36386,15288,5
0.0,0.0,0.0,11691,23067,24921,36348,15273,5
0.0,0.0,0.0,11628,23067,24897,36160,15304,5
0.0,0.0,0.0,11615,23044,24873,36197,15273,5
0.0,0.0,0.0,11565,23044,24897,36197,15242,5
0.0,0.0,0.0,11590,23067,24848,36085,15242,5
0.0,0.0,0.0,11528,22999,24897,36160,15242,5
0.0,0.0,0.0,11478,22999,24848,36160,15211,5
0.0,0.0,0.0,11503,22999,24946,36235,15242,5
0.0,0.0,0.0,11478,22999,24824,36160,15211,5
0.0,0.0,0.0,11428,22977,24848,36235,15242,5
0.0,0.0,0.0,11354,22932,24848,36197,15242,5
0.0,0.0,0.0,11280,22932,24873,36197,15288,5
0.0,0.0,0.0,11255,22932,24897,36160,15258,5
0.0,0.0,0.0,11219,22932,24824,36160,15288,5
0.0,0.0,0.0,11206,22887,24897,36197,15304,5
0.0,0.0,0.0,11194,22865,24848,36160,15335,5
0.0,0.0,0.0,11157,22887,24799,36160,15335,5
0.0,0.0,0.0,11133,22865,24873,36160,15350,5
0.0,0.0,0.0,11133,22887,24848,36160,15350,5
0.0,0.0,0.0,11133,22843,24848,36085,15335,5
0.0,0.0,0.0,11133,22820,24848,36160,15350,5
0.0,0.0,0.0,11157,22776,24848,36160,15366,5
0.0,0.0,0.0,11366,22798,24824,36122,15412,5
0.0,0.0,0.0,11060,22754,24897,36085,15459,5
0.0,0.0,0.0,11012,22843,24799,36010,15428,5
0.0,0.0,0.0,10879,22798,24799,36047,15459,5
0.0,0.0,0.0,10915,22798,24824,36047,15428,5
0.0,0.0,0.0,10819,22798,24799,36047,15459,5
0.0,0.0,0.0,10582,22820,24799,36122,15475,5
0.0,0.0,0.0,10464,22843,24824,36047,15428,5
0.0,0.0,0.0,10406,22843,24848,36047,15475,5
0.0,0.0,0.0,10394,22798,24799,36047,15459,5
0.0,0.0,0.0,10394,22798,24799,35935,15521,5
0.0,0.0,0.0,10418,22798,24824,35972,15521,5
0.0,0.0,0.0,10371,22887,24848,35935,15537,5
0.0,0.0,0.0,10371,22865,24799,35935,15584,5
0.0,0.0,0.0,10453,22887,24897,36010,15584,5
0.0,0.0,0.0,10488,22887,24897,36010,15553,5
0.0,0.0,0.0,10441,22887,24873,36010,15584,5
0.0,0.0,0.0,10453,22843,24921,36010,15584,5
0.0,0.0,0.0,10453,22798,24897,35972,15647,5
0.0,0.0,0.0,10499,22776,24848,36010,15584,5
0.0,0.0,0.0,10488,22754,24873,36010,15584,5
0.0,0.0,0.0,10546,22798,24897,36010,15600,5
0.0,0.0,0.0,10676,22754,24897,35972,15584,5
0.0,0.0,0.0,10927,22754,24824,35972,15647,5
0.0,0.0,0.0,11182,22665,24848,35898,15615,5
0.0,0.0,0.0,11255,22709,24799,35861,15647,5
0.0,0.0,0.0,11304,22665,24824,35861,15678,5
0.0,0.0,0.0,11317,22643,24799,35935,15710,5
0.0,0.0,0.0,11317,22665,24824,35787,15663,5
0.0,0.0,0.0,11304,22621,24799,35935,15678,5
0.0,0.0,0.0,11219,22665,24751,35787,15773,5
0.0,0.0,0.0,11219,22576,24824,35861,15726,5
0.0,0.0,0.0,11182,22576,24775,35749,15741,5
0.0,0.0,0.0,11255,22532,24799,35676,15773,5
0.0,0.0,0.0,11255,22621,24751,35639,15741,5
0.0,0.0,0.0,11206,22621,24751,35712,15789,5
0.0,0.0,0.0,11170,22576,24799,35639,15837,5
0.0,0.0,0.0,11182,22532,24751,35676,15789,5
0.0,0.0,0.0,11206,22532,24799,35676,15837,5
0.0,0.0,0.0,11280,22532,24751,35602,15837,5
0.0,0.0,0.0,11379,22532,24799,35639,15821,5
0.0,0.0,0.0,11366,22554,24727,35565,15868,5
0.0,0.0,0.0,11354,22621,24702,35528,15837,5
0.0,0.0,0.0,11403,22488,24702,35565,15805,5
0.0,0.0,0.0,11416,22532,24727,35492,15868,5
0.0,0.0,0.0,11403,22510,24702,35602,15837,5
0.0,0.0,0.0,11465,22554,24727,35565,15868,5
0.0,0.0,0.0,11478,22510,24727,35528,15868,5
0.0,0.0,0.0,11428,22510,24751,35565,15916,5
0.0,0.0,0.0,11416,22576,24702,35492,15964,5
0.0,0.0,0.0,11379,22532,24727,35565,15900,5
0.0,0.0,0.0,11354,22532,24751,35565,15916,5
0.0,0.0,0.0,11354,22532,24702,35565,15916,5
0.0,0.0,0.0,11292,22576,24727,35528,15900,5
0.0,0.0,0.0,11157,22532,24727,35492,15916,5
0.0,0.0,0.0,11060,22576,24751,35565,15948,5
0.0,0.0,0.0,11121,22599,24702,35565,15964,5
0.0,0.0,0.0,11157,22576,24727,35565,15932,5
0.0,0.0,0.0,11157,22532,24727,35565,15964,5
0.0,0.0,0.0,11170,22510,24702,35565,15932,5
0.0,0.0,0.0,11304,22510,24702,35455,15948,5
0.0,0.0,0.0,11403,22621,24702,35492,15900,5
0.0,0.0,0.0,11653,22621,24654,35492,15900,5
0.0,0.0,0.0,11804,22665,24678,35345,15916,5
0.0,0.0,0.0,11804,22665,24630,35382,15900,5
0.0,0.0,0.0,11842,22621,24606,35418,15868,5
0.0,0.0,0.0,11855,22665,24702,35345,15837,5
0.0,0.0,0.0,11855,22621,24606,35345,15837,5
0.0,0.0,0.0,11881,22576,24630,35272,15852,5
0.0,0.0,0.0,12124,22599,24630,35309,15837,5
0.0,0.0,0.0,12346,22576,24630,35345,15837,5
0.0,0.0,0.0,12530,22554,24630,35272,15837,5
0.0,0.0,0.0,12610,22576,24606,35199,15805,5
0.0,0.0,0.0,13040,22532,24654,35272,15837,5
0.0,0.0,0.0,13150,22510,24654,35163,15868,5
0.0,0.0,0.0,13412,22576,24654,35127,15837,5
0.0,0.0,0.0,13454,22510,24606,35127,15837,5
0.0,0.0,0.0,13650,22510,24558,34982,15837,5
0.0,0.0,0.0,13821,22488,24606,35127,15837,5
0.0,0.0,0.0,13482,22488,24606,35127,15837,5
0.0,0.0,0.0,12743,22401,24606,35055,15789,5
0.0,0.0,0.0,12124,22401,24630,35018,15837,5
0.0,0.0,0.0,11716,22357,24630,35091,15805,5
0.0,0.0,0.0,11317,22401,24606,35091,15789,5
0.0,0.0,0.0,11206,22423,24606,35127,15805,5
0.0,0.0,0.0,11182,22423,24606,35199,15789,5
0.0,0.0,0.0,11206,22488,24606,35272,15789,5
0.0,0.0,0.0,11231,22423,24606,35345,15789,5
0.0,0.0,0.0,11219,22444,24630,35272,15789,5
0.0,0.0,0.0,11206,22488,24582,35382,15789,5
0.0,0.0,0.0,11170,22423,24606,35309,15789,5
0.0,0.0,0.0,11206,22510,24606,35309,15773,5
0.0,0.0,0.0,11182,22510,24606,35345,15789,5
0.0,0.0,0.0,11133,22444,24606,35345,15789,5
0.0,0.0,0.0,11194,22488,24534,35382,15741,5
0.0,0.0,0.0,11182,22444,24558,35345,15789,5
0.0,0.0,0.0,11255,22444,24606,35345,15773,5
0.0,0.0,0.0,11304,22423,24558,35418,15805,5
0.0,0.0,0.0,11268,22423,24534,35345,15837,5
0.0,0.0,0.0,11219,22401,24558,35309,15710,5
0.0,0.0,0.0,11206,22401,24606,35345,15773,5
0.0,0.0,0.0,11157,22444,24534,35309,15741,5
0.0,0.0,0.0,11121,22357,24558,35199,15773,5
0.0,0.0,0.0,11109,22488,24510,35236,15789,5
0.0,0.0,0.0,11060,22401,24558,35272,15773,5
0.0,0.0,0.0,11012,22401,24534,35163,15773,5
0.0,0.0,0.0,10963,22401,24486,35163,15773,5
0.0,0.0,0.0,10927,22313,24534,35272,15789,5
0.0,0.0,0.0,10915,22357,24510,35163,15789,5
0.0,0.0,0.0,10915,22335,24510,35272,15773,5
0.0,0.0,0.0,10915,22335,24558,35199,15773,5
0.0,0.0,0.0,10927,22357,24534,35236,15773,5
0.0,0.0,0.0,10951,22357,24510,35163,15773,5
0.0,0.0,0.0,10963,22313,24534,35199,15773,5
0.0,0.0,0.0,11157,22335,24534,35127,15773,5
0.0,0.0,0.0,11317,22335,24510,35127,15773,5
0.0,0.0,0.0,11528,22357,24534,35127,15773,5
0.0,0.0,0.0,11754,22357,24510,35127,15773,5
0.0,0.0,0.0,11881,22357,24510,35163,15789,5
0.0,0.0,0.0,11906,22357,24510,35055,15789,5
0.0,0.0,0.0,12189,22292,24510,35163,15741,5
0.0,0.0,0.0,12112,22313,24510,35236,15741,5
0.0,0.0,0.0,11906,22401,24534,35163,15647,5
0.0,0.0,0.0,11553,22488,24510,35163,15678,5
0.0,0.0,0.0,11012,22510,24510,35127,15647,5
0.0,0.0,0.0,10891,22576,24462,35163,15615,5
0.0,0.0,0.0,10771,22599,24462,35127,15663,5
0.0,0.0,0.0,10748,22599,24510,35055,15615,5
0.0,0.0,0.0,10688,22576,24462,35055,15647,5
0.0,0.0,0.0,10700,22554,24438,35091,15647,5
0.0,0.0,0.0,10771,22532,24462,35091,15678,5
0.0,0.0,0.0,10819,22532,24414,35127,15710,5
0.0,0.0,0.0,11012,22532,24462,35127,15710,5
0.0,0.0,0.0,11182,22444,24438,35127,15678,5
0.0,0.0,0.0,11255,22466,24414,35055,15773,5
0.0,0.0,0.0,11304,22444,24414,35091,15726,5
0.0,0.0,0.0,11304,22401,24414,35055,15741,5
0.0,0.0,0.0,11366,22401,24366,34982,15710,5
0.0,0.0,0.0,11379,22423,24438,34982,15741,5
0.0,0.0,0.0,11354,22401,24414,34982,15757,5
0.0,0.0,0.0,11329,22401,24414,35055,15710,5
0.0,0.0,0.0,11379,22401,24462,35018,15741,5
0.0,0.0,0.0,11403,22335,24414,34982,15726,5
0.0,0.0,0.0,11403,22248,24390,34982,15710,5
0.0,0.0,0.0,11366,22357,24486,34982,15741,5
0.0,0.0,0.0,11354,22335,24414,35055,15726,5
0.0,0.0,0.0,11304,22313,24414,34982,15773,5
0.0,0.0,0.0,11317,22313,24366,34982,15789,5
0.0,0.0,0.0,11304,22335,24414,34910,15773,5
0.0,0.0,0.0,11231,22292,24414,34982,15773,5
0.0,0.0,0.0,11157,22248,24414,34982,15757,5
0.0,0.0,0.0,11024,22270,24390,34982,15741,5
0.0,0.0,0.0,10975,22226,24414,34982,15773,5
0.0,0.0,0.0,11268,22183,24390,34874,15773,5
0.0,0.0,0.0,12267,22292,24414,34910,15710,5
0.0,0.0,0.0,11779,22248,24414,34946,15741,5
0.0,0.0,0.0,11528,22313,24414,34946,15726,5
0.0,0.0,0.0,11379,22313,24414,34982,15726,5
0.0,0.0,0.0,11317,22313,24414,35091,15710,5
0.0,0.0,0.0,11317,22335,24414,35127,15663,5
0.0,0.0,0.0,11354,22401,24414,35199,15726,5
0.0,0.0,0.0,11354,22444,24414,35199,15710,5
0.0,0.0,0.0,11354,22401,24390,35163,15710,5
0.0,0.0,0.0,11304,22466,24462,35272,15773,5
0.0,0.0,0.0,11255,22444,24390,35163,15773,5
0.0,0.0,0.0,11255,22401,24414,35163,15726,5
0.0,0.0,0.0,11292,22444,24342,35163,15741,5
0.0,0.0,0.0,11255,22423,24414,35163,15741,5
0.0,0.0,0.0,11206,22401,24342,35127,15710,5
0.0,0.0,0.0,11170,22401,24366,35127,15741,5
0.0,0.0,0.0,11170,22401,24366,35272,15726,5
0.0,0.0,0.0,11255,22335,24414,35163,15741,5
0.0,0.0,0.0,11403,22401,24414,35055,15741,5
0.0,0.0,0.0,12060,22379,24414,35127,15757,5
0.0,0.0,0.0,12346,22401,24366,35018,15773,5
0.0,0.0,0.0,12530,22379,24390,34982,15726,5
0.0,0.0,0.0,12770,22357,24414,35055,15773,5
0.0,0.0,0.0,12228,22335,24414,35091,15741,5
0.0,0.0,0.0,11553,22313,24318,34946,15773,5
0.0,0.0,0.0,11304,22313,24318,35055,15773,5
0.0,0.0,0.0,11219,22357,24414,34910,15789,5
0.0,0.0,0.0,11170,22313,24366,34982,15789,5
0.0,0.0,0.0,11182,22313,24342,34982,15789,5
0.0,0.0,0.0,11182,22248,24390,34982,15805,5
0.0,0.0,0.0,11133,22248,24342,34839,15789,5
0.0,0.0,0.0,11133,22248,24366,34910,15837,5
0.0,0.0,0.0,11157,22226,24342,34874,15837,5
0.0,0.0,0.0,11109,22226,24318,34839,15805,5
0.0,0.0,0.0,11060,22270,24342,34839,15789,5
0.0,0.0,0.0,11060,22270,24318,34839,15773,5
0.0,0.0,0.0,10987,22270,24318,34874,15741,5
0.0,0.0,0.0,10963,22292,24366,34910,15868,5
0.0,0.0,0.0,10963,22248,24318,35055,15726,5
0.0,0.0,0.0,10963,22335,24271,34839,15773,5
0.0,0.0,0.0,10999,22313,24366,34839,15710,5
0.0,0.0,0.0,11060,22313,24318,34874,15710,5
0.0,0.0,0.0,11072,22270,24342,34767,15710,5
0.0,0.0,0.0,11255,22292,24318,34767,15710,5
0.0,0.0,0.0,11528,22226,24271,34767,15710,5
0.0,0.0,0.0,11465,22226,24342,34731,15678,5
0.0,0.0,0.0,11354,22226,24318,34946,15647,5
0.0,0.0,0.0,11354,22226,24342,34839,15647,5
0.0,0.0,0.0,11379,22226,24318,34946,15521,5
0.0,0.0,0.0,11317,22357,24271,35018,15412,5
0.0,0.0,0.0,11280,22313,24414,35345,15089,5
0.0,0.0,0.0,11206,22313,24318,35345,14907,5
0.0,0.0,0.0,11304,22401,24414,35418,14711,5
0.0,0.0,0.0,11304,22401,24318,35272,14636,5
0.0,0.0,0.0,11304,22357,24271,35199,14636,5
0.0,0.0,0.0,11304,22335,24271,35199,14607,5
0.0,0.0,0.0,11341,22357,24247,35127,14636,5
0.0,0.0,0.0,11366,22313,24271,35018,14696,5
0.0,0.0,0.0,11304,22226,24223,34982,14696,5
0.0,0.0,0.0,11182,22140,24176,34839,14666,5
0.0,0.0,0.0,11206,21839,24223,34553,14607,5
0.0,0.0,0.0,11304,21711,24152,34026,14311,5
0.0,0.0,0.0,11255,21563,24034,33611,14166,5
0.0,0.0,0.0,11268,21542,23987,33303,14036,5
0.0,0.0,0.0,11255,21458,23964,32832,13906,5
0.0,0.0,0.0,11182,21416,23940,32500,13863,5
0.0,0.0,0.0,11157,21375,23940,32467,13735,5
0.0,0.0,0.0,11157,21333,23847,32500,13792,5
0.0,0.0,0.0,11157,21375,23894,32699,13878,5
0.0,0.0,0.0,11157,21375,23894,32765,13964,5
0.0,0.0,0.0,11194,21458,24034,32899,14108,5
0.0,0.0,0.0,11440,21458,23964,32966,14195,5
0.0,0.0,0.0,12009,21563,24081,33168,14370,5
0.0,0.0,0.0,12504,21458,24081,33474,14786,5
0.0,0.0,0.0,12320,21500,24081,33439,15043,5
0.0,0.0,0.0,12112,21437,24058,33576,15553,5
0.0,0.0,0.0,11868,21375,24081,33576,15678,5
0.0,0.0,0.0,11868,21333,24034,33508,15553,5
0.0,0.0,0.0,11817,21416,24058,33576,15459,5
0.0,0.0,0.0,11754,21375,24034,33645,15678,5
0.0,0.0,0.0,11515,21416,24058,33714,18875,5
0.0,0.0,0.0,11440,21354,24034,33645,19999,5
0.0,0.0,0.0,11453,21395,24081,33714,19174,5
0.0,0.0,0.0,11478,21395,24129,33852,17461,5
0.0,0.0,0.0,11528,21395,24129,33783,16516,5
0.0,0.0,0.0,11553,21375,24105,33679,16417,5
0.0,0.0,0.0,11553,21395,24081,33576,16565,5
0.0,0.0,0.0,11553,21375,24034,33508,16831,5
0.0,0.0,0.0,11603,21395,24034,33474,19573,5
0.0,0.0,0.0,11653,21416,23987,33439,20275,5
0.0,0.0,0.0,11881,21416,23987,33405,19612,5
0.0,0.0,0.0,12099,21416,23964,33576,18417,5
0.0,0.0,0.0,12241,21395,24034,33679,17565,5
0.0,0.0,0.0,12267,21542,24058,33921,17084,5
0.0,0.0,0.0,11855,21733,24105,34026,16966,5
0.0,0.0,0.0,11553,21818,24176,34130,16865,5
0.0,0.0,0.0,11478,21860,24199,34200,16815,5
0.0,0.0,0.0,11478,21903,24223,34341,16632,5
0.0,0.0,0.0,11453,21946,24342,34341,16615,5
0.0,0.0,0.0,11453,22010,24081,34447,16615,5
0.0,0.0,0.0,11490,22010,24058,34553,16434,5
0.0,0.0,0.0,11528,22096,24223,34767,16287,5
0.0,0.0,0.0,11553,22096,24152,34660,16287,5
0.0,0.0,0.0,11603,22010,24223,34767,16254,5
0.0,0.0,0.0,11603,22096,24199,34731,16222,5
0.0,0.0,0.0,11665,22096,24247,34910,16271,5
0.0,0.0,0.0,11615,22183,24247,34982,16222,5
0.0,0.0,0.0,11653,22183,24247,35055,16141,5
0.0,0.0,0.0,11578,22226,24271,34982,16125,5
0.0,0.0,0.0,11440,22226,24318,35127,16093,5
0.0,0.0,0.0,11317,22226,24271,35055,16093,5
0.0,0.0,0.0,11072,22205,24247,35055,16076,5
0.0,0.0,0.0,11133,22183,24247,34982,16060,5
0.0,0.0,0.0,11553,22140,24271,34910,16060,5
0.0,0.0,0.0,12034,22096,24247,34982,16028,5
0.0,0.0,0.0,12009,22140,24176,34874,16060,5
0.0,0.0,0.0,12124,22053,24152,34731,16076,5
0.0,0.0,0.0,11754,22010,24105,34624,16093,5
0.0,0.0,0.0,11528,22010,24129,34447,16222,5
0.0,0.0,0.0,11553,22096,24152,34482,16254,5
0.0,0.0,0.0,11528,22053,24129,34447,16157,5
0.0,0.0,0.0,11528,22096,24105,34447,16125,5
0.0,0.0,0.0,11603,22140,24129,34553,16028,5
0.0,0.0,0.0,11603,22140,24081,34553,15932,5
0.0,0.0,0.0,11528,22140,24081,34589,15868,5
0.0,0.0,0.0,11528,22118,24129,34696,15868,5
0.0,0.0,0.0,11503,22140,24176,34731,15852,5
0.0,0.0,0.0,11478,22075,24129,34624,15868,5
0.0,0.0,0.0,11453,22053,24105,34731,15900,5
0.0,0.0,0.0,11403,22075,24176,34518,15868,5
0.0,0.0,0.0,11304,22075,24129,34412,15837,5
0.0,0.0,0.0,11255,22053,24129,34412,15837,5
0.0,0.0,0.0,11133,22096,24129,34341,15900,5
0.0,0.0,0.0,11109,22053,24081,34412,15852,5
0.0,0.0,0.0,11048,22010,24081,34271,15932,5
0.0,0.0,0.0,11060,22010,24129,34341,15996,5
0.0,0.0,0.0,11060,22010,24129,34341,16060,5
0.0,0.0,0.0,11060,22010,24129,34271,16093,5
0.0,0.0,0.0,11084,22010,24081,34200,16125,5
0.0,0.0,0.0,11084,22010,24129,34271,16076,5
0.0,0.0,0.0,11109,22010,24034,34130,16125,5
0.0,0.0,0.0,11109,21967,24342,34130,16157,5
0.0,0.0,0.0,11133,21924,24318,34200,16125,5
0.0,0.0,0.0,11109,21903,24366,34060,16189,5
0.0,0.0,0.0,11133,21924,24366,34130,16222,5
0.0,0.0,0.0,11121,21903,24318,34130,16222,5
0.0,0.0,0.0,11133,21882,24366,34060,16222,5
0.0,0.0,0.0,11109,21924,24318,34130,16238,5
0.0,0.0,0.0,11109,21903,24318,34026,16222,5
0.0,0.0,0.0,11157,21903,24318,34130,16303,5
0.0,0.0,0.0,11133,21924,24342,34130,16254,5
0.0,0.0,0.0,11157,21924,24318,34130,16319,5
0.0,0.0,0.0,11157,21860,24318,34060,16303,5
0.0,0.0,0.0,11157,21882,24366,33991,16303,5
0.0,0.0,0.0,11157,21882,24318,33991,16287,5
0.0,0.0,0.0,11157,21882,24318,33991,16303,5
0.0,0.0,0.0,11157,21882,24342,33991,16319,5
