GyroX,GyroY,GyroZ,Thumb,Index,Middle,Ring,Pinky,Gesture
0.0,0.0,0.0,22010,11292,9599,45382,32533,3
0.0,0.0,0.0,21924,11280,9588,45382,32633,3
0.0,0.0,0.0,22010,11280,9577,45382,32566,3
0.0,0.0,0.0,22010,11304,9599,45281,32599,3
0.0,0.0,0.0,22010,11317,9588,45331,32633,3
0.0,0.0,0.0,21903,11304,9588,45281,32633,3
0.0,0.0,0.0,21882,11255,9599,45584,32599,3
0.0,0.0,0.0,21754,11255,9599,45483,32271,3
0.0,0.0,0.0,21775,11255,9621,45584,32435,3
0.0,0.0,0.0,21711,11255,9599,45787,32765,3
0.0,0.0,0.0,21648,11255,9599,45889,32899,3
0.0,0.0,0.0,21711,11255,9599,46043,33168,3
0.0,0.0,0.0,21669,11255,9588,46043,33236,3
0.0,0.0,0.0,21584,11255,9577,46353,33202,3
0.0,0.0,0.0,21584,11255,9588,46353,32966,3
0.0,0.0,0.0,21584,11255,9599,46043,32832,3
0.0,0.0,0.0,21563,11268,9577,45685,32633,3
0.0,0.0,0.0,21563,11255,9599,45533,32500,3
0.0,0.0,0.0,21563,11255,9599,45281,32500,3
0.0,0.0,0.0,21584,11219,9599,45281,32435,3
0.0,0.0,0.0,21542,11219,9599,45181,32435,3
0.0,0.0,0.0,21648,11219,9588,45131,32369,3
0.0,0.0,0.0,21648,11194,9588,45081,32369,3
0.0,0.0,0.0,21648,11170,9566,44832,32435,3
0.0,0.0,0.0,21627,11206,9588,44733,32369,3
0.0,0.0,0.0,21648,11182,9599,44881,32336,3
0.0,0.0,0.0,21711,11206,9588,44683,32435,3
0.0,0.0,0.0,21669,11255,9599,44782,32303,3
0.0,0.0,0.0,21627,11268,9621,44782,32303,3
0.0,0.0,0.0,21627,11255,9599,44389,32303,3
0.0,0.0,0.0,21584,11268,9588,44683,32238,3
0.0,0.0,0.0,21627,11280,9588,44634,32205,3
0.0,0.0,0.0,21584,11255,9588,44536,32173,3
0.0,0.0,0.0,21584,11219,9610,44536,32108,3
0.0,0.0,0.0,21606,11219,9588,44487,32140,3
0.0,0.0,0.0,21542,11206,9621,44438,32205,3
0.0,0.0,0.0,21563,11182,9610,44585,32108,3
0.0,0.0,0.0,21500,11182,9588,44683,32140,3
0.0,0.0,0.0,21542,11206,9599,44438,32173,3
0.0,0.0,0.0,21542,11206,9588,44634,32140,3
0.0,0.0,0.0,21542,11206,9599,44438,32271,3
0.0,0.0,0.0,21563,11219,9577,44438,32369,3
0.0,0.0,0.0,21542,11206,9599,44585,32566,3
0.0,0.0,0.0,21458,11206,9588,44782,32402,3
0.0,0.0,0.0,21416,11243,9577,44881,32303,3
0.0,0.0,0.0,21333,11206,9599,44782,32173,3
0.0,0.0,0.0,21333,11206,9599,44733,32173,3
0.0,0.0,0.0,21375,11219,9577,44536,32173,3
0.0,0.0,0.0,21375,11231,9588,44487,32140,3
0.0,0.0,0.0,21395,11219,9577,44389,32173,3
0.0,0.0,0.0,21375,11219,9588,44291,32108,3
0.0,0.0,0.0,21395,11231,9577,44438,32010,3
0.0,0.0,0.0,21395,11231,9577,44389,32043,3
0.0,0.0,0.0,21395,11219,9588,44389,32108,3
0.0,0.0,0.0,21375,11231,9599,44242,31978,3
0.0,0.0,0.0,21395,11206,9588,44291,31978,3
0.0,0.0,0.0,21458,11231,9599,44193,32108,3
0.0,0.0,0.0,21416,11231,9599,44389,32140,3
0.0,0.0,0.0,21416,11231,9599,44389,31978,3
0.0,0.0,0.0,21416,11268,9588,44291,32043,3
0.0,0.0,0.0,21437,11255,9599,44389,31978,3
0.0,0.0,0.0,21395,11255,9577,44389,32043,3
0.0,0.0,0.0,21375,11255,9599,44389,32075,3
0.0,0.0,0.0,21416,11255,9588,44389,31978,3
0.0,0.0,0.0,21333,11280,9577,44291,31978,3
0.0,0.0,0.0,21375,11280,9599,44389,31978,3
0.0,0.0,0.0,21333,11268,9610,44193,31978,3
0.0,0.0,0.0,21250,11354,9588,44389,32108,3
0.0,0.0,0.0,21250,11354,9599,44291,31946,3
0.0,0.0,0.0,21208,11354,9599,44389,31849,3
0.0,0.0,0.0,21208,11379,9577,44193,31978,3
0.0,0.0,0.0,21291,11379,9599,44389,32173,3
0.0,0.0,0.0,21333,11379,9621,44291,32238,3
0.0,0.0,0.0,21354,11366,9588,44438,32799,3
0.0,0.0,0.0,21458,11391,9599,44683,33033,3
0.0,0.0,0.0,21375,11354,9599,45031,33202,3
0.0,0.0,0.0,21333,11366,9588,45281,32966,3
0.0,0.0,0.0,21250,11379,9599,45281,32732,3
0.0,0.0,0.0,21312,11366,9588,45382,33100,3
0.0,0.0,0.0,21333,11354,9588,45889,33852,3
0.0,0.0,0.0,21375,11379,9599,46095,34306,3
0.0,0.0,0.0,21312,11354,9555,47513,35272,3
0.0,0.0,0.0,21208,11354,9599,47945,35676,3
0.0,0.0,0.0,21146,11391,9599,47891,35492,3
0.0,0.0,0.0,21125,11403,9621,47513,35236,3
0.0,0.0,0.0,21043,11403,9621,47621,35345,3
0.0,0.0,0.0,20961,11453,9599,47460,34982,3
0.0,0.0,0.0,20961,11453,9610,47513,34910,3
0.0,0.0,0.0,20859,11453,9610,47513,34696,3
0.0,0.0,0.0,20879,11453,9599,47246,34696,3
0.0,0.0,0.0,20838,11465,9599,47246,34874,3
0.0,0.0,0.0,20757,11453,9588,47353,35127,3
0.0,0.0,0.0,20716,11478,9621,47299,35127,3
0.0,0.0,0.0,20737,11453,9621,47513,34982,3
0.0,0.0,0.0,20716,11453,9599,47460,34910,3
0.0,0.0,0.0,20696,11453,9621,47513,34982,3
0.0,0.0,0.0,20676,11416,9610,47406,34982,3
0.0,0.0,0.0,20676,11453,9599,47406,35127,3
0.0,0.0,0.0,20676,11453,9621,47406,35018,3
0.0,0.0,0.0,20676,11453,9621,47353,35199,3
0.0,0.0,0.0,20676,11453,9599,47246,35018,3
0.0,0.0,0.0,20656,11453,9621,47246,35091,3
0.0,0.0,0.0,20696,11453,9621,47299,34660,3
0.0,0.0,0.0,20696,11428,9621,47193,34589,3
0.0,0.0,0.0,20615,11453,9621,47034,34482,3
0.0,0.0,0.0,20636,11453,9599,46928,34518,3
0.0,0.0,0.0,20636,11465,9621,46718,34624,3
0.0,0.0,0.0,20636,11453,9621,46770,34624,3
0.0,0.0,0.0,20595,11478,9621,46876,34696,3
0.0,0.0,0.0,20636,11465,9621,46823,34518,3
0.0,0.0,0.0,20595,11478,9621,46823,34553,3
0.0,0.0,0.0,20636,11453,9621,47034,34341,3
0.0,0.0,0.0,20676,11478,9621,46770,34341,3
0.0,0.0,0.0,20676,11503,9621,46718,34412,3
0.0,0.0,0.0,20636,11503,9610,46666,34341,3
0.0,0.0,0.0,20716,11478,9621,46770,34412,3
0.0,0.0,0.0,20737,11490,9621,46613,34341,3
0.0,0.0,0.0,20818,11478,9610,46405,34447,3
0.0,0.0,0.0,20961,11478,9610,46249,34341,3
0.0,0.0,0.0,21002,11453,9621,45992,34341,3
0.0,0.0,0.0,21084,11428,9577,45787,34165,3
0.0,0.0,0.0,21084,11428,9610,45635,34165,3
0.0,0.0,0.0,21105,11416,9599,45533,34235,3
0.0,0.0,0.0,21084,11379,9588,45432,34130,3
0.0,0.0,0.0,21043,11354,9599,45281,34165,3
0.0,0.0,0.0,21043,11329,9599,45081,34060,3
0.0,0.0,0.0,20961,11280,9666,44881,33783,3
0.0,0.0,0.0,20961,11317,9721,44683,33679,3
0.0,0.0,0.0,20981,11354,9811,44389,33439,3
0.0,0.0,0.0,20981,11317,9777,44389,33303,3
0.0,0.0,0.0,21002,11304,9755,44096,33168,3
0.0,0.0,0.0,21022,11268,9688,43951,32966,3
0.0,0.0,0.0,20981,11280,9721,43903,32699,3
0.0,0.0,0.0,20961,11304,9710,43855,32799,3
0.0,0.0,0.0,20981,11280,9666,43855,32666,3
0.0,0.0,0.0,20920,11268,9666,43759,32633,3
0.0,0.0,0.0,20961,11280,9643,43807,32633,3
0.0,0.0,0.0,20920,11268,9643,43711,32633,3
0.0,0.0,0.0,20879,11255,9621,43903,32566,3
0.0,0.0,0.0,20879,11255,9621,43855,32599,3
0.0,0.0,0.0,20899,11280,9599,43711,32533,3
0.0,0.0,0.0,20879,11255,9599,43951,32500,3
0.0,0.0,0.0,20879,11255,9599,43807,32533,3
0.0,0.0,0.0,20879,11280,9621,43711,32566,3
0.0,0.0,0.0,20838,11304,9621,43711,32566,3
0.0,0.0,0.0,20879,11292,9621,43663,32533,3
0.0,0.0,0.0,20899,11280,9710,43711,32402,3
0.0,0.0,0.0,20899,11280,9599,43711,32533,3
0.0,0.0,0.0,20838,11280,9621,43615,32500,3
0.0,0.0,0.0,20879,11304,9621,43615,32435,3
0.0,0.0,0.0,20879,11329,9621,43519,32369,3
0.0,0.0,0.0,20838,11379,9666,43424,32369,3
0.0,0.0,0.0,20838,11565,9688,43377,32435,3
0.0,0.0,0.0,20838,11703,9721,43235,32303,3
0.0,0.0,0.0,20798,11957,9688,43282,32271,3
0.0,0.0,0.0,20818,12610,9699,43855,32173,3
0.0,0.0,0.0,20859,12743,9755,43615,32173,3
0.0,0.0,0.0,20818,12610,9710,43615,32108,3
0.0,0.0,0.0,20859,12649,9721,43424,32043,3
0.0,0.0,0.0,20818,12543,9710,43472,31978,3
0.0,0.0,0.0,20899,12424,9710,43519,32043,3
0.0,0.0,0.0,20859,12267,9677,43424,31978,3
0.0,0.0,0.0,20879,12215,9643,43235,32173,3
0.0,0.0,0.0,20899,12163,9677,43093,32010,3
0.0,0.0,0.0,20879,12112,9666,43188,32108,3
0.0,0.0,0.0,20838,12009,9643,43046,32173,3
0.0,0.0,0.0,20920,11703,9643,43140,32108,3
0.0,0.0,0.0,20981,11578,9621,42859,32010,3
0.0,0.0,0.0,20981,11453,9643,42719,32043,3
0.0,0.0,0.0,20981,11416,9654,42719,31913,3
0.0,0.0,0.0,20920,11453,9800,42580,31913,3
0.0,0.0,0.0,20899,11403,9980,42626,31849,3
0.0,0.0,0.0,20838,11428,9958,42304,31497,3
0.0,0.0,0.0,20879,11403,9867,42212,31465,3
0.0,0.0,0.0,20818,11403,9845,42120,31465,3
0.0,0.0,0.0,20879,11379,9800,42120,31402,3
0.0,0.0,0.0,20879,11354,9755,42029,31339,3
0.0,0.0,0.0,20838,11403,9721,41984,31276,3
0.0,0.0,0.0,20879,11391,9688,41938,31307,3
0.0,0.0,0.0,20798,11391,9666,41938,31339,3
0.0,0.0,0.0,20879,11403,9677,42029,31370,3
0.0,0.0,0.0,20798,11403,9666,41938,31339,3
0.0,0.0,0.0,20838,11403,9666,41938,31339,3
0.0,0.0,0.0,20838,11403,9666,42029,31402,3
0.0,0.0,0.0,20879,11416,9666,42029,31402,3
0.0,0.0,0.0,20838,11428,9621,41984,31276,3
0.0,0.0,0.0,20818,11453,9599,41893,31370,3
0.0,0.0,0.0,20879,11416,9599,42029,31339,3
0.0,0.0,0.0,20859,11453,9621,41803,31465,3
0.0,0.0,0.0,20879,11453,9621,42029,31339,3
0.0,0.0,0.0,20879,11453,9621,41938,31339,3
0.0,0.0,0.0,20879,11453,9599,41893,31434,3
0.0,0.0,0.0,20879,11465,9599,41757,31434,3
0.0,0.0,0.0,20879,11465,9599,41938,31339,3
0.0,0.0,0.0,20818,11465,9599,41893,31465,3
0.0,0.0,0.0,20859,11453,9599,41757,31434,3
0.0,0.0,0.0,20899,11478,9621,41938,31402,3
0.0,0.0,0.0,20879,11465,9599,41938,31402,3
0.0,0.0,0.0,20879,11453,9599,41757,31465,3
0.0,0.0,0.0,20879,11453,9599,41893,31307,3
0.0,0.0,0.0,20838,11416,9588,41757,31339,3
0.0,0.0,0.0,20838,11403,9599,41938,31276,3
0.0,0.0,0.0,20859,11391,9599,41848,31339,3
0.0,0.0,0.0,20798,11403,9621,41712,31213,3
0.0,0.0,0.0,20798,11403,9599,41757,31244,3
0.0,0.0,0.0,20777,11391,9621,41757,31244,3
0.0,0.0,0.0,20757,11403,9588,41803,31150,3
0.0,0.0,0.0,20798,11416,9599,41712,31150,3
0.0,0.0,0.0,20737,11428,9599,41667,31150,3
0.0,0.0,0.0,20777,11440,9621,41577,31150,3
0.0,0.0,0.0,20737,11403,9599,41667,31087,3
0.0,0.0,0.0,20798,11403,9610,41667,31087,3
0.0,0.0,0.0,20737,11416,9599,41622,31025,3
0.0,0.0,0.0,20757,11416,9599,41622,31150,3
0.0,0.0,0.0,20737,11453,9599,41622,31181,3
0.0,0.0,0.0,20757,11403,9599,41622,31087,3
0.0,0.0,0.0,20737,11403,9621,41667,31087,3
0.0,0.0,0.0,20798,11428,9599,41577,31056,3
0.0,0.0,0.0,20737,11403,9610,41488,31150,3
0.0,0.0,0.0,20716,11416,9610,41577,31025,3
0.0,0.0,0.0,20777,11428,9599,41577,31087,3
0.0,0.0,0.0,20777,11428,9599,41622,31087,3
0.0,0.0,0.0,20798,11416,9599,41488,31150,3
0.0,0.0,0.0,20676,11453,9588,41577,31087,3
0.0,0.0,0.0,20757,11453,9599,41622,31056,3
0.0,0.0,0.0,20737,11440,9599,41488,31025,3
0.0,0.0,0.0,20798,11453,9610,41533,31087,3
0.0,0.0,0.0,20798,11478,9599,41488,31056,3
0.0,0.0,0.0,21043,11453,9588,41803,31150,3
0.0,0.0,0.0,21084,11503,9577,42212,31561,3
0.0,0.0,0.0,20899,11515,9599,42488,31752,3
0.0,0.0,0.0,20818,11528,9599,42166,31913,3
0.0,0.0,0.0,20798,11553,9588,41984,31785,3
0.0,0.0,0.0,20879,11515,9577,41938,31978,3
0.0,0.0,0.0,21084,11503,9588,41399,31978,3
0.0,0.0,0.0,20961,11528,9599,41221,32010,3
0.0,0.0,0.0,20879,11528,9599,41265,32043,3
0.0,0.0,0.0,20798,11553,9599,41265,32043,3
0.0,0.0,0.0,20676,11553,9588,41132,31978,3
0.0,0.0,0.0,20636,11615,9599,41044,31849,3
0.0,0.0,0.0,20535,11703,9599,41044,31785,3
0.0,0.0,0.0,20495,11754,9621,41044,31785,3
0.0,0.0,0.0,20475,11754,9599,41044,31720,3
0.0,0.0,0.0,20475,11779,9621,40955,31720,3
0.0,0.0,0.0,20395,11754,9599,41000,31720,3
0.0,0.0,0.0,20395,11754,9621,40912,31720,3
0.0,0.0,0.0,20415,11754,9621,40955,31752,3
0.0,0.0,0.0,20515,11754,9599,40736,31720,3
0.0,0.0,0.0,20818,11754,9599,40868,31785,3
0.0,0.0,0.0,20716,11754,9621,40780,31849,3
0.0,0.0,0.0,20415,11728,9588,40780,31593,3
0.0,0.0,0.0,20455,11716,9621,40605,31593,3
0.0,0.0,0.0,21002,11779,9588,41044,32369,3
0.0,0.0,0.0,21167,11855,9621,42120,33991,3
0.0,0.0,0.0,20961,11855,9621,42766,34624,3
0.0,0.0,0.0,20879,11855,9643,43140,35163,3
0.0,0.0,0.0,20798,11830,9777,43329,35861,3
0.0,0.0,0.0,20716,11766,9958,43711,36160,3
0.0,0.0,0.0,20676,11628,10060,43711,36272,3
0.0,0.0,0.0,20676,11578,10003,43472,35935,3
0.0,0.0,0.0,20636,11553,10003,43140,35639,3
0.0,0.0,0.0,20676,11503,10163,42906,35345,3
0.0,0.0,0.0,20636,11428,10003,42580,35272,3
0.0,0.0,0.0,20555,11453,10003,42626,35055,3
0.0,0.0,0.0,20495,11503,10003,42580,35127,3
0.0,0.0,0.0,20575,11478,10163,42488,34910,3
0.0,0.0,0.0,20575,11465,9845,42442,34982,3
0.0,0.0,0.0,20475,11553,9867,42304,34839,3
0.0,0.0,0.0,20515,11528,9666,42580,34624,3
0.0,0.0,0.0,20475,11603,9643,42442,34412,3
0.0,0.0,0.0,20495,11528,9599,42212,34200,3
0.0,0.0,0.0,20495,11553,9599,42075,34095,3
0.0,0.0,0.0,20555,11553,9588,41893,33748,3
0.0,0.0,0.0,20595,11553,9599,41757,33474,3
0.0,0.0,0.0,20636,11578,9588,41488,33269,3
0.0,0.0,0.0,20676,11515,9577,41309,33168,3
0.0,0.0,0.0,20575,11453,9588,41221,33202,3
0.0,0.0,0.0,20475,11428,9588,41176,33303,3
0.0,0.0,0.0,20435,11428,9588,41044,33202,3
0.0,0.0,0.0,20515,11403,9599,40868,33033,3
0.0,0.0,0.0,20595,11379,9599,40519,32633,3
0.0,0.0,0.0,20575,11354,9621,40389,32402,3
0.0,0.0,0.0,20555,11354,9599,40002,32303,3
0.0,0.0,0.0,20395,11341,9577,39705,32599,3
0.0,0.0,0.0,20335,11341,9599,39663,32533,3
0.0,0.0,0.0,20335,11329,9588,39578,32402,3
0.0,0.0,0.0,20315,11354,9577,39663,32566,3
0.0,0.0,0.0,20335,11354,9599,39411,32435,3
0.0,0.0,0.0,20355,11379,9599,39411,32303,3
0.0,0.0,0.0,20355,11403,9588,39452,32303,3
0.0,0.0,0.0,20395,11403,9599,39494,32303,3
0.0,0.0,0.0,20395,11403,9588,39494,32140,3
0.0,0.0,0.0,20435,11403,9599,39578,32075,3
0.0,0.0,0.0,20475,11403,9610,39536,31978,3
0.0,0.0,0.0,20455,11403,9588,39578,31881,3
0.0,0.0,0.0,20475,11416,9599,39452,32043,3
0.0,0.0,0.0,20395,11428,9599,39917,32369,3
0.0,0.0,0.0,20335,11453,9632,40216,32500,3
0.0,0.0,0.0,20275,11416,9621,40346,32566,3
0.0,0.0,0.0,20256,11416,9588,40259,32369,3
0.0,0.0,0.0,20315,11453,9710,40088,32238,3
0.0,0.0,0.0,20275,11453,9577,40131,32271,3
0.0,0.0,0.0,20295,11453,9588,40002,32205,3
0.0,0.0,0.0,20295,11453,9588,40002,32108,3
0.0,0.0,0.0,20295,11528,9588,40088,32173,3
0.0,0.0,0.0,20315,11503,9533,40131,32369,3
0.0,0.0,0.0,20275,11503,9588,40346,32467,3
0.0,0.0,0.0,20256,11503,9599,40216,32402,3
0.0,0.0,0.0,20256,11503,9577,40216,32369,3
0.0,0.0,0.0,20236,11453,9599,40173,32369,3
0.0,0.0,0.0,20275,11478,9599,40259,32271,3
0.0,0.0,0.0,20256,11478,9588,40173,32140,3
0.0,0.0,0.0,20236,11490,9588,40259,32043,3
0.0,0.0,0.0,20236,11503,9599,40173,32108,3
0.0,0.0,0.0,20256,11478,9599,40216,32010,3
0.0,0.0,0.0,20216,11503,9588,40259,32173,3
0.0,0.0,0.0,20275,11453,9588,40259,32173,3
0.0,0.0,0.0,20236,11453,9599,40216,32173,3
0.0,0.0,0.0,20295,11453,9599,40302,32173,3
0.0,0.0,0.0,20216,11453,9588,40173,32075,3
0.0,0.0,0.0,20236,11503,9599,40346,32075,3
0.0,0.0,0.0,20196,11503,9588,40259,32043,3
0.0,0.0,0.0,20236,11453,9588,40259,32043,3
0.0,0.0,0.0,20236,11503,9599,40216,32043,3
0.0,0.0,0.0,20256,11465,9599,40216,31913,3
0.0,0.0,0.0,20236,11453,9599,40173,31978,3
0.0,0.0,0.0,20256,11465,9599,40088,32043,3
0.0,0.0,0.0,20236,11478,9599,40216,31978,3
0.0,0.0,0.0,20216,11503,9599,40088,32010,3
0.0,0.0,0.0,20216,11465,9610,40173,31913,3
0.0,0.0,0.0,20295,11603,9710,40131,31978,3
0.0,0.0,0.0,20256,11590,9643,40216,31913,3
0.0,0.0,0.0,20295,11665,9677,40173,31881,3
0.0,0.0,0.0,20256,11703,9688,40173,31978,3
0.0,0.0,0.0,20236,11728,9777,40131,31849,3
0.0,0.0,0.0,20256,11779,9721,40173,31752,3
0.0,0.0,0.0,20236,12021,9666,40173,31849,3
0.0,0.0,0.0,20216,12477,9666,40389,31881,3
0.0,0.0,0.0,20236,12385,9666,40346,31881,3
0.0,0.0,0.0,20196,12451,9666,40605,31849,3
0.0,0.0,0.0,20157,12797,9710,40693,31881,3
0.0,0.0,0.0,20176,12824,9811,40780,31849,3
0.0,0.0,0.0,20176,13246,9980,41088,31881,3
0.0,0.0,0.0,20157,13260,10348,41309,31817,3
0.0,0.0,0.0,20157,13163,10453,41354,31593,3
0.0,0.0,0.0,20196,13122,10441,41221,31624,3
0.0,0.0,0.0,20176,12959,10325,40955,31688,3
0.0,0.0,0.0,20117,12878,10325,41088,31624,3
0.0,0.0,0.0,20098,12878,10301,41000,31688,3
0.0,0.0,0.0,20117,12851,10255,40955,31529,3
0.0,0.0,0.0,20078,12824,10221,40912,31529,3
0.0,0.0,0.0,20098,12851,10163,40780,31529,3
0.0,0.0,0.0,20117,12797,10163,40868,31561,3
0.0,0.0,0.0,20039,12770,10163,40736,31593,3
0.0,0.0,0.0,20078,12797,10163,40824,31561,3
0.0,0.0,0.0,20098,12770,10163,40780,31465,3
0.0,0.0,0.0,20039,12770,10163,40693,31529,3
0.0,0.0,0.0,20078,12756,10163,40693,31497,3
0.0,0.0,0.0,20078,12743,10163,40693,31593,3
0.0,0.0,0.0,20078,12730,10163,40649,31624,3
0.0,0.0,0.0,20078,12703,10140,40736,31497,3
0.0,0.0,0.0,20117,12716,10163,40649,31497,3
0.0,0.0,0.0,20137,12703,10140,40605,31561,3
0.0,0.0,0.0,20078,12690,10140,40649,31529,3
0.0,0.0,0.0,20117,12716,10152,40519,31497,3
0.0,0.0,0.0,20078,12663,10163,40519,31529,3
0.0,0.0,0.0,20098,12649,10140,40432,31529,3
0.0,0.0,0.0,20137,12663,10140,40432,31529,3
0.0,0.0,0.0,20078,12623,10140,40346,31465,3
0.0,0.0,0.0,20137,12690,10313,40605,31434,3
0.0,0.0,0.0,20078,12837,10488,40912,31370,3
0.0,0.0,0.0,20078,13482,11255,41221,31497,3
0.0,0.0,0.0,20196,14562,12215,41221,31497,3
0.0,0.0,0.0,20157,14370,12034,40955,31402,3
0.0,0.0,0.0,20157,14151,11855,40955,31402,3
0.0,0.0,0.0,20137,13992,11792,40868,31339,3
0.0,0.0,0.0,20157,13906,11754,40912,31402,3
0.0,0.0,0.0,20117,13906,11766,40912,31339,3
0.0,0.0,0.0,20117,13906,11728,40780,31402,3
0.0,0.0,0.0,20078,13921,11716,40780,31339,3
0.0,0.0,0.0,20098,13849,11703,40824,31339,3
0.0,0.0,0.0,20157,13906,11678,40824,31276,3
0.0,0.0,0.0,20098,13821,11653,40824,31402,3
0.0,0.0,0.0,20157,13792,11603,40693,31434,3
0.0,0.0,0.0,20137,13622,11528,40693,31434,3
0.0,0.0,0.0,20157,13426,11379,40562,31276,3
0.0,0.0,0.0,20176,13013,10915,40432,31370,3
0.0,0.0,0.0,20117,12783,10676,40173,31307,3
0.0,0.0,0.0,20117,12490,10488,40088,31181,3
0.0,0.0,0.0,20098,12372,10394,40045,31213,3
0.0,0.0,0.0,20137,12346,10348,39874,31213,3
0.0,0.0,0.0,20078,12346,10348,39917,31150,3
0.0,0.0,0.0,20078,12346,10371,39917,31150,3
0.0,0.0,0.0,20117,12372,10348,39874,31150,3
0.0,0.0,0.0,20157,12346,10371,39917,31213,3
0.0,0.0,0.0,20117,12372,10348,39790,31150,3
0.0,0.0,0.0,20098,12346,10336,39747,31150,3
0.0,0.0,0.0,20078,12490,10348,39832,31087,3
0.0,0.0,0.0,20098,12530,10348,39747,31213,3
0.0,0.0,0.0,20117,12530,10336,39832,31087,3
0.0,0.0,0.0,20078,12424,10348,39663,30962,3
0.0,0.0,0.0,20157,12490,10348,39832,30962,3
0.0,0.0,0.0,20078,12517,10371,39747,31087,3
0.0,0.0,0.0,20117,12477,10348,39832,30994,3
0.0,0.0,0.0,20078,12504,10359,39874,30962,3
0.0,0.0,0.0,20039,12490,10348,39917,30962,3
0.0,0.0,0.0,20039,12504,10371,39874,30962,3
0.0,0.0,0.0,20117,12583,10511,40088,30931,3
0.0,0.0,0.0,20039,12556,10582,40173,30838,3
0.0,0.0,0.0,20039,12530,10582,40002,30807,3
0.0,0.0,0.0,19999,12530,10582,40088,30776,3
0.0,0.0,0.0,20039,12530,10582,40173,30745,3
0.0,0.0,0.0,20039,12530,10582,40002,30807,3
0.0,0.0,0.0,20039,12530,10582,40045,30807,3
0.0,0.0,0.0,20058,12864,10653,40173,30776,3
0.0,0.0,0.0,20039,12959,10688,40173,30776,3
0.0,0.0,0.0,20078,12770,10664,39960,30838,3
0.0,0.0,0.0,20058,12797,10629,39917,30869,3
0.0,0.0,0.0,20019,12851,10653,40045,30745,3
0.0,0.0,0.0,20039,12851,10676,40002,30869,3
0.0,0.0,0.0,20078,12851,10676,40002,30776,3
0.0,0.0,0.0,20058,12851,10653,39917,30745,3
0.0,0.0,0.0,20039,12797,10641,40002,30869,3
0.0,0.0,0.0,20078,12851,10653,40045,30838,3
0.0,0.0,0.0,20078,12797,10676,40002,30869,3
0.0,0.0,0.0,20019,12783,10653,40088,30900,3
0.0,0.0,0.0,20019,12756,10676,40002,30838,3
0.0,0.0,0.0,20039,12770,10641,40045,30745,3
0.0,0.0,0.0,20078,12716,10629,39917,30807,3
0.0,0.0,0.0,20098,12743,10641,39832,30869,3
0.0,0.0,0.0,20078,12743,10653,40002,30838,3
0.0,0.0,0.0,20019,12743,10653,39917,30869,3
0.0,0.0,0.0,19999,12743,10641,39874,30838,3
0.0,0.0,0.0,19999,12743,10653,40002,30900,3
0.0,0.0,0.0,20058,12730,10629,39917,30838,3
0.0,0.0,0.0,20019,12743,10629,39917,30869,3
0.0,0.0,0.0,20019,12730,10641,39874,30838,3
0.0,0.0,0.0,20058,12743,10629,39917,30838,3
0.0,0.0,0.0,19999,12730,10653,40002,30900,3
0.0,0.0,0.0,20078,12743,10629,39917,30900,3
0.0,0.0,0.0,19999,12810,10653,40002,30838,3
0.0,0.0,0.0,20019,12797,10629,39832,30838,3
0.0,0.0,0.0,20078,12756,10629,39832,30869,3
0.0,0.0,0.0,20039,12743,10629,39832,30994,3
0.0,0.0,0.0,20157,12756,10594,40088,31307,3
0.0,0.0,0.0,20157,12743,10605,40131,31529,3
0.0,0.0,0.0,20196,12743,10605,40259,31785,3
0.0,0.0,0.0,20236,12716,10558,40259,31978,3
0.0,0.0,0.0,20236,12716,10582,40346,32043,3
0.0,0.0,0.0,20315,12649,10546,40389,32303,3
0.0,0.0,0.0,20335,12649,10546,40346,32173,3
0.0,0.0,0.0,20395,12690,10535,40346,32303,3
0.0,0.0,0.0,20395,12649,10511,40432,32303,3
0.0,0.0,0.0,20395,12649,10488,40259,32435,3
0.0,0.0,0.0,20395,12636,10488,40389,32699,3
0.0,0.0,0.0,20435,12636,10476,40432,32633,3
0.0,0.0,0.0,20415,12596,10453,40432,32500,3
0.0,0.0,0.0,20395,12610,10453,40519,32500,3
0.0,0.0,0.0,20415,12610,10453,40519,32402,3
0.0,0.0,0.0,20395,12610,10418,40389,32336,3
0.0,0.0,0.0,20395,12583,10441,40475,32402,3
0.0,0.0,0.0,20395,12556,10394,40346,32238,3
0.0,0.0,0.0,20335,12543,10394,40173,32238,3
0.0,0.0,0.0,20395,12543,10418,40259,32238,3
0.0,0.0,0.0,20335,12570,10394,40173,32238,3
0.0,0.0,0.0,20375,12583,10394,40088,32173,3
0.0,0.0,0.0,20335,12530,10371,40173,32075,3
0.0,0.0,0.0,20275,12530,10348,40173,32108,3
0.0,0.0,0.0,20275,12530,10348,40002,32108,3
0.0,0.0,0.0,20315,12530,10371,40002,32010,3
0.0,0.0,0.0,20315,12530,10348,40002,31978,3
0.0,0.0,0.0,20256,12530,10359,39874,32108,3
0.0,0.0,0.0,20275,12530,10348,39960,31978,3
0.0,0.0,0.0,20275,12530,10371,40045,31913,3
0.0,0.0,0.0,20236,12543,10371,39874,32043,3
0.0,0.0,0.0,20256,12583,10371,39832,31946,3
0.0,0.0,0.0,20275,12543,10359,39917,31978,3
0.0,0.0,0.0,20256,12556,10371,39874,31978,3
0.0,0.0,0.0,20236,12583,10371,39874,31978,3
0.0,0.0,0.0,20196,12556,10371,39917,31946,3
0.0,0.0,0.0,20256,12583,10359,39874,31913,3
0.0,0.0,0.0,20236,12556,10348,39960,31849,3
0.0,0.0,0.0,20236,12543,10394,40002,31849,3
0.0,0.0,0.0,20176,12543,10371,39917,31913,3
0.0,0.0,0.0,20157,12543,10371,39960,31913,3
0.0,0.0,0.0,20196,12556,10348,39960,31849,3
0.0,0.0,0.0,20196,12583,10348,39960,31881,3
0.0,0.0,0.0,20176,12556,10359,40002,31946,3
0.0,0.0,0.0,20137,12583,10371,39917,31881,3
0.0,0.0,0.0,20196,12570,10394,40002,31849,3
0.0,0.0,0.0,20176,12596,10371,40045,31946,3
0.0,0.0,0.0,20176,12623,10371,40088,31849,3
0.0,0.0,0.0,20176,12610,10348,40131,31785,3
0.0,0.0,0.0,20137,12583,10359,40088,31849,3
0.0,0.0,0.0,20098,12610,10371,40173,31817,3
0.0,0.0,0.0,20157,12623,10371,40088,31881,3
0.0,0.0,0.0,20117,12623,10348,40045,31881,3
0.0,0.0,0.0,20137,12596,10359,40088,31849,3
0.0,0.0,0.0,20137,12610,10371,40173,31849,3
0.0,0.0,0.0,20157,12556,10348,40045,31752,3
0.0,0.0,0.0,20157,12583,10371,40002,31913,3
0.0,0.0,0.0,20157,12583,10359,40002,31849,3
0.0,0.0,0.0,20157,12623,10371,40002,31881,3
0.0,0.0,0.0,20236,12743,10441,40045,31785,3
0.0,0.0,0.0,20157,12797,10453,40045,31849,3
0.0,0.0,0.0,20176,12690,10418,40045,31720,3
0.0,0.0,0.0,20117,12743,10418,40002,31849,3
0.0,0.0,0.0,20117,12690,10418,39917,31785,3
0.0,0.0,0.0,20098,12703,10418,40045,31849,3
0.0,0.0,0.0,20098,12743,10418,40002,31656,3
0.0,0.0,0.0,20137,12743,10418,40002,31720,3
0.0,0.0,0.0,20157,12770,10429,40002,31752,3
0.0,0.0,0.0,20157,13136,10499,40475,31720,3
0.0,0.0,0.0,20098,13122,10511,40519,31593,3
0.0,0.0,0.0,20078,13122,10535,40475,31593,3
0.0,0.0,0.0,20078,13136,10570,40605,31529,3
0.0,0.0,0.0,20078,13122,10605,40519,31593,3
0.0,0.0,0.0,20058,13136,10783,40736,31465,3
0.0,0.0,0.0,20078,13068,10783,40693,31465,3
0.0,0.0,0.0,20039,13040,10748,40605,31465,3
0.0,0.0,0.0,19960,12999,10748,40562,31339,3
0.0,0.0,0.0,19941,13013,10748,40562,31339,3
0.0,0.0,0.0,19921,13013,10771,40693,31276,3
0.0,0.0,0.0,19960,13027,10771,40693,31276,3
0.0,0.0,0.0,19960,13122,10867,40693,31213,3
0.0,0.0,0.0,19941,13315,11255,40868,31087,3
0.0,0.0,0.0,19921,13301,11255,40605,31150,3
0.0,0.0,0.0,19941,13205,11182,40605,31087,3
0.0,0.0,0.0,19882,13177,11133,40519,31087,3
0.0,0.0,0.0,19941,13109,11096,40432,31119,3
0.0,0.0,0.0,19921,13081,11084,40562,31025,3
0.0,0.0,0.0,19921,13081,11060,40519,31119,3
0.0,0.0,0.0,19921,13054,11036,40605,31025,3
0.0,0.0,0.0,19863,13027,11012,40432,31025,3
0.0,0.0,0.0,19863,13040,10999,40475,30994,3
0.0,0.0,0.0,19863,13040,10999,40389,31056,3
0.0,0.0,0.0,19921,13027,10975,40389,30962,3
0.0,0.0,0.0,19882,13013,10975,40475,30962,3
0.0,0.0,0.0,19863,13027,10975,40346,31056,3
0.0,0.0,0.0,19902,13013,10963,40302,31025,3
0.0,0.0,0.0,19863,13040,10939,40346,31087,3
0.0,0.0,0.0,19941,13013,10927,40432,31025,3
0.0,0.0,0.0,19863,13013,10927,40259,31150,3
0.0,0.0,0.0,19921,13013,10915,40259,31087,3
0.0,0.0,0.0,19863,12986,10915,40173,31056,3
0.0,0.0,0.0,19863,12972,10927,40173,31025,3
0.0,0.0,0.0,19882,12959,10915,40173,31025,3
0.0,0.0,0.0,19843,12986,10915,40173,31025,3
0.0,0.0,0.0,19824,12986,10915,40173,30962,3
0.0,0.0,0.0,19843,12959,10915,40216,30962,3
0.0,0.0,0.0,19863,12986,10915,40173,31087,3
0.0,0.0,0.0,19843,12986,10915,40216,31087,3
0.0,0.0,0.0,19863,12959,10915,40088,31056,3
0.0,0.0,0.0,19882,12959,10915,40216,31087,3
0.0,0.0,0.0,19863,12972,10903,40173,31056,3
0.0,0.0,0.0,19882,12959,10915,40173,31025,3
0.0,0.0,0.0,19882,12986,10915,40173,31119,3
0.0,0.0,0.0,19805,12999,10903,40173,31025,3
0.0,0.0,0.0,19863,12972,10915,40173,31056,3
0.0,0.0,0.0,19863,12959,10903,40173,30994,3
0.0,0.0,0.0,19902,12959,10915,40259,31087,3
0.0,0.0,0.0,19805,12999,10915,40088,31150,3
0.0,0.0,0.0,19863,12999,10891,40173,31025,3
0.0,0.0,0.0,19843,12972,10891,40088,31087,3
0.0,0.0,0.0,19882,13013,10891,40131,31150,3
0.0,0.0,0.0,19843,12959,10915,40131,31087,3
0.0,0.0,0.0,19805,12959,10903,40173,31119,3
0.0,0.0,0.0,19863,12959,10915,40173,31119,3
0.0,0.0,0.0,19843,12986,10915,40173,31119,3
0.0,0.0,0.0,19843,12959,10915,40346,30994,3
0.0,0.0,0.0,19843,12959,10915,40216,31025,3
0.0,0.0,0.0,19863,12959,10891,40131,31087,3
0.0,0.0,0.0,19843,12972,10915,40088,30994,3
0.0,0.0,0.0,19843,12999,10891,40088,31025,3
0.0,0.0,0.0,19882,12959,10915,40173,31025,3
0.0,0.0,0.0,19843,12959,10879,40173,31025,3
0.0,0.0,0.0,19863,12959,10891,40173,31025,3
0.0,0.0,0.0,19843,12959,10891,40216,31056,3
0.0,0.0,0.0,19824,12959,10891,40088,31087,3
0.0,0.0,0.0,19843,12959,10891,40131,31025,3
0.0,0.0,0.0,19863,12905,10867,40088,31025,3
0.0,0.0,0.0,19863,12770,10795,40088,31056,3
0.0,0.0,0.0,19882,12716,10748,40045,31056,3
0.0,0.0,0.0,19843,12636,10700,40088,31119,3
0.0,0.0,0.0,19863,12649,10676,40088,31119,3
0.0,0.0,0.0,19843,12636,10676,40045,31119,3
0.0,0.0,0.0,19863,12610,10653,40088,31025,3
0.0,0.0,0.0,19824,12490,10582,40002,31025,3
0.0,0.0,0.0,19843,12424,10523,39874,30962,3
0.0,0.0,0.0,19843,12372,10488,39917,30994,3
0.0,0.0,0.0,19863,12346,10476,39874,30962,3
0.0,0.0,0.0,19843,12254,10441,39917,30994,3
0.0,0.0,0.0,19843,12176,10418,39832,30962,3
0.0,0.0,0.0,19843,12073,10394,39790,31025,3
0.0,0.0,0.0,19824,11919,10325,39747,30994,3
0.0,0.0,0.0,19843,11804,10301,39663,31025,3
0.0,0.0,0.0,19843,11703,10278,39705,31025,3
0.0,0.0,0.0,19843,11703,10244,39536,30931,3
0.0,0.0,0.0,19843,11703,10232,39494,31087,3
0.0,0.0,0.0,19805,11716,10174,39327,30962,3
0.0,0.0,0.0,19805,11728,10163,39244,30962,3
0.0,0.0,0.0,19805,11728,10140,39369,30838,3
0.0,0.0,0.0,19805,11665,10094,39327,30838,3
0.0,0.0,0.0,19766,11665,10083,39285,30838,3
0.0,0.0,0.0,19766,11678,10037,39244,30900,3
0.0,0.0,0.0,19824,11703,10003,39285,30807,3
0.0,0.0,0.0,19766,11653,9992,39327,30745,3
0.0,0.0,0.0,19689,11665,9935,39244,30653,3
0.0,0.0,0.0,19708,11653,9935,39244,30715,3
0.0,0.0,0.0,19708,11653,9935,39160,30715,3
0.0,0.0,0.0,19689,11653,9890,39327,30715,3
0.0,0.0,0.0,19689,11628,9901,39327,30715,3
0.0,0.0,0.0,19689,11653,9912,39327,30745,3
0.0,0.0,0.0,19689,11653,9890,39411,30838,3
0.0,0.0,0.0,19689,11678,9845,39411,30838,3
0.0,0.0,0.0,19650,11703,9845,39494,30776,3
0.0,0.0,0.0,19612,11678,9833,39578,30715,3
0.0,0.0,0.0,19631,11703,9845,39536,30776,3
0.0,0.0,0.0,19631,11665,9822,39578,30715,3
0.0,0.0,0.0,19631,11691,9845,39494,30807,3
0.0,0.0,0.0,19631,11728,9845,39327,30838,3
0.0,0.0,0.0,19650,11716,9845,39327,30715,3
0.0,0.0,0.0,19650,11703,9845,39244,30715,3
0.0,0.0,0.0,19669,11716,9800,39327,30715,3
0.0,0.0,0.0,19612,11754,9800,39327,30745,3
0.0,0.0,0.0,19689,11754,9811,39327,30715,3
0.0,0.0,0.0,19650,11766,9800,39327,30715,3
0.0,0.0,0.0,19650,11766,9800,39327,30469,3
0.0,0.0,0.0,19612,11728,9811,39369,30715,3
0.0,0.0,0.0,19612,11792,9800,39327,30653,3
0.0,0.0,0.0,19650,11804,9800,39327,30715,3
0.0,0.0,0.0,19612,11804,9800,39327,30715,3
0.0,0.0,0.0,19592,11804,9800,39327,30745,3
0.0,0.0,0.0,19650,11804,9755,39411,30653,3
0.0,0.0,0.0,19612,11830,9755,39452,30653,3
0.0,0.0,0.0,19573,11804,9744,39411,30622,3
0.0,0.0,0.0,19612,11817,9755,39327,30653,3
0.0,0.0,0.0,19612,11830,9755,39327,30684,3
0.0,0.0,0.0,19612,11804,9755,39327,30622,3
0.0,0.0,0.0,19612,11830,9800,39327,30715,3
0.0,0.0,0.0,19689,11804,9935,39327,30684,3
0.0,0.0,0.0,19689,11830,10003,39244,30715,3
0.0,0.0,0.0,19612,11804,9969,39244,30684,3
0.0,0.0,0.0,19689,11804,9980,39327,30715,3
0.0,0.0,0.0,19669,11804,9969,39285,30561,3
0.0,0.0,0.0,19669,11779,9946,39244,30591,3
0.0,0.0,0.0,19631,11804,9958,39244,30684,3
0.0,0.0,0.0,19612,11804,9958,39160,30684,3
0.0,0.0,0.0,19612,11804,9958,39077,30622,3
0.0,0.0,0.0,19650,11766,9935,39244,30653,3
0.0,0.0,0.0,19650,11804,9946,39160,30622,3
0.0,0.0,0.0,19631,11779,9935,39202,30591,3
0.0,0.0,0.0,19631,11754,9935,39244,30591,3
0.0,0.0,0.0,19631,11792,9946,39244,30715,3
0.0,0.0,0.0,19612,11766,9935,39244,30684,3
0.0,0.0,0.0,19612,11779,9958,39160,30715,3
0.0,0.0,0.0,19612,11766,9935,39244,30561,3
0.0,0.0,0.0,19631,11804,9935,39160,30591,3
0.0,0.0,0.0,19592,11779,9958,39244,30591,3
0.0,0.0,0.0,19631,11792,9946,39244,30653,3
0.0,0.0,0.0,19631,11754,9958,39244,30653,3
0.0,0.0,0.0,19631,11804,9946,39077,30622,3
0.0,0.0,0.0,19612,11779,9958,39119,30591,3
0.0,0.0,0.0,19631,11754,9946,38995,30653,3
0.0,0.0,0.0,19631,11766,9935,39119,30591,3
0.0,0.0,0.0,19650,11779,9935,39119,30530,3
0.0,0.0,0.0,19650,11804,9935,39077,30591,3
0.0,0.0,0.0,19612,11766,9935,39160,30530,3
0.0,0.0,0.0,19631,11779,9912,39077,30591,3
0.0,0.0,0.0,19592,11779,9935,39160,30499,3
0.0,0.0,0.0,19612,11779,9901,39077,30622,3
0.0,0.0,0.0,19689,11754,9935,39160,30561,3
0.0,0.0,0.0,19631,11754,9935,39077,30530,3
0.0,0.0,0.0,19631,11792,9901,39077,30591,3
0.0,0.0,0.0,19650,11804,9935,39119,30591,3
0.0,0.0,0.0,19612,11804,9912,39119,30591,3
0.0,0.0,0.0,19612,11779,9935,39119,30591,3
0.0,0.0,0.0,19612,11804,9901,39077,30622,3
0.0,0.0,0.0,19631,11779,9935,39160,30561,3
0.0,0.0,0.0,19612,11779,9912,39077,30591,3
0.0,0.0,0.0,19631,11779,9901,39036,30591,3
0.0,0.0,0.0,19592,11779,9901,39077,30591,3
0.0,0.0,0.0,19612,11754,9901,39036,30591,3
0.0,0.0,0.0,19612,11804,9890,39160,30622,3
0.0,0.0,0.0,19612,11804,9901,39160,30622,3
0.0,0.0,0.0,19573,11804,9935,39077,30591,3
0.0,0.0,0.0,19631,11804,9890,39119,30653,3
0.0,0.0,0.0,19689,11804,9901,39202,30745,3
0.0,0.0,0.0,19708,11855,9890,39202,30869,3
0.0,0.0,0.0,19708,11855,9867,39160,30776,3
0.0,0.0,0.0,19746,11855,9890,39160,30838,3
0.0,0.0,0.0,19708,11842,9901,39119,30745,3
0.0,0.0,0.0,19708,11855,9890,39077,30715,3
0.0,0.0,0.0,19689,11855,9890,38995,30715,3
0.0,0.0,0.0,19727,11868,9890,39077,30838,3
0.0,0.0,0.0,19727,11868,9890,38995,30776,3
0.0,0.0,0.0,19766,11906,9890,39077,30715,3
0.0,0.0,0.0,19766,11906,9901,39077,30776,3
0.0,0.0,0.0,19766,11868,9890,39036,30715,3
0.0,0.0,0.0,19766,11906,9890,39036,30715,3
0.0,0.0,0.0,19727,11906,9890,38995,30776,3
0.0,0.0,0.0,19766,11881,9867,39160,30715,3
0.0,0.0,0.0,19708,11906,9856,39077,30684,3
0.0,0.0,0.0,19708,11881,9856,39077,30653,3
0.0,0.0,0.0,19708,11906,9856,39036,30715,3
0.0,0.0,0.0,19708,11906,9856,39077,30653,3
0.0,0.0,0.0,19708,11906,9845,39036,30684,3
0.0,0.0,0.0,19746,11881,9856,39036,30715,3
0.0,0.0,0.0,19746,11893,9845,39119,30715,3
0.0,0.0,0.0,19766,11868,9856,39119,30745,3
0.0,0.0,0.0,19689,11881,9845,39160,30776,3
0.0,0.0,0.0,19708,11906,9845,39077,30900,3
0.0,0.0,0.0,19708,11868,9856,39244,30962,3
0.0,0.0,0.0,19785,11906,9845,39244,31025,3
0.0,0.0,0.0,19805,11868,9845,39244,30994,3
0.0,0.0,0.0,19805,11906,9845,39202,30994,3
0.0,0.0,0.0,19863,11868,9833,39244,30807,3
0.0,0.0,0.0,19843,11855,9822,39160,30745,3
0.0,0.0,0.0,19843,11868,9845,39160,30715,3
0.0,0.0,0.0,19824,11906,9788,39160,30838,3
0.0,0.0,0.0,19843,11881,9755,39036,30776,3
0.0,0.0,0.0,19805,11881,9788,39119,30807,3
0.0,0.0,0.0,19863,11881,9766,38995,30838,3
0.0,0.0,0.0,19824,11868,9766,38995,30776,3
0.0,0.0,0.0,19843,11906,9766,38995,30776,3
0.0,0.0,0.0,19805,11868,9766,39036,30776,3
0.0,0.0,0.0,19824,11855,9777,39036,30715,3
0.0,0.0,0.0,19785,11881,9777,39036,30715,3
0.0,0.0,0.0,19785,11830,9755,39036,30684,3
0.0,0.0,0.0,19746,11855,9755,38995,30715,3
0.0,0.0,0.0,19766,11868,9766,38995,30715,3
0.0,0.0,0.0,19746,11868,9755,39036,30622,3
0.0,0.0,0.0,19708,11855,9755,38995,30653,3
0.0,0.0,0.0,19727,11855,9755,38912,30684,3
0.0,0.0,0.0,19689,11855,9766,39036,30653,3
0.0,0.0,0.0,19689,11868,9766,38912,30653,3
0.0,0.0,0.0,19727,11868,9766,39036,30622,3
0.0,0.0,0.0,19727,11842,9766,38995,30591,3
0.0,0.0,0.0,19708,11906,9777,38953,30653,3
0.0,0.0,0.0,19689,11932,9901,39119,30622,3
0.0,0.0,0.0,19708,12060,9958,39077,30622,3
0.0,0.0,0.0,19708,12009,10003,39160,30591,3
0.0,0.0,0.0,19766,12267,10026,39369,30499,3
0.0,0.0,0.0,19785,12346,10071,39411,30469,3
0.0,0.0,0.0,19708,12438,10071,39411,30469,3
0.0,0.0,0.0,19708,12504,10117,39494,30408,3
0.0,0.0,0.0,19766,12530,10163,39578,30347,3
0.0,0.0,0.0,19727,12743,10325,39874,30286,3
0.0,0.0,0.0,19708,12824,10394,39874,30347,3
0.0,0.0,0.0,19708,12878,10453,40088,30347,3
0.0,0.0,0.0,19689,12905,10441,40045,30286,3
0.0,0.0,0.0,19650,12959,10453,39917,30286,3
0.0,0.0,0.0,19689,12918,10441,39917,30408,3
0.0,0.0,0.0,19689,12878,10441,39832,30561,3
0.0,0.0,0.0,19708,12905,10406,39832,30715,3
0.0,0.0,0.0,19689,12797,10394,40173,31276,3
0.0,0.0,0.0,19669,12716,10371,40693,31656,3
0.0,0.0,0.0,19573,12636,10325,40824,31881,3
0.0,0.0,0.0,19535,12636,10325,41132,31817,3
0.0,0.0,0.0,19554,12636,10325,40693,31497,3
0.0,0.0,0.0,19477,12636,10325,40519,31402,3
0.0,0.0,0.0,19497,12610,10301,40693,31276,3
0.0,0.0,0.0,19458,12610,10301,40605,31339,3
0.0,0.0,0.0,19497,12596,10290,40475,31276,3
0.0,0.0,0.0,19497,12596,10301,40519,31087,3
0.0,0.0,0.0,19497,12583,10301,40389,31150,3
0.0,0.0,0.0,19458,12583,10301,40432,31119,3
0.0,0.0,0.0,19477,12610,10278,40346,31025,3
0.0,0.0,0.0,19458,12583,10301,40389,31087,3
0.0,0.0,0.0,19535,12570,10301,40346,31025,3
0.0,0.0,0.0,19477,12583,10290,40389,30994,3
0.0,0.0,0.0,19477,12583,10301,40346,31025,3
0.0,0.0,0.0,19477,12583,10301,40346,31025,3
0.0,0.0,0.0,19458,12583,10290,40389,30962,3
0.0,0.0,0.0,19458,12583,10301,40389,30994,3
0.0,0.0,0.0,19458,12583,10301,40346,30994,3
0.0,0.0,0.0,19458,12570,10301,40216,30962,3
0.0,0.0,0.0,19458,12583,10278,40346,30962,3
0.0,0.0,0.0,19458,12583,10278,40173,30994,3
0.0,0.0,0.0,19458,12583,10267,40173,30962,3
0.0,0.0,0.0,19458,12583,10267,40302,30869,3
0.0,0.0,0.0,19458,12556,10267,40259,30931,3
0.0,0.0,0.0,19458,12583,10278,40088,30869,3
0.0,0.0,0.0,19497,12583,10267,40173,30900,3
0.0,0.0,0.0,19458,12543,10255,40216,30838,3
0.0,0.0,0.0,19458,12543,10255,40173,30869,3
0.0,0.0,0.0,19458,12570,10278,40173,30931,3
0.0,0.0,0.0,19458,12556,10267,40173,30838,3
0.0,0.0,0.0,19458,12570,10267,40173,30869,3
0.0,0.0,0.0,19458,12556,10267,40173,30838,3
0.0,0.0,0.0,19439,12583,10278,40173,30869,3
0.0,0.0,0.0,19477,12530,10278,40131,30838,3
0.0,0.0,0.0,19477,12556,10278,40173,30900,3
0.0,0.0,0.0,19458,12530,10267,40173,30900,3
0.0,0.0,0.0,19458,12543,10278,40173,30838,3
0.0,0.0,0.0,19458,12543,10267,40002,30931,3
0.0,0.0,0.0,19458,12583,10290,40173,30900,3
0.0,0.0,0.0,19420,12556,10255,40131,30900,3
0.0,0.0,0.0,19439,12530,10267,40088,30931,3
0.0,0.0,0.0,19420,12556,10278,40131,30931,3
0.0,0.0,0.0,19439,12543,10278,40088,30900,3
0.0,0.0,0.0,19439,12543,10278,40045,30900,3
0.0,0.0,0.0,19458,12556,10278,40045,30869,3
0.0,0.0,0.0,19458,12543,10267,39960,30869,3
0.0,0.0,0.0,19420,12530,10301,40002,30838,3
0.0,0.0,0.0,19420,12556,10290,40045,30838,3
0.0,0.0,0.0,19439,12556,10278,39917,30962,3
0.0,0.0,0.0,19439,12530,10278,40088,30900,3
0.0,0.0,0.0,19439,12477,10301,40088,30838,3
0.0,0.0,0.0,19516,12477,10267,40002,30869,3
0.0,0.0,0.0,19497,12464,10267,40002,30838,3
0.0,0.0,0.0,19535,12477,10267,40002,30900,3
0.0,0.0,0.0,19497,12451,10255,40045,30931,3
0.0,0.0,0.0,19573,12438,10301,40002,30900,3
0.0,0.0,0.0,19612,12451,10255,40088,30962,3
0.0,0.0,0.0,19573,12451,10278,40002,30869,3
0.0,0.0,0.0,19554,12464,10267,40045,30900,3
0.0,0.0,0.0,19612,12424,10255,40002,30869,3
0.0,0.0,0.0,19592,12372,10278,40002,30869,3
0.0,0.0,0.0,19573,12320,10255,39917,30807,3
0.0,0.0,0.0,19573,12320,10255,40002,30838,3
0.0,0.0,0.0,19535,12320,10255,40002,30900,3
0.0,0.0,0.0,19573,12306,10232,39832,30900,3
0.0,0.0,0.0,19573,12306,10255,39917,30807,3
0.0,0.0,0.0,19554,12320,10255,39960,30776,3
0.0,0.0,0.0,19535,12320,10232,39832,30776,3
0.0,0.0,0.0,19554,12320,10255,39874,30715,3
0.0,0.0,0.0,19535,12346,10232,39874,30776,3
0.0,0.0,0.0,19554,12320,10209,39747,30838,3
0.0,0.0,0.0,19535,12320,10140,39832,30807,3
0.0,0.0,0.0,19554,12254,10083,39705,30653,3
0.0,0.0,0.0,19535,12293,10071,39621,30715,3
0.0,0.0,0.0,19535,12241,10071,39663,30591,3
0.0,0.0,0.0,19477,12241,10037,39578,30591,3
0.0,0.0,0.0,19516,12346,10026,39663,30530,3
0.0,0.0,0.0,19573,12610,10026,39747,30653,3
0.0,0.0,0.0,19612,12918,10232,40173,30561,3
0.0,0.0,0.0,19573,13013,10278,40173,30561,3
0.0,0.0,0.0,19766,13246,10441,40432,30591,3
0.0,0.0,0.0,19708,13232,10441,40389,30591,3
0.0,0.0,0.0,19766,13398,10535,40519,30591,3
0.0,0.0,0.0,19805,13510,10748,40736,30653,3
0.0,0.0,0.0,19843,13524,10771,40780,30653,3
0.0,0.0,0.0,19921,13538,10783,40868,30591,3
0.0,0.0,0.0,19921,13538,10783,40780,30653,3
0.0,0.0,0.0,19941,13524,10795,40605,30622,3
0.0,0.0,0.0,19921,13510,10783,40605,30653,3
0.0,0.0,0.0,19921,13524,10783,40693,30591,3
0.0,0.0,0.0,19921,13622,10843,40605,30715,3
0.0,0.0,0.0,19999,13992,10987,40519,30653,3
0.0,0.0,0.0,20137,14021,10963,40519,30962,3
0.0,0.0,0.0,20435,13935,10927,40868,31656,3
0.0,0.0,0.0,20475,13735,10795,40912,31978,3
0.0,0.0,0.0,20515,13707,10771,41088,32369,3
0.0,0.0,0.0,20495,14079,10795,41132,32238,3
0.0,0.0,0.0,20495,14282,10819,40868,32108,3
0.0,0.0,0.0,20475,14195,10867,40868,31881,3
0.0,0.0,0.0,20435,14079,10963,40912,31752,3
0.0,0.0,0.0,20395,14108,11109,40780,31849,3
0.0,0.0,0.0,20415,14151,11255,40868,31752,3
0.0,0.0,0.0,20395,14311,11515,40912,31720,3
0.0,0.0,0.0,20395,14385,11578,41044,31720,3
0.0,0.0,0.0,20335,14414,11628,40868,31752,3
0.0,0.0,0.0,20375,14326,11603,40955,31688,3
0.0,0.0,0.0,20335,14282,11590,40912,31593,3
0.0,0.0,0.0,20335,14253,11565,40912,31624,3
0.0,0.0,0.0,20315,14253,11553,40780,31624,3
0.0,0.0,0.0,20315,14253,11553,40868,31656,3
0.0,0.0,0.0,20315,14238,11578,40868,31624,3
0.0,0.0,0.0,20315,14253,11553,40868,31688,3
0.0,0.0,0.0,20355,14253,11540,40868,31656,3
0.0,0.0,0.0,20315,14253,11553,40824,31593,3
0.0,0.0,0.0,20335,14195,11528,40868,31624,3
0.0,0.0,0.0,20335,14195,11515,40868,31593,3
0.0,0.0,0.0,20315,14195,11528,40868,31593,3
0.0,0.0,0.0,20335,14195,11515,40824,31529,3
0.0,0.0,0.0,20315,14195,11503,40824,31593,3
0.0,0.0,0.0,20295,14166,11528,40868,31465,3
0.0,0.0,0.0,20315,14137,11515,40780,31465,3
0.0,0.0,0.0,20256,14137,11503,40736,31561,3
0.0,0.0,0.0,20275,14108,11503,40736,31561,3
0.0,0.0,0.0,20295,14137,11478,40693,31529,3
0.0,0.0,0.0,20295,14108,11478,40868,31593,3
0.0,0.0,0.0,20315,14079,11503,40868,31529,3
0.0,0.0,0.0,20256,14079,11503,40693,31656,3
0.0,0.0,0.0,20275,14036,11478,40780,31593,3
0.0,0.0,0.0,20275,14108,11478,40693,31656,3
0.0,0.0,0.0,20256,14050,11503,40780,31402,3
0.0,0.0,0.0,20236,14050,11478,40605,31593,3
0.0,0.0,0.0,20275,14050,11478,40693,31465,3
0.0,0.0,0.0,20315,14050,11528,40693,31593,3
0.0,0.0,0.0,20275,14021,11478,40605,31593,3
0.0,0.0,0.0,20315,14021,11503,40693,31624,3
0.0,0.0,0.0,20315,14021,11478,40693,31593,3
0.0,0.0,0.0,20275,14021,11453,40605,31465,3
0.0,0.0,0.0,20275,14079,11503,40519,31561,3
0.0,0.0,0.0,20236,14050,11478,40562,31529,3
0.0,0.0,0.0,20275,14050,11478,40562,31465,3
0.0,0.0,0.0,20256,14079,11478,40519,31465,3
0.0,0.0,0.0,20256,14050,11478,40519,31465,3
0.0,0.0,0.0,20275,14021,11478,40562,31465,3
0.0,0.0,0.0,20256,14050,11478,40432,31465,3
0.0,0.0,0.0,20256,14036,11453,40475,31529,3
0.0,0.0,0.0,20256,14050,11478,40605,31465,3
0.0,0.0,0.0,20315,14036,11465,40519,31529,3
0.0,0.0,0.0,20275,14050,11453,40605,31593,3
0.0,0.0,0.0,20275,14007,11465,40868,31752,3
0.0,0.0,0.0,20275,14021,11453,40693,31656,3
0.0,0.0,0.0,20256,13992,11453,40693,31720,3
0.0,0.0,0.0,20315,13992,11465,40780,31656,3
0.0,0.0,0.0,20236,14021,11478,40693,31624,3
0.0,0.0,0.0,20236,14050,11503,40649,31593,3
0.0,0.0,0.0,20275,14122,11578,40693,31593,3
0.0,0.0,0.0,20275,14209,11653,40649,31593,3
0.0,0.0,0.0,20275,14282,11754,40693,31593,3
0.0,0.0,0.0,20236,14282,11754,40605,31402,3
0.0,0.0,0.0,20196,14444,11855,40605,31497,3
0.0,0.0,0.0,20216,14429,11881,40736,31402,3
0.0,0.0,0.0,20236,14414,11855,40605,31497,3
0.0,0.0,0.0,20256,14399,11868,40605,31529,3
0.0,0.0,0.0,20256,14518,12086,40605,31529,3
0.0,0.0,0.0,20236,14503,12086,40562,31465,3
0.0,0.0,0.0,20236,14488,12060,40562,31402,3
0.0,0.0,0.0,20216,14444,12021,40605,31402,3
0.0,0.0,0.0,20236,14666,12112,40605,31497,3
0.0,0.0,0.0,20236,14876,12280,40605,31465,3
0.0,0.0,0.0,20256,14907,12504,40605,31402,3
0.0,0.0,0.0,20196,14846,12451,40693,31370,3
0.0,0.0,0.0,20236,14831,12477,40649,31339,3
0.0,0.0,0.0,20236,14816,12438,40562,31370,3
0.0,0.0,0.0,20196,14756,12438,40605,31339,3
0.0,0.0,0.0,20216,14741,12385,40519,31402,3
0.0,0.0,0.0,20236,14726,12372,40605,31402,3
0.0,0.0,0.0,20256,14681,12346,40519,31402,3
0.0,0.0,0.0,20275,14636,12280,40605,31593,3
0.0,0.0,0.0,20315,14607,12228,40649,31752,3
0.0,0.0,0.0,20475,14547,12176,41000,32173,3
0.0,0.0,0.0,20555,14488,12176,41399,32799,3
0.0,0.0,0.0,20435,14429,12124,41577,32699,3
0.0,0.0,0.0,20435,14429,12112,41577,32699,3
0.0,0.0,0.0,20375,14414,12086,41577,32832,3
0.0,0.0,0.0,20315,14399,12060,41938,32966,3
0.0,0.0,0.0,20315,14311,12009,42212,33168,3
0.0,0.0,0.0,20315,14137,11868,42212,33067,3
0.0,0.0,0.0,20236,13849,11628,41984,32699,3
0.0,0.0,0.0,20315,13749,11578,41577,32533,3
0.0,0.0,0.0,20315,13707,11578,41488,32500,3
0.0,0.0,0.0,20395,13693,11578,41399,32533,3
0.0,0.0,0.0,20415,13594,11528,41399,32566,3
0.0,0.0,0.0,20475,13205,10987,41221,32369,3
0.0,0.0,0.0,20415,12756,10688,40912,32173,3
0.0,0.0,0.0,20395,12583,10582,40868,32010,3
0.0,0.0,0.0,20375,12424,10511,40693,31978,3
0.0,0.0,0.0,20335,12320,10441,40519,31817,3
0.0,0.0,0.0,20315,12228,10371,40475,31849,3
0.0,0.0,0.0,20315,12215,10348,40216,31752,3
0.0,0.0,0.0,20275,12189,10336,40216,31624,3
0.0,0.0,0.0,20236,12189,10325,40173,31624,3
0.0,0.0,0.0,20176,12228,10325,40173,31656,3
0.0,0.0,0.0,20236,12215,10336,40173,31561,3
0.0,0.0,0.0,20196,12254,10325,40088,31465,3
0.0,0.0,0.0,20196,12280,10348,40173,31465,3
0.0,0.0,0.0,20157,12293,10371,40045,31529,3
0.0,0.0,0.0,20157,12320,10371,40131,31465,3
0.0,0.0,0.0,20157,12346,10371,40045,31529,3
0.0,0.0,0.0,20117,12346,10394,40045,31434,3
0.0,0.0,0.0,20157,12346,10394,40045,31465,3
0.0,0.0,0.0,20157,12372,10394,39960,31434,3
0.0,0.0,0.0,20117,12372,10394,40045,31465,3
0.0,0.0,0.0,20137,12346,10394,40088,31465,3
0.0,0.0,0.0,20078,12385,10394,40045,31370,3
0.0,0.0,0.0,20078,12372,10394,40045,31370,3
0.0,0.0,0.0,20176,12385,10406,40045,31402,3
0.0,0.0,0.0,20157,12438,10464,40088,31434,3
0.0,0.0,0.0,20117,12398,10488,40002,31339,3
0.0,0.0,0.0,20117,12424,10464,39960,31370,3
0.0,0.0,0.0,20157,12424,10488,40088,31402,3
0.0,0.0,0.0,20117,12438,10488,40002,31370,3
0.0,0.0,0.0,20098,12438,10464,40002,31339,3
0.0,0.0,0.0,20117,12438,10476,40045,31339,3
0.0,0.0,0.0,20117,12464,10488,40002,31370,3
0.0,0.0,0.0,20098,12477,10488,39960,31276,3
0.0,0.0,0.0,20078,12464,10488,39917,31370,3
0.0,0.0,0.0,20098,12477,10488,40002,31276,3
0.0,0.0,0.0,20078,12438,10488,40002,31307,3
0.0,0.0,0.0,20058,12451,10488,40045,31276,3
0.0,0.0,0.0,20078,12477,10488,40002,31370,3
0.0,0.0,0.0,20078,12477,10464,39917,31339,3
0.0,0.0,0.0,20078,12451,10488,39874,31402,3
0.0,0.0,0.0,20078,12411,10488,39917,31402,3
0.0,0.0,0.0,20098,12398,10488,39832,31339,3
0.0,0.0,0.0,20078,12398,10476,39832,31339,3
0.0,0.0,0.0,20098,12424,10464,39874,31307,3
0.0,0.0,0.0,20058,12398,10453,39917,31339,3
0.0,0.0,0.0,20078,12451,10464,39832,31402,3
0.0,0.0,0.0,20039,12424,10488,39874,31402,3
0.0,0.0,0.0,20078,12424,10476,39832,31465,3
0.0,0.0,0.0,20019,12464,10464,40088,31593,3
0.0,0.0,0.0,20019,12424,10464,40088,31529,3
0.0,0.0,0.0,19980,12477,10453,40259,31465,3
0.0,0.0,0.0,19960,12504,10499,40216,31529,3
0.0,0.0,0.0,19941,12477,10441,40346,31465,3
0.0,0.0,0.0,19941,12451,10453,40173,31593,3
0.0,0.0,0.0,19921,12504,10453,40088,31465,3
0.0,0.0,0.0,19960,12477,10464,40131,31370,3
0.0,0.0,0.0,19921,12477,10464,40131,31370,3
0.0,0.0,0.0,19960,12477,10441,40002,31370,3
0.0,0.0,0.0,19921,12477,10464,40088,31402,3
0.0,0.0,0.0,19921,12477,10441,40088,31402,3
0.0,0.0,0.0,19921,12477,10453,40131,31339,3
0.0,0.0,0.0,19941,12504,10464,40088,31402,3
0.0,0.0,0.0,19941,12504,10488,40002,31370,3
0.0,0.0,0.0,19941,12504,10464,40045,31370,3
0.0,0.0,0.0,19960,12477,10453,40088,31339,3
0.0,0.0,0.0,19960,12490,10441,40002,31370,3
0.0,0.0,0.0,19999,12490,10441,39832,31402,3
0.0,0.0,0.0,19960,12490,10441,39874,31370,3
0.0,0.0,0.0,19960,12504,10441,39917,31370,3
0.0,0.0,0.0,19999,12504,10453,40002,31339,3
0.0,0.0,0.0,19960,12530,10453,40088,31402,3
0.0,0.0,0.0,20039,12583,10441,40002,31339,3
0.0,0.0,0.0,19999,12583,10441,40002,31339,3
0.0,0.0,0.0,19980,12610,10441,39917,31339,3
0.0,0.0,0.0,19999,12583,10441,39917,31244,3
0.0,0.0,0.0,19960,12556,10441,40002,31244,3
0.0,0.0,0.0,19960,12583,10453,39832,31339,3
0.0,0.0,0.0,20019,12556,10464,40002,31370,3
0.0,0.0,0.0,20019,12610,10453,40002,31244,3
0.0,0.0,0.0,19980,12583,10453,40045,31307,3
0.0,0.0,0.0,20019,12583,10464,40002,31244,3
0.0,0.0,0.0,19999,12570,10464,40045,31276,3
0.0,0.0,0.0,20019,12543,10464,39917,31213,3
0.0,0.0,0.0,20019,12556,10453,39832,31276,3
0.0,0.0,0.0,19980,12530,10441,39874,31150,3
0.0,0.0,0.0,19999,12543,10441,39747,31213,3
0.0,0.0,0.0,19980,12530,10453,39874,31244,3
0.0,0.0,0.0,19999,12543,10441,39747,31213,3
0.0,0.0,0.0,19999,12530,10441,39747,31213,3
0.0,0.0,0.0,19999,12543,10453,39874,31150,3
0.0,0.0,0.0,19999,12543,10441,39832,31213,3
0.0,0.0,0.0,19941,12530,10441,39747,31213,3
0.0,0.0,0.0,19999,12530,10453,39832,31213,3
0.0,0.0,0.0,19999,12530,10441,39747,31150,3
0.0,0.0,0.0,19960,12517,10441,39747,31213,3
0.0,0.0,0.0,19999,12530,10453,39832,31213,3
0.0,0.0,0.0,19999,12530,10453,39832,31244,3
0.0,0.0,0.0,19999,12543,10464,39832,31150,3
0.0,0.0,0.0,19999,12517,10453,39917,31213,3
0.0,0.0,0.0,20078,12530,10453,39874,31213,3
0.0,0.0,0.0,19999,12530,10441,39832,31150,3
0.0,0.0,0.0,19999,12530,10488,39705,31213,3
0.0,0.0,0.0,19980,12530,10464,39832,31213,3
0.0,0.0,0.0,19960,12477,10464,39663,31150,3
0.0,0.0,0.0,19941,12490,10464,39747,31150,3
0.0,0.0,0.0,20039,12530,10453,39705,31150,3
0.0,0.0,0.0,19941,12504,10418,39663,31213,3
0.0,0.0,0.0,19941,12530,10464,39705,31181,3
0.0,0.0,0.0,19941,12517,10464,39747,31339,3
0.0,0.0,0.0,19999,12530,10441,39705,31339,3
0.0,0.0,0.0,19980,12530,10441,39832,31244,3
0.0,0.0,0.0,19941,12530,10453,39663,31307,3
0.0,0.0,0.0,19941,12530,10464,39705,31244,3
0.0,0.0,0.0,19921,12504,10441,39663,31244,3
0.0,0.0,0.0,19999,12530,10453,39790,31213,3
0.0,0.0,0.0,19980,12530,10441,39578,31244,3
0.0,0.0,0.0,19941,12530,10441,39747,31213,3
0.0,0.0,0.0,19999,12490,10464,39705,31087,3
0.0,0.0,0.0,19960,12530,10453,39663,31150,3
0.0,0.0,0.0,19941,12530,10441,39621,31119,3
0.0,0.0,0.0,19941,12517,10441,39790,31213,3
0.0,0.0,0.0,19921,12530,10441,39663,31181,3
0.0,0.0,0.0,19941,12504,10453,39663,31213,3
0.0,0.0,0.0,19960,12504,10441,39663,31213,3
0.0,0.0,0.0,19921,12543,10464,39663,31150,3
0.0,0.0,0.0,19882,12517,10441,39705,31119,3
0.0,0.0,0.0,19921,12530,10441,39747,31087,3
0.0,0.0,0.0,19882,12530,10453,39747,31150,3
0.0,0.0,0.0,19843,12530,10441,39663,31087,3
0.0,0.0,0.0,19882,12543,10453,39663,31150,3
0.0,0.0,0.0,19882,12530,10441,39705,31056,3
0.0,0.0,0.0,19843,12530,10453,39663,31119,3
0.0,0.0,0.0,19882,12530,10453,39747,31025,3
0.0,0.0,0.0,19863,12570,10464,39747,31087,3
0.0,0.0,0.0,19882,12556,10441,39663,31119,3
0.0,0.0,0.0,19863,12556,10453,39747,31087,3
0.0,0.0,0.0,19921,12543,10464,39832,31056,3
0.0,0.0,0.0,19882,12583,10464,39832,31056,3
0.0,0.0,0.0,19882,12596,10453,39832,31087,3
0.0,0.0,0.0,19941,12583,10464,39790,31056,3
0.0,0.0,0.0,19843,12583,10441,39832,31056,3
0.0,0.0,0.0,19882,12623,10453,39747,31025,3
0.0,0.0,0.0,19921,12610,10476,39832,31025,3
0.0,0.0,0.0,19921,12596,10464,39790,31150,3
0.0,0.0,0.0,19882,12610,10464,39747,31087,3
0.0,0.0,0.0,19921,12610,10464,39832,31025,3
0.0,0.0,0.0,19921,12636,10441,39705,31150,3
0.0,0.0,0.0,19882,12623,10464,39790,31087,3
0.0,0.0,0.0,19921,12610,10441,39832,31150,3
0.0,0.0,0.0,19960,12610,10464,39790,31087,3
0.0,0.0,0.0,19941,12610,10441,39747,31025,3
0.0,0.0,0.0,19941,12610,10441,39747,31087,3
0.0,0.0,0.0,19960,12583,10476,39663,31025,3
0.0,0.0,0.0,19980,12583,10441,39578,31025,3
0.0,0.0,0.0,20078,12610,10441,39663,31213,3
0.0,0.0,0.0,20039,12583,10453,39747,31213,3
0.0,0.0,0.0,20039,12583,10441,39832,31370,3
0.0,0.0,0.0,20078,12583,10453,39790,31339,3
0.0,0.0,0.0,20078,12583,10441,39747,31339,3
0.0,0.0,0.0,20078,12583,10441,39874,31213,3
0.0,0.0,0.0,20078,12583,10441,39621,31339,3
0.0,0.0,0.0,20078,12530,10441,39705,31150,3
0.0,0.0,0.0,20078,12530,10453,39578,31119,3
0.0,0.0,0.0,20078,12570,10453,39578,31150,3
0.0,0.0,0.0,20039,12543,10441,39578,31150,3
0.0,0.0,0.0,20039,12543,10441,39578,31119,3
0.0,0.0,0.0,19999,12583,10441,39578,31181,3
0.0,0.0,0.0,19999,12543,10441,39663,31087,3
0.0,0.0,0.0,19999,12530,10441,39705,31087,3
0.0,0.0,0.0,19999,12543,10453,39536,31150,3
0.0,0.0,0.0,19999,12556,10441,39621,31181,3
0.0,0.0,0.0,20019,12583,10441,39705,31150,3
0.0,0.0,0.0,19960,12583,10441,39578,31119,3
0.0,0.0,0.0,19999,12556,10441,39578,31087,3
0.0,0.0,0.0,19999,12530,10453,39578,31056,3
0.0,0.0,0.0,19980,12530,10441,39494,31119,3
0.0,0.0,0.0,19999,12556,10441,39494,31056,3
0.0,0.0,0.0,19960,12556,10441,39536,31119,3
0.0,0.0,0.0,19941,12583,10453,39578,31025,3
0.0,0.0,0.0,19941,12530,10418,39494,31119,3
0.0,0.0,0.0,19960,12556,10441,39494,31087,3
0.0,0.0,0.0,19999,12543,10441,39536,31025,3
0.0,0.0,0.0,19941,12556,10441,39536,31087,3
0.0,0.0,0.0,19941,12543,10453,39536,31087,3
0.0,0.0,0.0,19921,12543,10453,39411,31087,3
0.0,0.0,0.0,19980,12543,10441,39536,31150,3
0.0,0.0,0.0,19921,12556,10441,39494,31087,3
0.0,0.0,0.0,19941,12543,10441,39452,31087,3
0.0,0.0,0.0,19960,12530,10453,39494,31087,3
0.0,0.0,0.0,19921,12556,10441,39494,31056,3
0.0,0.0,0.0,19941,12556,10441,39494,31025,3
0.0,0.0,0.0,19960,12556,10453,39411,31119,3
0.0,0.0,0.0,19999,12543,10453,39578,31087,3
0.0,0.0,0.0,19941,12543,10441,39578,31025,3
0.0,0.0,0.0,19941,12543,10441,39536,31087,3
0.0,0.0,0.0,19960,12556,10441,39578,31087,3
0.0,0.0,0.0,19941,12583,10453,39578,31087,3
0.0,0.0,0.0,19921,12583,10453,39536,31087,3
0.0,0.0,0.0,19941,12543,10441,39578,31025,3
0.0,0.0,0.0,19960,12543,10441,39578,31087,3
0.0,0.0,0.0,19941,12556,10453,39494,31025,3
0.0,0.0,0.0,19921,12556,10441,39578,31150,3
0.0,0.0,0.0,19902,12543,10441,39578,31119,3
0.0,0.0,0.0,19941,12570,10441,39663,31087,3
0.0,0.0,0.0,19941,12556,10453,39536,31025,3
0.0,0.0,0.0,19921,12556,10453,39494,31119,3
0.0,0.0,0.0,19941,12583,10464,39494,31025,3
0.0,0.0,0.0,19941,12543,10453,39536,30962,3
0.0,0.0,0.0,19921,12583,10453,39705,30994,3
0.0,0.0,0.0,19960,12543,10464,39536,30962,3
0.0,0.0,0.0,19921,12556,10441,39536,31087,3
0.0,0.0,0.0,19941,12556,10464,39578,30994,3
0.0,0.0,0.0,19941,12556,10464,39663,30994,3
0.0,0.0,0.0,19921,12583,10464,39663,31056,3
0.0,0.0,0.0,19921,12583,10464,39663,31056,3
0.0,0.0,0.0,19921,12570,10464,39705,31025,3
0.0,0.0,0.0,19941,12543,10453,39621,30962,3
0.0,0.0,0.0,19941,12556,10453,39663,31056,3
0.0,0.0,0.0,19902,12556,10464,39747,31025,3
0.0,0.0,0.0,19941,12583,10464,39621,31025,3
0.0,0.0,0.0,19921,12583,10464,39705,30962,3
0.0,0.0,0.0,19921,12583,10453,39663,30962,3
0.0,0.0,0.0,19882,12583,10476,39663,30962,3
0.0,0.0,0.0,19921,12596,10464,39747,30962,3
0.0,0.0,0.0,19921,12583,10464,39705,30962,3
0.0,0.0,0.0,19882,12583,10464,39663,30994,3
0.0,0.0,0.0,19921,12583,10453,39663,31025,3
0.0,0.0,0.0,19921,12596,10464,39663,31025,3
0.0,0.0,0.0,19863,12543,10476,39747,30869,3
0.0,0.0,0.0,19882,12570,10441,39663,30962,3
0.0,0.0,0.0,19863,12610,10441,39578,30962,3
0.0,0.0,0.0,19882,12583,10488,39621,30962,3
0.0,0.0,0.0,19882,12556,10488,39747,30962,3
0.0,0.0,0.0,19921,12570,10464,39663,30962,3
0.0,0.0,0.0,19921,12583,10488,39578,30962,3
0.0,0.0,0.0,19882,12583,10488,39663,30994,3
0.0,0.0,0.0,19902,12556,10488,39663,30962,3
0.0,0.0,0.0,19902,12596,10464,39578,31025,3
0.0,0.0,0.0,19882,12610,10488,39578,30994,3
0.0,0.0,0.0,19921,12596,10488,39621,30994,3
0.0,0.0,0.0,19941,12583,10488,39663,30962,3
0.0,0.0,0.0,19882,12623,10488,39578,31056,3
0.0,0.0,0.0,19921,12636,10488,39578,30994,3
0.0,0.0,0.0,19960,12596,10499,39536,30869,3
0.0,0.0,0.0,19921,12583,10488,39578,30962,3
0.0,0.0,0.0,19921,12583,10488,39663,30962,3
0.0,0.0,0.0,19960,12583,10488,39578,30994,3
0.0,0.0,0.0,19921,12596,10499,39494,30962,3
0.0,0.0,0.0,19921,12583,10499,39663,31025,3
0.0,0.0,0.0,19921,12556,10488,39663,30900,3
0.0,0.0,0.0,19921,12556,10488,39578,30962,3
0.0,0.0,0.0,19921,12583,10488,39578,30869,3
0.0,0.0,0.0,19921,12583,10488,39578,30962,3
0.0,0.0,0.0,19941,12556,10488,39494,30931,3
0.0,0.0,0.0,19921,12543,10488,39578,30962,3
0.0,0.0,0.0,19902,12583,10488,39578,30994,3
0.0,0.0,0.0,19921,12556,10488,39536,30962,3
0.0,0.0,0.0,19941,12556,10488,39536,30931,3
0.0,0.0,0.0,19941,12530,10499,39536,30900,3
0.0,0.0,0.0,19941,12530,10488,39578,30962,3
0.0,0.0,0.0,19941,12583,10488,39494,30900,3
0.0,0.0,0.0,19921,12530,10488,39452,30962,3
0.0,0.0,0.0,19960,12530,10464,39411,30962,3
0.0,0.0,0.0,19960,12530,10464,39494,30900,3
0.0,0.0,0.0,19941,12556,10453,39494,30900,3
0.0,0.0,0.0,19921,12530,10464,39369,30962,3
0.0,0.0,0.0,19882,12530,10453,39411,30869,3
0.0,0.0,0.0,19921,12530,10453,39411,30869,3
0.0,0.0,0.0,19902,12530,10476,39411,30900,3
0.0,0.0,0.0,19882,12543,10453,39494,30869,3
0.0,0.0,0.0,19882,12543,10464,39494,30900,3
0.0,0.0,0.0,19921,12504,10453,39494,30900,3
0.0,0.0,0.0,19902,12530,10453,39452,30962,3
0.0,0.0,0.0,19882,12543,10453,39494,30962,3
0.0,0.0,0.0,19863,12530,10464,39494,30807,3
0.0,0.0,0.0,19882,12517,10464,39494,30838,3
0.0,0.0,0.0,19921,12530,10464,39452,30869,3
0.0,0.0,0.0,19882,12530,10464,39494,30962,3
0.0,0.0,0.0,19863,12530,10453,39452,30900,3
0.0,0.0,0.0,19882,12530,10464,39536,30869,3
0.0,0.0,0.0,19843,12530,10464,39411,30900,3
0.0,0.0,0.0,19843,12530,10453,39494,30838,3
0.0,0.0,0.0,19902,12530,10476,39494,30838,3
0.0,0.0,0.0,19863,12530,10464,39536,30838,3
0.0,0.0,0.0,19882,12504,10453,39578,30931,3
0.0,0.0,0.0,19882,12556,10464,39411,30900,3
0.0,0.0,0.0,19843,12530,10488,39536,30900,3
0.0,0.0,0.0,19863,12543,10488,39494,30931,3
0.0,0.0,0.0,19863,12530,10476,39494,30900,3
0.0,0.0,0.0,19863,12530,10464,39536,30931,3
0.0,0.0,0.0,19843,12530,10453,39494,30869,3
0.0,0.0,0.0,19882,12543,10464,39494,30900,3
0.0,0.0,0.0,19843,12530,10464,39494,30838,3
0.0,0.0,0.0,19843,12556,10464,39494,30869,3
0.0,0.0,0.0,19843,12530,10464,39452,30900,3
0.0,0.0,0.0,19843,12543,10488,39494,30900,3
0.0,0.0,0.0,19863,12543,10488,39494,30900,3
0.0,0.0,0.0,19843,12556,10488,39494,30838,3
0.0,0.0,0.0,19843,12556,10476,39578,30869,3
0.0,0.0,0.0,19843,12543,10464,39494,30900,3
0.0,0.0,0.0,19882,12583,10464,39536,30776,3
0.0,0.0,0.0,19863,12583,10464,39536,30838,3
0.0,0.0,0.0,19843,12543,10488,39578,30838,3
0.0,0.0,0.0,19843,12583,10488,39536,30869,3
0.0,0.0,0.0,19863,12556,10488,39663,30838,3
0.0,0.0,0.0,19882,12556,10464,39536,30900,3
0.0,0.0,0.0,19863,12556,10464,39494,30838,3
0.0,0.0,0.0,19882,12583,10488,39536,30838,3
0.0,0.0,0.0,19863,12543,10488,39578,30931,3
0.0,0.0,0.0,19843,12556,10488,39536,30869,3
0.0,0.0,0.0,19843,12543,10488,39536,30994,3
0.0,0.0,0.0,19824,12543,10488,39578,30838,3
0.0,0.0,0.0,19863,12530,10488,39536,30838,3
0.0,0.0,0.0,19843,12543,10488,39536,30900,3
0.0,0.0,0.0,19843,12543,10453,39369,30962,3
0.0,0.0,0.0,19805,12530,10488,39578,30838,3
0.0,0.0,0.0,19785,12543,10464,39494,30931,3
0.0,0.0,0.0,19824,12530,10464,39452,30838,3
0.0,0.0,0.0,19843,12556,10464,39494,30869,3
0.0,0.0,0.0,19882,12543,10441,39494,30900,3
0.0,0.0,0.0,19843,12543,10488,39621,30838,3
0.0,0.0,0.0,19843,12530,10488,39494,30900,3
0.0,0.0,0.0,19843,12583,10464,39452,30900,3
0.0,0.0,0.0,19843,12556,10488,39578,30838,3
0.0,0.0,0.0,19805,12543,10453,39452,30776,3
0.0,0.0,0.0,19805,12530,10476,39494,30869,3
0.0,0.0,0.0,19805,12530,10476,39494,30931,3
0.0,0.0,0.0,19766,12530,10464,39536,30869,3
0.0,0.0,0.0,19805,12543,10464,39494,30807,3
0.0,0.0,0.0,19824,12530,10488,39494,30962,3
0.0,0.0,0.0,19805,12530,10488,39411,30931,3
0.0,0.0,0.0,19843,12530,10488,39494,30869,3
0.0,0.0,0.0,19843,12543,10464,39494,30838,3
0.0,0.0,0.0,19843,12543,10464,39494,30869,3
0.0,0.0,0.0,19863,12543,10488,39494,30838,3
0.0,0.0,0.0,19824,12556,10464,39536,30869,3
0.0,0.0,0.0,19843,12530,10488,39494,30838,3
0.0,0.0,0.0,19843,12530,10488,39494,30900,3
0.0,0.0,0.0,19843,12530,10476,39494,30745,3
0.0,0.0,0.0,19843,12504,10488,39327,30900,3
0.0,0.0,0.0,19805,12530,10488,39411,30838,3
0.0,0.0,0.0,19843,12543,10441,39411,30900,3
0.0,0.0,0.0,19843,12530,10453,39452,30900,3
0.0,0.0,0.0,19805,12530,10453,39578,30994,3
0.0,0.0,0.0,19843,12530,10464,39411,31025,3
0.0,0.0,0.0,19805,12504,10488,39494,31025,3
0.0,0.0,0.0,19805,12530,10453,39578,30962,3
0.0,0.0,0.0,19843,12504,10476,39494,30900,3
0.0,0.0,0.0,19843,12543,10488,39494,30962,3
0.0,0.0,0.0,19805,12530,10488,39411,30962,3
0.0,0.0,0.0,19843,12543,10488,39494,30962,3
0.0,0.0,0.0,19785,12530,10476,39494,30962,3
0.0,0.0,0.0,19805,12530,10464,39411,30962,3
0.0,0.0,0.0,19843,12530,10453,39536,30838,3
0.0,0.0,0.0,19805,12530,10464,39494,30962,3
0.0,0.0,0.0,19805,12530,10464,39411,30962,3
0.0,0.0,0.0,19805,12530,10453,39411,30962,3
0.0,0.0,0.0,19843,12530,10488,39494,30838,3
0.0,0.0,0.0,19843,12530,10441,39369,30931,3
0.0,0.0,0.0,19785,12530,10453,39411,30838,3
0.0,0.0,0.0,19805,12530,10464,39411,30807,3
0.0,0.0,0.0,19805,12504,10476,39411,30900,3
0.0,0.0,0.0,19785,12530,10464,39327,30838,3
0.0,0.0,0.0,19805,12530,10441,39327,30900,3
0.0,0.0,0.0,19843,12530,10464,39369,30776,3
0.0,0.0,0.0,19785,12530,10464,39244,30838,3
0.0,0.0,0.0,19824,12530,10464,39369,30900,3
0.0,0.0,0.0,19805,12530,10464,39369,30838,3
0.0,0.0,0.0,19843,12530,10464,39452,30838,3
0.0,0.0,0.0,19843,12530,10464,39369,30900,3
0.0,0.0,0.0,19805,12530,10464,39327,30869,3
0.0,0.0,0.0,19843,12517,10464,39327,30838,3
0.0,0.0,0.0,19805,12530,10464,39327,30838,3
0.0,0.0,0.0,19805,12504,10464,39327,30838,3
0.0,0.0,0.0,19785,12530,10464,39285,30900,3
0.0,0.0,0.0,19843,12530,10453,39327,30869,3
0.0,0.0,0.0,19843,12530,10464,39411,30869,3
0.0,0.0,0.0,19843,12530,10464,39244,30838,3
0.0,0.0,0.0,19843,12530,10453,39244,30838,3
0.0,0.0,0.0,19805,12530,10464,39327,30776,3
0.0,0.0,0.0,19805,12517,10464,39327,30838,3
0.0,0.0,0.0,19805,12530,10441,39244,30838,3
0.0,0.0,0.0,19805,12543,10464,39369,30776,3
0.0,0.0,0.0,19843,12530,10441,39244,30838,3
0.0,0.0,0.0,19843,12530,10464,39327,30838,3
0.0,0.0,0.0,19843,12543,10488,39244,30869,3
0.0,0.0,0.0,19766,12530,10488,39327,30869,3
0.0,0.0,0.0,19805,12504,10464,39327,30900,3
0.0,0.0,0.0,19843,12504,10464,39411,30776,3
0.0,0.0,0.0,19863,12530,10488,39411,30838,3
