GyroX,GyroY,GyroZ,Thumb,Index,Middle,Ring,Pinky,Gesture
0.0,0.0,0.0,21796,11478,9599,11403,41938,4
0.0,0.0,0.0,21711,11478,9621,11416,42029,4
0.0,0.0,0.0,21648,11503,9610,11416,41938,4
0.0,0.0,0.0,21711,11503,9621,11403,42029,4
0.0,0.0,0.0,21733,11453,9621,11416,42120,4
0.0,0.0,0.0,21796,11503,9621,11416,42304,4
0.0,0.0,0.0,22010,11453,9621,11403,42626,4
0.0,0.0,0.0,21924,11403,9621,11453,42673,4
0.0,0.0,0.0,21882,11416,9621,11453,42626,4
0.0,0.0,0.0,21903,11403,9621,11428,42304,4
0.0,0.0,0.0,21882,11403,9621,11416,42304,4
0.0,0.0,0.0,21839,11403,9621,11416,42166,4
0.0,0.0,0.0,21796,11379,9621,11428,42120,4
0.0,0.0,0.0,21796,11379,9621,11428,42166,4
0.0,0.0,0.0,21754,11379,9621,11416,41893,4
0.0,0.0,0.0,21754,11403,9621,11403,42029,4
0.0,0.0,0.0,21733,11379,9621,11403,41984,4
0.0,0.0,0.0,21669,11403,9599,11416,41848,4
0.0,0.0,0.0,21627,11366,9621,11416,41938,4
0.0,0.0,0.0,21563,11354,9621,11403,41622,4
0.0,0.0,0.0,21563,11354,9599,11403,41757,4
0.0,0.0,0.0,21542,11354,9632,11428,41667,4
0.0,0.0,0.0,21542,11354,9621,11403,41757,4
0.0,0.0,0.0,21500,11329,9621,11403,41757,4
0.0,0.0,0.0,21479,11304,9632,11403,41622,4
0.0,0.0,0.0,21312,11317,9677,11403,41088,4
0.0,0.0,0.0,21312,11317,10174,11416,40955,4
0.0,0.0,0.0,21229,11255,10267,11465,40736,4
0.0,0.0,0.0,21167,11329,10441,11465,40346,4
0.0,0.0,0.0,21125,11268,10290,11428,39244,4
0.0,0.0,0.0,20981,11255,10140,11403,38422,4
0.0,0.0,0.0,21043,11280,9935,11379,37741,4
0.0,0.0,0.0,20981,11304,9845,11366,37114,4
0.0,0.0,0.0,20961,11255,9800,11354,36959,4
0.0,0.0,0.0,20879,11231,9766,11354,36882,4
0.0,0.0,0.0,20920,11219,9744,11354,37075,4
0.0,0.0,0.0,20920,11206,9666,11317,37230,4
0.0,0.0,0.0,21043,11194,9666,11317,37347,4
0.0,0.0,0.0,21022,11231,9688,11317,37940,4
0.0,0.0,0.0,21043,11219,9677,11304,38019,4
0.0,0.0,0.0,20981,11206,9688,11304,38220,4
0.0,0.0,0.0,21043,11194,9721,11304,38019,4
0.0,0.0,0.0,21084,11206,9710,11280,38220,4
0.0,0.0,0.0,21043,11206,9699,11280,38059,4
0.0,0.0,0.0,21064,11206,9699,11304,38220,4
0.0,0.0,0.0,21084,11182,9677,11280,38059,4
0.0,0.0,0.0,21043,11206,9710,11280,38019,4
0.0,0.0,0.0,20981,11182,9710,11280,38019,4
0.0,0.0,0.0,20961,11194,9688,11280,37741,4
0.0,0.0,0.0,20961,11182,9688,11280,37701,4
0.0,0.0,0.0,20961,11206,9666,11304,37701,4
0.0,0.0,0.0,20920,11182,9677,11304,37701,4
0.0,0.0,0.0,20961,11206,9677,11280,37940,4
0.0,0.0,0.0,20981,11194,9666,11268,38100,4
0.0,0.0,0.0,21043,11206,9666,11268,38341,4
0.0,0.0,0.0,21084,11206,9666,11280,38503,4
0.0,0.0,0.0,21125,11206,9666,11255,38422,4
0.0,0.0,0.0,21208,11206,9666,11268,38789,4
0.0,0.0,0.0,21125,11219,9666,11292,38666,4
0.0,0.0,0.0,21250,11206,9666,11268,38871,4
0.0,0.0,0.0,21250,11243,9666,11255,38995,4
0.0,0.0,0.0,21312,11219,9666,11280,39036,4
0.0,0.0,0.0,21333,11231,9666,11255,38871,4
0.0,0.0,0.0,21291,11206,9643,11255,38830,4
0.0,0.0,0.0,21312,11255,9666,11255,38830,4
0.0,0.0,0.0,21312,11255,9666,11255,38830,4
0.0,0.0,0.0,21375,11255,9666,11255,38912,4
0.0,0.0,0.0,21333,11255,9666,11255,38830,4
0.0,0.0,0.0,21416,11255,9666,11255,38912,4
0.0,0.0,0.0,21375,11280,9666,11255,38871,4
0.0,0.0,0.0,21416,11280,9654,11255,38912,4
0.0,0.0,0.0,21416,11268,9666,11255,38830,4
0.0,0.0,0.0,21375,11304,9666,11255,38871,4
0.0,0.0,0.0,21395,11304,9677,11231,38995,4
0.0,0.0,0.0,21416,11304,9666,11255,38995,4
0.0,0.0,0.0,21416,11304,9666,11255,38953,4
0.0,0.0,0.0,21458,11304,9666,11231,38995,4
0.0,0.0,0.0,21416,11304,9643,11243,39036,4
0.0,0.0,0.0,21437,11304,9643,11255,39327,4
0.0,0.0,0.0,21416,11317,9666,11219,39327,4
0.0,0.0,0.0,21458,11304,9643,11255,39077,4
0.0,0.0,0.0,21416,11317,9654,11255,38912,4
0.0,0.0,0.0,21395,11304,9666,11255,38830,4
0.0,0.0,0.0,21375,11304,9643,11255,38953,4
0.0,0.0,0.0,21458,11304,9666,11231,39077,4
0.0,0.0,0.0,21416,11304,9666,11255,38912,4
0.0,0.0,0.0,21416,11317,9643,11255,38912,4
0.0,0.0,0.0,21416,11317,9654,11255,38912,4
0.0,0.0,0.0,21395,11317,9643,11231,39036,4
0.0,0.0,0.0,21416,11329,9666,11255,39077,4
0.0,0.0,0.0,21458,11329,9666,11255,39160,4
0.0,0.0,0.0,21479,11317,9643,11255,39160,4
0.0,0.0,0.0,21458,11317,9643,11268,39202,4
0.0,0.0,0.0,21479,11329,9654,11255,39077,4
0.0,0.0,0.0,21479,11354,9666,11255,39036,4
0.0,0.0,0.0,21437,11317,9643,11255,39077,4
0.0,0.0,0.0,21479,11317,9643,11255,38995,4
0.0,0.0,0.0,21542,11329,9643,11255,38995,4
0.0,0.0,0.0,21500,11317,9666,11255,38912,4
0.0,0.0,0.0,21500,11329,9654,11255,38871,4
0.0,0.0,0.0,21521,11304,9643,11255,38912,4
0.0,0.0,0.0,21500,11317,9666,11268,38995,4
0.0,0.0,0.0,21648,11329,9643,11255,39578,4
0.0,0.0,0.0,21711,11329,9643,11268,39747,4
0.0,0.0,0.0,21711,11354,9654,11255,39917,4
0.0,0.0,0.0,21711,11354,9643,11255,40088,4
0.0,0.0,0.0,21648,11354,9654,11255,39536,4
0.0,0.0,0.0,21690,11354,9643,11255,39452,4
0.0,0.0,0.0,21669,11354,9643,11255,39452,4
0.0,0.0,0.0,21648,11366,9632,11255,39285,4
0.0,0.0,0.0,21754,11354,9643,11231,39411,4
0.0,0.0,0.0,21775,11354,9621,11219,39411,4
0.0,0.0,0.0,21882,11317,9643,11243,39578,4
0.0,0.0,0.0,21818,11354,9621,11255,39790,4
0.0,0.0,0.0,21818,11329,9621,11219,39917,4
0.0,0.0,0.0,21882,11379,9643,11231,40002,4
0.0,0.0,0.0,21967,11366,9643,11231,40432,4
0.0,0.0,0.0,22118,11354,9621,11231,40259,4
0.0,0.0,0.0,22096,11354,9632,11219,40173,4
0.0,0.0,0.0,22118,11366,9643,11219,40259,4
0.0,0.0,0.0,22226,11366,9632,11219,40216,4
0.0,0.0,0.0,22270,11354,9621,11206,40432,4
0.0,0.0,0.0,22313,11354,9654,11243,40432,4
0.0,0.0,0.0,22444,11366,9643,11219,40302,4
0.0,0.0,0.0,22313,11366,9643,11219,40259,4
0.0,0.0,0.0,22313,11379,9643,11243,40173,4
0.0,0.0,0.0,22270,11354,9643,11231,40173,4
0.0,0.0,0.0,22313,11379,9632,11219,40088,4
0.0,0.0,0.0,22248,11403,9643,11219,40173,4
0.0,0.0,0.0,22226,11403,9632,11219,40045,4
0.0,0.0,0.0,22226,11403,9621,11219,40088,4
0.0,0.0,0.0,22226,11403,9643,11231,40131,4
0.0,0.0,0.0,22118,11403,9632,11206,40002,4
0.0,0.0,0.0,22140,11428,9632,11219,39960,4
0.0,0.0,0.0,22140,11428,9610,11231,39917,4
0.0,0.0,0.0,22118,11453,9643,11231,39960,4
0.0,0.0,0.0,22096,11428,9643,11231,39832,4
0.0,0.0,0.0,22140,11428,9643,11219,39917,4
0.0,0.0,0.0,22075,11453,9632,11231,39790,4
0.0,0.0,0.0,22096,11453,9643,11219,39874,4
0.0,0.0,0.0,22096,11503,9632,11219,39832,4
0.0,0.0,0.0,22118,11478,9643,11231,39832,4
0.0,0.0,0.0,22118,11503,9632,11219,39790,4
0.0,0.0,0.0,22096,11503,9632,11255,39874,4
0.0,0.0,0.0,22140,11503,9632,11255,39832,4
0.0,0.0,0.0,22096,11503,9621,11219,39663,4
0.0,0.0,0.0,22096,11503,9632,11219,39747,4
0.0,0.0,0.0,22096,11553,9632,11206,39832,4
0.0,0.0,0.0,22096,11528,9643,11231,39747,4
0.0,0.0,0.0,22075,11553,9643,11243,39832,4
0.0,0.0,0.0,22226,11528,9632,11219,40088,4
0.0,0.0,0.0,22161,11503,9621,11231,40002,4
0.0,0.0,0.0,22140,11478,9643,11219,39917,4
0.0,0.0,0.0,22096,11503,9632,11219,39832,4
0.0,0.0,0.0,22118,11503,9621,11243,39705,4
0.0,0.0,0.0,22075,11528,9643,11231,39663,4
0.0,0.0,0.0,22075,11515,9643,11231,39705,4
0.0,0.0,0.0,22010,11528,9632,11255,39705,4
0.0,0.0,0.0,22096,11528,9643,11255,39663,4
0.0,0.0,0.0,22096,11553,9632,11231,39663,4
0.0,0.0,0.0,22053,11578,9632,11206,39663,4
0.0,0.0,0.0,22096,11578,9621,11231,39832,4
0.0,0.0,0.0,22053,11578,9632,11231,39663,4
0.0,0.0,0.0,22053,11590,9621,11255,39747,4
0.0,0.0,0.0,22010,11615,9621,11231,39874,4
0.0,0.0,0.0,22053,11590,9621,11255,39705,4
0.0,0.0,0.0,22010,11603,9643,11255,39578,4
0.0,0.0,0.0,22010,11603,9632,11243,39578,4
0.0,0.0,0.0,22010,11603,9632,11219,39536,4
0.0,0.0,0.0,22053,11590,9621,11255,39663,4
0.0,0.0,0.0,22010,11578,9621,11219,39578,4
0.0,0.0,0.0,22010,11603,9643,11231,39663,4
0.0,0.0,0.0,22010,11578,9632,11255,39494,4
0.0,0.0,0.0,22053,11603,9621,11255,39578,4
0.0,0.0,0.0,22010,11603,9621,11255,39536,4
0.0,0.0,0.0,22010,11578,9621,11255,39663,4
0.0,0.0,0.0,21967,11603,9621,11255,39621,4
0.0,0.0,0.0,22010,11578,9588,11231,39621,4
0.0,0.0,0.0,22010,11603,9643,11219,39621,4
0.0,0.0,0.0,22032,11603,9621,11231,39536,4
0.0,0.0,0.0,22053,11578,9632,11255,39663,4
0.0,0.0,0.0,22010,11615,9643,11255,39494,4
0.0,0.0,0.0,22053,11603,9632,11231,39578,4
0.0,0.0,0.0,22010,11603,9632,11255,39578,4
0.0,0.0,0.0,22053,11603,9621,11243,39621,4
0.0,0.0,0.0,22010,11578,9632,11255,39536,4
0.0,0.0,0.0,22010,11603,9632,11255,39578,4
0.0,0.0,0.0,22010,11603,9621,11255,39578,4
0.0,0.0,0.0,22010,11603,9621,11255,39536,4
0.0,0.0,0.0,22010,11615,9643,11231,39578,4
0.0,0.0,0.0,22010,11603,9621,11255,39578,4
0.0,0.0,0.0,22010,11603,9643,11255,39494,4
0.0,0.0,0.0,22010,11628,9632,11231,39536,4
0.0,0.0,0.0,22010,11615,9632,11255,39536,4
0.0,0.0,0.0,22010,11615,9621,11255,39663,4
0.0,0.0,0.0,22010,11615,9643,11255,39411,4
0.0,0.0,0.0,22010,11615,9621,11231,39494,4
0.0,0.0,0.0,22010,11628,9643,11255,39536,4
0.0,0.0,0.0,22010,11628,9632,11255,39494,4
0.0,0.0,0.0,22096,11603,9632,11255,39494,4
0.0,0.0,0.0,22096,11603,9621,11255,39578,4
0.0,0.0,0.0,22140,11590,9632,11255,39494,4
0.0,0.0,0.0,22075,11565,9621,11255,39536,4
0.0,0.0,0.0,22053,11603,9621,11255,39578,4
0.0,0.0,0.0,22335,11578,9632,11255,40088,4
0.0,0.0,0.0,22335,11590,9621,11268,39917,4
0.0,0.0,0.0,22292,11590,9621,11255,39832,4
0.0,0.0,0.0,22401,11578,9621,11255,39960,4
0.0,0.0,0.0,22554,11603,9632,11255,40173,4
0.0,0.0,0.0,22357,11553,9621,11255,39960,4
0.0,0.0,0.0,22140,11553,9621,11255,39578,4
0.0,0.0,0.0,22161,11503,9632,11268,39494,4
0.0,0.0,0.0,22096,11515,9621,11255,39327,4
0.0,0.0,0.0,22053,11528,9632,11255,39369,4
0.0,0.0,0.0,22053,11528,9621,11255,39244,4
0.0,0.0,0.0,21967,11490,9621,11268,39327,4
0.0,0.0,0.0,21882,11528,9621,11268,39077,4
0.0,0.0,0.0,21796,11503,9632,11231,39036,4
0.0,0.0,0.0,21775,11503,9643,11255,38995,4
0.0,0.0,0.0,21818,11478,9632,11268,39077,4
0.0,0.0,0.0,21775,11515,9643,11243,39077,4
0.0,0.0,0.0,21796,11503,9621,11255,38995,4
0.0,0.0,0.0,21818,11503,9621,11255,38995,4
0.0,0.0,0.0,21775,11503,9632,11280,38912,4
0.0,0.0,0.0,21796,11528,9632,11255,38912,4
0.0,0.0,0.0,21775,11528,9632,11255,38830,4
0.0,0.0,0.0,21754,11515,9621,11268,38830,4
0.0,0.0,0.0,21733,11503,9643,11255,38789,4
0.0,0.0,0.0,21754,11528,9621,11255,38871,4
0.0,0.0,0.0,21711,11515,9621,11268,38830,4
0.0,0.0,0.0,21627,11528,9621,11292,38707,4
0.0,0.0,0.0,21648,11528,9621,11243,38830,4
0.0,0.0,0.0,21627,11553,9621,11255,38666,4
0.0,0.0,0.0,21648,11553,9621,11255,38748,4
0.0,0.0,0.0,21669,11528,9621,11268,38830,4
0.0,0.0,0.0,21627,11515,9621,11280,38748,4
0.0,0.0,0.0,21627,11553,9632,11255,38789,4
0.0,0.0,0.0,21627,11553,9621,11255,38707,4
0.0,0.0,0.0,21542,11540,9621,11255,38666,4
0.0,0.0,0.0,21563,11553,9621,11255,38666,4
0.0,0.0,0.0,21584,11553,9632,11280,38748,4
0.0,0.0,0.0,21584,11553,9621,11280,38748,4
0.0,0.0,0.0,21563,11528,9621,11280,38707,4
0.0,0.0,0.0,21627,11528,9632,11280,38666,4
0.0,0.0,0.0,21563,11553,9621,11280,38666,4
0.0,0.0,0.0,21542,11528,9621,11255,38748,4
0.0,0.0,0.0,21542,11528,9621,11255,38707,4
0.0,0.0,0.0,21542,11540,9621,11255,38748,4
0.0,0.0,0.0,21542,11553,9621,11304,38830,4
0.0,0.0,0.0,21542,11553,9632,11255,38707,4
0.0,0.0,0.0,21584,11553,9621,11268,38830,4
0.0,0.0,0.0,21542,11553,9632,11255,38789,4
0.0,0.0,0.0,21584,11528,9621,11268,38585,4
0.0,0.0,0.0,21563,11553,9621,11268,38544,4
0.0,0.0,0.0,21563,11565,9621,11255,38625,4
0.0,0.0,0.0,21542,11565,9621,11280,38503,4
0.0,0.0,0.0,21542,11578,9621,11280,38544,4
0.0,0.0,0.0,21542,11553,9643,11268,38585,4
0.0,0.0,0.0,21458,11553,9621,11280,38463,4
0.0,0.0,0.0,21500,11553,9643,11255,38503,4
0.0,0.0,0.0,21479,11553,9621,11268,38503,4
0.0,0.0,0.0,21521,11528,9621,11268,38585,4
0.0,0.0,0.0,21542,11553,9621,11255,38503,4
0.0,0.0,0.0,21458,11553,9632,11292,38463,4
0.0,0.0,0.0,21542,11578,9632,11280,38503,4
0.0,0.0,0.0,21542,11565,9643,11268,38422,4
0.0,0.0,0.0,21500,11553,9621,11280,38503,4
0.0,0.0,0.0,21521,11565,9621,11255,38503,4
0.0,0.0,0.0,21542,11603,9643,11268,38503,4
0.0,0.0,0.0,21542,11603,9621,11255,38585,4
0.0,0.0,0.0,21542,11578,9643,11268,38544,4
0.0,0.0,0.0,21500,11590,9621,11268,38341,4
0.0,0.0,0.0,21542,11553,9643,11268,38422,4
0.0,0.0,0.0,21521,11590,9621,11292,38422,4
0.0,0.0,0.0,21479,11590,9632,11280,38422,4
0.0,0.0,0.0,21542,11603,9632,11280,38503,4
0.0,0.0,0.0,21500,11578,9632,11280,38463,4
0.0,0.0,0.0,21542,11590,9632,11304,38463,4
0.0,0.0,0.0,21500,11578,9632,11280,38382,4
0.0,0.0,0.0,21500,11603,9632,11280,38422,4
0.0,0.0,0.0,21521,11578,9632,11280,38463,4
0.0,0.0,0.0,21521,11578,9643,11268,38422,4
0.0,0.0,0.0,21500,11578,9621,11268,38422,4
0.0,0.0,0.0,21500,11578,9643,11268,38341,4
0.0,0.0,0.0,21458,11603,9643,11268,38382,4
0.0,0.0,0.0,21479,11590,9632,11280,38382,4
0.0,0.0,0.0,21479,11603,9621,11268,38341,4
0.0,0.0,0.0,21500,11578,9621,11280,38422,4
0.0,0.0,0.0,21458,11603,9632,11280,38382,4
0.0,0.0,0.0,21458,11603,9632,11268,38341,4
0.0,0.0,0.0,21479,11615,9621,11280,38301,4
0.0,0.0,0.0,21500,11603,9632,11255,38341,4
0.0,0.0,0.0,21521,11603,9621,11304,38260,4
0.0,0.0,0.0,21479,11603,9621,11280,38341,4
0.0,0.0,0.0,21521,11603,9621,11268,38382,4
0.0,0.0,0.0,21500,11603,9621,11304,38382,4
0.0,0.0,0.0,21500,11603,9621,11304,38422,4
0.0,0.0,0.0,21479,11603,9632,11280,38341,4
0.0,0.0,0.0,21627,11615,9621,11268,38503,4
0.0,0.0,0.0,21563,11628,9621,11280,38382,4
0.0,0.0,0.0,21606,11653,9621,11304,38503,4
0.0,0.0,0.0,21627,11653,9632,11280,38544,4
0.0,0.0,0.0,21796,11628,9621,11280,38625,4
0.0,0.0,0.0,22010,11615,9621,11304,38912,4
0.0,0.0,0.0,22140,11603,9621,11280,38995,4
0.0,0.0,0.0,22183,11603,9621,11280,38871,4
0.0,0.0,0.0,22183,11603,9621,11304,38995,4
0.0,0.0,0.0,22140,11603,9621,11304,38912,4
0.0,0.0,0.0,22096,11590,9632,11280,38830,4
0.0,0.0,0.0,22140,11578,9632,11280,38830,4
0.0,0.0,0.0,22010,11603,9621,11268,38707,4
0.0,0.0,0.0,22010,11603,9621,11280,38748,4
0.0,0.0,0.0,22010,11578,9632,11280,38748,4
0.0,0.0,0.0,22010,11603,9621,11280,38666,4
0.0,0.0,0.0,21924,11603,9610,11292,38748,4
0.0,0.0,0.0,21754,11603,9621,11304,38830,4
0.0,0.0,0.0,21754,11603,9621,11280,38748,4
0.0,0.0,0.0,21754,11603,9621,11304,38666,4
0.0,0.0,0.0,21796,11603,9621,11304,38789,4
0.0,0.0,0.0,21733,11603,9621,11304,38830,4
0.0,0.0,0.0,21754,11603,9632,11304,38912,4
0.0,0.0,0.0,21648,11603,9621,11416,39327,4
0.0,0.0,0.0,21500,11478,9632,11553,39578,4
0.0,0.0,0.0,21458,11403,9599,11603,39917,4
0.0,0.0,0.0,21627,11255,9621,11603,39917,4
0.0,0.0,0.0,21648,11206,9610,11590,39917,4
0.0,0.0,0.0,21627,11109,9621,11528,40045,4
0.0,0.0,0.0,21584,11121,9599,11428,39790,4
0.0,0.0,0.0,21563,11157,9621,11428,39705,4
0.0,0.0,0.0,21584,11157,9621,11403,39663,4
0.0,0.0,0.0,21711,11206,9621,11453,39411,4
0.0,0.0,0.0,21924,11194,9621,11515,39578,4
0.0,0.0,0.0,21903,11206,9621,11503,39327,4
0.0,0.0,0.0,21775,11182,9621,11478,39369,4
0.0,0.0,0.0,21796,11182,9621,11503,39663,4
0.0,0.0,0.0,21648,11219,9621,11465,39578,4
0.0,0.0,0.0,21627,11255,9599,11478,39411,4
0.0,0.0,0.0,21648,11280,9621,11453,39369,4
0.0,0.0,0.0,21648,11304,9621,11453,39411,4
0.0,0.0,0.0,21648,11354,9610,11428,39452,4
0.0,0.0,0.0,21711,11354,9621,11416,39663,4
0.0,0.0,0.0,21754,11366,9621,11403,39705,4
0.0,0.0,0.0,21711,11403,9599,11416,39663,4
0.0,0.0,0.0,21711,11416,9610,11403,39663,4
0.0,0.0,0.0,21711,11453,9599,11379,40002,4
0.0,0.0,0.0,21733,11503,9621,11403,40002,4
0.0,0.0,0.0,21796,11503,9599,11379,40002,4
0.0,0.0,0.0,21818,11478,9599,11379,40389,4
0.0,0.0,0.0,21882,11503,9621,11379,41803,4
0.0,0.0,0.0,22313,11528,9599,11391,42673,4
0.0,0.0,0.0,22335,11528,9621,11391,42534,4
0.0,0.0,0.0,22466,11478,9621,11403,42258,4
0.0,0.0,0.0,22444,11416,9621,11403,42212,4
0.0,0.0,0.0,22401,11354,9621,11403,42212,4
0.0,0.0,0.0,22313,11354,9621,11403,41938,4
0.0,0.0,0.0,22335,11317,9621,11403,41803,4
0.0,0.0,0.0,22226,11317,9621,11403,41938,4
0.0,0.0,0.0,22161,11304,9621,11366,41622,4
0.0,0.0,0.0,22205,11194,9621,11329,42029,4
0.0,0.0,0.0,22053,11157,9621,11317,41848,4
0.0,0.0,0.0,22075,11182,9621,11317,41757,4
0.0,0.0,0.0,22010,11194,9621,11329,41757,4
0.0,0.0,0.0,22010,11182,9621,11329,41443,4
0.0,0.0,0.0,22010,11206,9621,11317,41443,4
0.0,0.0,0.0,21967,11231,9621,11317,41399,4
0.0,0.0,0.0,21946,11268,9610,11317,41354,4
0.0,0.0,0.0,22010,11292,9621,11329,41399,4
0.0,0.0,0.0,21967,11268,9588,11317,41309,4
0.0,0.0,0.0,22010,11304,9621,11329,41309,4
0.0,0.0,0.0,22010,11304,9621,11317,41309,4
0.0,0.0,0.0,21903,11317,9621,11354,41265,4
0.0,0.0,0.0,21924,11341,9621,11304,41309,4
0.0,0.0,0.0,21882,11304,9621,11304,41221,4
0.0,0.0,0.0,22010,11304,9621,11329,41132,4
0.0,0.0,0.0,21903,11317,9621,11304,41176,4
0.0,0.0,0.0,21903,11329,9621,11329,41132,4
0.0,0.0,0.0,21860,11329,9621,11304,41088,4
0.0,0.0,0.0,21882,11354,9621,11317,41044,4
0.0,0.0,0.0,21882,11354,9621,11329,41132,4
0.0,0.0,0.0,21924,11354,9621,11304,40346,4
0.0,0.0,0.0,21882,11354,9621,11317,40432,4
0.0,0.0,0.0,21818,11366,9610,11304,40216,4
0.0,0.0,0.0,21818,11354,9621,11304,40259,4
0.0,0.0,0.0,21882,11354,9621,11317,40259,4
0.0,0.0,0.0,21818,11354,9621,11304,40173,4
0.0,0.0,0.0,21818,11403,9621,11317,40259,4
0.0,0.0,0.0,21818,11366,9610,11304,40088,4
0.0,0.0,0.0,21818,11354,9621,11317,40216,4
0.0,0.0,0.0,21839,11354,9643,11304,40131,4
0.0,0.0,0.0,21796,11354,9621,11329,40173,4
0.0,0.0,0.0,21818,11354,9621,11304,40088,4
0.0,0.0,0.0,21796,11354,9599,11317,40173,4
0.0,0.0,0.0,21796,11354,9621,11304,40131,4
0.0,0.0,0.0,21754,11354,9621,11304,40088,4
0.0,0.0,0.0,21796,11354,9621,11304,40173,4
0.0,0.0,0.0,21711,11354,9621,11304,40088,4
0.0,0.0,0.0,21733,11354,9621,11292,40002,4
0.0,0.0,0.0,21711,11354,9621,11304,39917,4
0.0,0.0,0.0,21711,11354,9621,11304,39917,4
0.0,0.0,0.0,21648,11341,9621,11304,39874,4
0.0,0.0,0.0,21711,11354,9621,11280,39832,4
0.0,0.0,0.0,21669,11354,9621,11304,39790,4
0.0,0.0,0.0,21711,11354,9621,11280,39832,4
0.0,0.0,0.0,21711,11354,9621,11280,39832,4
0.0,0.0,0.0,21648,11366,9599,11292,39705,4
0.0,0.0,0.0,21627,11366,9621,11304,39747,4
0.0,0.0,0.0,21584,11354,9621,11292,39705,4
0.0,0.0,0.0,21479,11354,9621,11304,39663,4
0.0,0.0,0.0,21416,11329,9621,11304,39578,4
0.0,0.0,0.0,21458,11354,9621,11304,39494,4
0.0,0.0,0.0,21458,11354,9621,11292,39411,4
0.0,0.0,0.0,21479,11354,9599,11304,39369,4
0.0,0.0,0.0,21395,11366,9599,11268,39327,4
0.0,0.0,0.0,21500,11354,9621,11268,39411,4
0.0,0.0,0.0,21479,11354,9621,11280,39494,4
0.0,0.0,0.0,21458,11354,9621,11304,39327,4
0.0,0.0,0.0,21458,11354,9621,11304,39452,4
0.0,0.0,0.0,21458,11354,9621,11280,39494,4
0.0,0.0,0.0,21479,11354,9610,11292,39494,4
0.0,0.0,0.0,21437,11317,9621,11304,39369,4
0.0,0.0,0.0,21458,11329,9621,11304,39327,4
0.0,0.0,0.0,21458,11317,9621,11304,39411,4
0.0,0.0,0.0,21458,11317,9621,11317,39285,4
0.0,0.0,0.0,21458,11329,9599,11304,39327,4
0.0,0.0,0.0,21416,11317,9599,11317,39285,4
0.0,0.0,0.0,21416,11354,9599,11304,39160,4
0.0,0.0,0.0,21375,11354,9621,11304,39160,4
0.0,0.0,0.0,21395,11329,9621,11304,39077,4
0.0,0.0,0.0,21437,11354,9621,11304,39202,4
0.0,0.0,0.0,21458,11329,9610,11292,39244,4
0.0,0.0,0.0,21416,11366,9621,11304,39244,4
0.0,0.0,0.0,21458,11317,9621,11304,39369,4
0.0,0.0,0.0,21479,11354,9643,11304,39327,4
0.0,0.0,0.0,21416,11354,9621,11304,39285,4
0.0,0.0,0.0,21416,11354,9621,11304,39244,4
0.0,0.0,0.0,21458,11366,9621,11304,39244,4
0.0,0.0,0.0,21416,11354,9621,11304,39244,4
0.0,0.0,0.0,21437,11354,9666,11304,39411,4
0.0,0.0,0.0,21479,11354,9621,11304,39244,4
0.0,0.0,0.0,21458,11354,9599,11304,39244,4
0.0,0.0,0.0,21437,11354,9621,11304,39327,4
0.0,0.0,0.0,21416,11366,9621,11280,39244,4
0.0,0.0,0.0,21375,11403,9621,11304,39077,4
0.0,0.0,0.0,21375,11403,9621,11280,39119,4
0.0,0.0,0.0,21458,11428,9621,11268,39160,4
0.0,0.0,0.0,21416,11416,9599,11304,39077,4
0.0,0.0,0.0,21375,11428,9621,11280,39160,4
0.0,0.0,0.0,21395,11416,9621,11280,39160,4
0.0,0.0,0.0,21416,11428,9621,11280,39160,4
0.0,0.0,0.0,21437,11428,9621,11280,39160,4
0.0,0.0,0.0,21416,11403,9621,11280,39077,4
0.0,0.0,0.0,21395,11416,9621,11280,39160,4
0.0,0.0,0.0,21375,11403,9621,11304,39036,4
0.0,0.0,0.0,21458,11391,9599,11304,39077,4
0.0,0.0,0.0,21395,11416,9621,11280,39077,4
0.0,0.0,0.0,21354,11416,9599,11304,39077,4
0.0,0.0,0.0,21416,11428,9599,11280,39119,4
0.0,0.0,0.0,21375,11416,9621,11304,39077,4
0.0,0.0,0.0,21375,11403,9610,11292,39077,4
0.0,0.0,0.0,21333,11428,9621,11268,39036,4
0.0,0.0,0.0,21416,11403,9610,11280,39077,4
0.0,0.0,0.0,21395,11403,9621,11280,39036,4
0.0,0.0,0.0,21395,11403,9621,11280,38995,4
0.0,0.0,0.0,21333,11403,9621,11280,38995,4
0.0,0.0,0.0,21375,11403,9621,11268,38995,4
0.0,0.0,0.0,21375,11403,9632,11268,39119,4
0.0,0.0,0.0,21333,11416,9621,11268,39077,4
0.0,0.0,0.0,21312,11403,9621,11280,39077,4
0.0,0.0,0.0,21395,11403,9621,11280,39160,4
0.0,0.0,0.0,21375,11403,9621,11280,38995,4
0.0,0.0,0.0,21375,11416,9621,11280,38995,4
0.0,0.0,0.0,21333,11403,9621,11292,38995,4
0.0,0.0,0.0,21312,11428,9621,11280,38995,4
0.0,0.0,0.0,21312,11403,9588,11231,38912,4
0.0,0.0,0.0,21354,11428,9621,11268,38995,4
0.0,0.0,0.0,21333,11416,9621,11268,38995,4
0.0,0.0,0.0,21375,11403,9621,11280,39036,4
0.0,0.0,0.0,21333,11403,9610,11268,38995,4
0.0,0.0,0.0,21375,11379,9621,11292,38995,4
0.0,0.0,0.0,21416,11416,9621,11268,38953,4
0.0,0.0,0.0,21416,11403,9621,11268,38953,4
0.0,0.0,0.0,21333,11416,9621,11280,39077,4
0.0,0.0,0.0,21375,11403,9621,11255,38953,4
0.0,0.0,0.0,21333,11403,9621,11280,39036,4
0.0,0.0,0.0,21375,11403,9621,11255,38995,4
0.0,0.0,0.0,21416,11428,9621,11280,39077,4
0.0,0.0,0.0,21416,11403,9610,11255,39244,4
0.0,0.0,0.0,21416,11416,9621,11268,39244,4
0.0,0.0,0.0,21416,11403,9621,11280,39077,4
0.0,0.0,0.0,21375,11416,9621,11280,39077,4
0.0,0.0,0.0,21395,11403,9621,11268,39077,4
0.0,0.0,0.0,21333,11403,9621,11255,39036,4
0.0,0.0,0.0,21375,11403,9621,11268,39077,4
0.0,0.0,0.0,21375,11428,9621,11280,38995,4
0.0,0.0,0.0,21395,11403,9621,11268,39036,4
0.0,0.0,0.0,21416,11403,9621,11280,38995,4
0.0,0.0,0.0,21375,11403,9610,11268,38830,4
0.0,0.0,0.0,21395,11403,9621,11255,38748,4
0.0,0.0,0.0,21375,11416,9610,11280,38953,4
0.0,0.0,0.0,21375,11416,9621,11280,38871,4
0.0,0.0,0.0,21375,11403,9610,11292,38830,4
0.0,0.0,0.0,21375,11416,9621,11268,38830,4
0.0,0.0,0.0,21375,11403,9621,11280,38912,4
0.0,0.0,0.0,21375,11403,9621,11255,38789,4
0.0,0.0,0.0,21375,11403,9621,11280,38789,4
0.0,0.0,0.0,21375,11403,9621,11268,38830,4
0.0,0.0,0.0,21333,11391,9621,11280,38912,4
0.0,0.0,0.0,21333,11416,9621,11280,38830,4
0.0,0.0,0.0,21312,11416,9621,11280,38830,4
0.0,0.0,0.0,21333,11403,9621,11255,38789,4
0.0,0.0,0.0,21354,11403,9621,11292,38871,4
0.0,0.0,0.0,21333,11403,9599,11280,38830,4
0.0,0.0,0.0,21312,11403,9621,11280,38871,4
0.0,0.0,0.0,21354,11403,9621,11292,38830,4
0.0,0.0,0.0,21333,11403,9621,11280,38830,4
0.0,0.0,0.0,21312,11391,9621,11280,38789,4
0.0,0.0,0.0,21312,11379,9621,11280,38871,4
0.0,0.0,0.0,21291,11366,9621,11268,38830,4
0.0,0.0,0.0,21291,11403,9621,11280,38830,4
0.0,0.0,0.0,21208,11366,9621,11268,38871,4
0.0,0.0,0.0,21125,11403,9621,11317,38503,4
0.0,0.0,0.0,21043,11478,9733,11354,38019,4
0.0,0.0,0.0,20798,11478,10186,11403,37583,4
0.0,0.0,0.0,20716,11515,10094,11403,36959,4
0.0,0.0,0.0,20636,11528,10071,11379,36538,4
0.0,0.0,0.0,20656,11528,9958,11403,35898,4
0.0,0.0,0.0,20595,11553,9755,11403,35272,4
0.0,0.0,0.0,20575,11528,9710,11403,34982,4
0.0,0.0,0.0,20555,11465,9643,11403,34731,4
0.0,0.0,0.0,20495,11465,9621,11403,34696,4
0.0,0.0,0.0,20636,11453,9621,11379,34910,4
0.0,0.0,0.0,20595,11403,9621,11379,34839,4
0.0,0.0,0.0,20636,11416,9621,11366,34982,4
0.0,0.0,0.0,20636,11416,9621,11354,34874,4
0.0,0.0,0.0,20696,11403,9621,11354,34982,4
0.0,0.0,0.0,20696,11416,9599,11379,34982,4
0.0,0.0,0.0,20656,11403,9621,11354,34910,4
0.0,0.0,0.0,20636,11391,9621,11354,34910,4
0.0,0.0,0.0,20676,11403,9599,11317,35199,4
0.0,0.0,0.0,20676,11403,9621,11329,35127,4
0.0,0.0,0.0,20636,11379,9621,11354,35418,4
0.0,0.0,0.0,20676,11379,9621,11354,35528,4
0.0,0.0,0.0,20798,11403,9621,11354,35676,4
0.0,0.0,0.0,20798,11366,9621,11354,35565,4
0.0,0.0,0.0,20818,11379,9621,11341,35492,4
0.0,0.0,0.0,20981,11403,9621,11354,35492,4
0.0,0.0,0.0,20981,11428,9621,11354,35345,4
0.0,0.0,0.0,20961,11428,9632,11329,35418,4
0.0,0.0,0.0,20920,11453,9621,11329,35712,4
0.0,0.0,0.0,20879,11428,9621,11304,35824,4
0.0,0.0,0.0,20879,11453,9632,11304,35861,4
0.0,0.0,0.0,20838,11453,9632,11304,36010,4
0.0,0.0,0.0,20798,11416,9643,11304,35935,4
0.0,0.0,0.0,20838,11453,9621,11304,35935,4
0.0,0.0,0.0,20818,11453,9621,11304,35639,4
0.0,0.0,0.0,20879,11428,9621,11304,35639,4
0.0,0.0,0.0,20940,11416,9621,11304,35639,4
0.0,0.0,0.0,20899,11403,9632,11304,35712,4
0.0,0.0,0.0,20899,11403,9621,11304,35492,4
0.0,0.0,0.0,20818,11403,9621,11304,35455,4
0.0,0.0,0.0,20838,11379,9621,11304,35455,4
0.0,0.0,0.0,20859,11379,9621,11280,35455,4
0.0,0.0,0.0,20981,11354,9621,11317,35418,4
0.0,0.0,0.0,20981,11478,9733,11317,35127,4
0.0,0.0,0.0,20981,11453,9710,11304,35127,4
0.0,0.0,0.0,20818,11453,9666,11329,35055,4
0.0,0.0,0.0,20879,11428,9666,11304,34982,4
0.0,0.0,0.0,20798,11403,9654,11317,34910,4
0.0,0.0,0.0,20798,11379,9666,11317,34839,4
0.0,0.0,0.0,20716,11354,9677,11304,34874,4
0.0,0.0,0.0,20696,11354,9710,11304,34731,4
0.0,0.0,0.0,20676,11317,9677,11317,34696,4
0.0,0.0,0.0,20676,11317,9677,11304,34660,4
0.0,0.0,0.0,20656,11304,9688,11304,34624,4
0.0,0.0,0.0,20676,11304,9677,11304,34731,4
0.0,0.0,0.0,20595,11280,9666,11317,34696,4
0.0,0.0,0.0,20636,11329,9688,11317,34731,4
0.0,0.0,0.0,20595,11304,9666,11304,34696,4
0.0,0.0,0.0,20636,11292,9666,11304,34767,4
0.0,0.0,0.0,20636,11304,9666,11317,34731,4
0.0,0.0,0.0,20636,11280,9666,11304,34839,4
0.0,0.0,0.0,20575,11292,9666,11317,34731,4
0.0,0.0,0.0,20636,11304,9666,11304,34839,4
0.0,0.0,0.0,20656,11304,9654,11304,34731,4
0.0,0.0,0.0,20615,11304,9621,11304,34803,4
0.0,0.0,0.0,20636,11304,9643,11317,34839,4
0.0,0.0,0.0,20636,11317,9621,11304,34982,4
0.0,0.0,0.0,20676,11317,9643,11304,35055,4
0.0,0.0,0.0,20636,11304,9643,11304,35127,4
0.0,0.0,0.0,20676,11304,9632,11317,35199,4
0.0,0.0,0.0,20676,11329,9632,11280,35163,4
0.0,0.0,0.0,20676,11304,9621,11304,35236,4
0.0,0.0,0.0,20716,11304,9621,11304,35199,4
0.0,0.0,0.0,20716,11329,9666,11304,35163,4
0.0,0.0,0.0,20716,11329,9643,11304,35272,4
0.0,0.0,0.0,20716,11329,9666,11304,35272,4
0.0,0.0,0.0,20716,11354,9666,11304,35455,4
0.0,0.0,0.0,20716,11354,9621,11280,35492,4
0.0,0.0,0.0,20716,11354,9643,11280,35492,4
0.0,0.0,0.0,20716,11354,9621,11280,35528,4
0.0,0.0,0.0,20716,11354,9654,11304,35418,4
0.0,0.0,0.0,20716,11354,9643,11280,35712,4
0.0,0.0,0.0,20716,11379,9621,11280,35861,4
0.0,0.0,0.0,20716,11391,9643,11280,36386,4
0.0,0.0,0.0,20716,11416,9632,11280,36348,4
0.0,0.0,0.0,20676,11428,9643,11280,36348,4
0.0,0.0,0.0,20636,11379,9643,11268,35787,4
0.0,0.0,0.0,20595,11366,9632,11280,35712,4
0.0,0.0,0.0,20575,11354,9643,11268,35602,4
0.0,0.0,0.0,20595,11354,9666,11280,35639,4
0.0,0.0,0.0,20575,11354,9643,11280,35565,4
0.0,0.0,0.0,20555,11354,9621,11268,35565,4
0.0,0.0,0.0,20555,11304,9643,11268,35455,4
0.0,0.0,0.0,20555,11317,9621,11304,35492,4
0.0,0.0,0.0,20555,11329,9643,11280,35639,4
0.0,0.0,0.0,20615,11304,9632,11268,35565,4
0.0,0.0,0.0,20595,11317,9621,11255,35676,4
0.0,0.0,0.0,20595,11354,9643,11280,35749,4
0.0,0.0,0.0,20575,11341,9621,11255,35861,4
0.0,0.0,0.0,20555,11354,9643,11255,35861,4
0.0,0.0,0.0,20575,11354,9621,11255,35861,4
0.0,0.0,0.0,20595,11354,9621,11268,35861,4
0.0,0.0,0.0,20555,11379,9621,11280,35898,4
0.0,0.0,0.0,20555,11354,9621,11255,35861,4
0.0,0.0,0.0,20555,11354,9621,11268,35861,4
0.0,0.0,0.0,20575,11366,9621,11255,36010,4
0.0,0.0,0.0,20595,11354,9621,11268,36010,4
0.0,0.0,0.0,20636,11366,9621,11255,35935,4
0.0,0.0,0.0,20636,11403,9621,11280,36010,4
0.0,0.0,0.0,20656,11403,9643,11268,35935,4
0.0,0.0,0.0,20575,11366,9621,11268,36085,4
0.0,0.0,0.0,20636,11403,9621,11268,35972,4
0.0,0.0,0.0,20595,11403,9610,11268,35935,4
0.0,0.0,0.0,20636,11403,9621,11268,35935,4
0.0,0.0,0.0,20575,11403,9621,11280,35749,4
0.0,0.0,0.0,20575,11379,9621,11268,35824,4
0.0,0.0,0.0,20555,11366,9621,11280,35712,4
0.0,0.0,0.0,20555,11403,9621,11280,35824,4
0.0,0.0,0.0,20575,11403,9621,11255,35712,4
0.0,0.0,0.0,20555,11379,9621,11280,35824,4
0.0,0.0,0.0,20515,11403,9621,11255,35712,4
0.0,0.0,0.0,20515,11379,9621,11280,35861,4
0.0,0.0,0.0,20555,11379,9621,11255,35712,4
0.0,0.0,0.0,20555,11403,9621,11255,35787,4
0.0,0.0,0.0,20555,11379,9621,11255,36010,4
0.0,0.0,0.0,20555,11379,9632,11292,35935,4
0.0,0.0,0.0,20535,11403,9621,11255,35898,4
0.0,0.0,0.0,20555,11379,9621,11255,35898,4
0.0,0.0,0.0,20495,11403,9621,11255,35861,4
0.0,0.0,0.0,20495,11403,9621,11255,35898,4
0.0,0.0,0.0,20455,11379,9621,11255,35972,4
0.0,0.0,0.0,20495,11379,9621,11255,35861,4
0.0,0.0,0.0,20475,11379,9621,11268,35861,4
0.0,0.0,0.0,20495,11317,9845,11268,35861,4
0.0,0.0,0.0,20475,11354,9744,11268,35676,4
0.0,0.0,0.0,20435,11354,9777,11268,35787,4
0.0,0.0,0.0,20415,11317,9867,11280,35712,4
0.0,0.0,0.0,20475,11341,9867,11280,35565,4
0.0,0.0,0.0,20435,11304,9755,11292,35565,4
0.0,0.0,0.0,20395,11317,9721,11304,35163,4
0.0,0.0,0.0,20395,11366,9666,11317,34803,4
0.0,0.0,0.0,20475,11416,9632,11354,34341,4
0.0,0.0,0.0,20495,11379,9621,11354,34130,4
0.0,0.0,0.0,20415,11354,9621,11341,33887,4
0.0,0.0,0.0,20335,11329,9610,11354,33921,4
0.0,0.0,0.0,20335,11304,9621,11329,34200,4
0.0,0.0,0.0,20395,11280,9621,11317,34130,4
0.0,0.0,0.0,20395,11304,9621,11304,34341,4
0.0,0.0,0.0,20395,11280,9621,11304,34271,4
0.0,0.0,0.0,20335,11304,9621,11341,34235,4
0.0,0.0,0.0,20375,11304,9621,11329,34165,4
0.0,0.0,0.0,20395,11304,9621,11304,34200,4
0.0,0.0,0.0,20435,11280,9621,11304,34130,4
0.0,0.0,0.0,20435,11304,9621,11304,34130,4
0.0,0.0,0.0,20395,11304,9599,11304,34271,4
0.0,0.0,0.0,20395,11304,9621,11304,34306,4
0.0,0.0,0.0,20395,11280,9621,11304,34376,4
0.0,0.0,0.0,20415,11304,9599,11304,34341,4
0.0,0.0,0.0,20475,11292,9621,11304,34482,4
0.0,0.0,0.0,20475,11292,9621,11280,34553,4
0.0,0.0,0.0,20415,11292,9621,11292,34624,4
0.0,0.0,0.0,20395,11304,9621,11304,34767,4
0.0,0.0,0.0,20455,11304,9621,11268,34839,4
0.0,0.0,0.0,20395,11304,9621,11280,34910,4
0.0,0.0,0.0,20415,11304,9621,11206,34839,4
0.0,0.0,0.0,20395,11280,9621,11292,34982,4
0.0,0.0,0.0,20475,11268,9632,11280,35018,4
0.0,0.0,0.0,20415,11304,9621,11268,35055,4
0.0,0.0,0.0,20395,11268,9621,11268,35127,4
0.0,0.0,0.0,20415,11317,9621,11255,35199,4
0.0,0.0,0.0,20455,11354,9733,11280,35418,4
0.0,0.0,0.0,20435,11391,9721,11280,35492,4
0.0,0.0,0.0,20435,11453,9666,11280,36462,4
0.0,0.0,0.0,20475,11478,9621,11292,37230,4
0.0,0.0,0.0,20515,11366,9621,11403,38180,4
0.0,0.0,0.0,20716,11255,9621,11379,37781,4
0.0,0.0,0.0,20838,11157,9621,11379,37860,4
0.0,0.0,0.0,21043,11109,9632,11366,37701,4
0.0,0.0,0.0,21187,11012,9621,11379,37386,4
0.0,0.0,0.0,21354,10987,9610,11403,36690,4
0.0,0.0,0.0,21354,10987,9643,11453,36386,4
0.0,0.0,0.0,21291,10987,9935,11453,36085,4
0.0,0.0,0.0,21208,10963,9935,11440,36160,4
0.0,0.0,0.0,21208,10963,9755,11453,35824,4
0.0,0.0,0.0,21187,10987,9688,11453,35749,4
0.0,0.0,0.0,21125,10999,9643,11465,35749,4
0.0,0.0,0.0,21002,10987,9621,11403,36386,4
0.0,0.0,0.0,21043,10987,9621,11403,35935,4
0.0,0.0,0.0,20961,11012,9621,11391,36160,4
0.0,0.0,0.0,20981,11036,9621,11403,36047,4
0.0,0.0,0.0,20961,11036,9621,11379,36538,4
0.0,0.0,0.0,20879,11048,9621,11354,36767,4
0.0,0.0,0.0,20879,11060,9610,11317,36920,4
0.0,0.0,0.0,20879,11109,9599,11317,36882,4
0.0,0.0,0.0,20798,11084,9621,11304,36767,4
0.0,0.0,0.0,20818,11109,9621,11304,36843,4
0.0,0.0,0.0,20757,11109,9621,11304,36843,4
0.0,0.0,0.0,20818,11121,9621,11304,36690,4
0.0,0.0,0.0,20777,11145,9599,11317,36690,4
0.0,0.0,0.0,20838,11121,9621,11317,36690,4
0.0,0.0,0.0,20798,11157,9588,11329,36959,4
0.0,0.0,0.0,20798,11182,9621,11317,36843,4
0.0,0.0,0.0,20798,11206,9621,11317,37075,4
0.0,0.0,0.0,20798,11219,9621,11317,36998,4
0.0,0.0,0.0,20757,11206,9621,11317,36959,4
0.0,0.0,0.0,20777,11255,9621,11317,37075,4
0.0,0.0,0.0,20798,11255,9621,11304,36843,4
0.0,0.0,0.0,20818,11231,9632,11304,37036,4
0.0,0.0,0.0,20798,11255,9621,11304,37465,4
0.0,0.0,0.0,20777,11292,9621,11317,37269,4
0.0,0.0,0.0,20818,11304,9621,11317,37269,4
0.0,0.0,0.0,20859,11304,9621,11304,37940,4
0.0,0.0,0.0,20879,11255,9643,11317,37662,4
0.0,0.0,0.0,20920,11255,9621,11304,37701,4
0.0,0.0,0.0,20961,11243,9621,11304,37386,4
0.0,0.0,0.0,20981,11243,9621,11354,37308,4
0.0,0.0,0.0,20961,11170,9621,11304,37622,4
0.0,0.0,0.0,20981,11072,9621,11304,37543,4
0.0,0.0,0.0,20981,11060,9599,11268,37900,4
0.0,0.0,0.0,21043,11012,9621,11268,37583,4
0.0,0.0,0.0,20920,11036,9621,11255,37543,4
0.0,0.0,0.0,20899,11060,9621,11255,37900,4
0.0,0.0,0.0,20920,11060,9588,11255,38100,4
0.0,0.0,0.0,20899,11072,9621,11268,37860,4
0.0,0.0,0.0,20920,11084,9621,11255,37820,4
0.0,0.0,0.0,20961,11109,9621,11255,38100,4
0.0,0.0,0.0,20920,11084,9621,11268,37860,4
0.0,0.0,0.0,20961,11084,9621,11255,37781,4
0.0,0.0,0.0,20961,11109,9621,11255,37701,4
0.0,0.0,0.0,20879,11109,9621,11231,37583,4
0.0,0.0,0.0,20879,11084,9599,11255,37583,4
0.0,0.0,0.0,20920,11109,9621,11243,37465,4
0.0,0.0,0.0,20879,11121,9621,11255,37543,4
0.0,0.0,0.0,20899,11133,9621,11255,37347,4
0.0,0.0,0.0,20899,11157,9621,11268,37465,4
0.0,0.0,0.0,20961,11182,9621,11268,37543,4
0.0,0.0,0.0,20940,11170,9621,11255,37465,4
0.0,0.0,0.0,20879,11182,9621,11268,37308,4
0.0,0.0,0.0,20879,11157,9621,11255,37308,4
0.0,0.0,0.0,20818,11170,9621,11231,37426,4
0.0,0.0,0.0,20818,11157,9621,11268,37386,4
0.0,0.0,0.0,20798,11206,9621,11255,37426,4
0.0,0.0,0.0,20798,11206,9621,11255,37308,4
0.0,0.0,0.0,20737,11219,9621,11255,37230,4
0.0,0.0,0.0,20777,11219,9599,11255,37230,4
0.0,0.0,0.0,20737,11231,9621,11255,37114,4
0.0,0.0,0.0,20757,11255,9621,11255,37308,4
0.0,0.0,0.0,20716,11280,9599,11255,37114,4
0.0,0.0,0.0,20757,11280,9621,11255,37269,4
0.0,0.0,0.0,20716,11304,9621,11255,37152,4
0.0,0.0,0.0,20716,11317,9621,11255,37230,4
0.0,0.0,0.0,20716,11304,9621,11243,37230,4
0.0,0.0,0.0,20716,11317,9621,11231,37386,4
0.0,0.0,0.0,20716,11304,9621,11219,37269,4
0.0,0.0,0.0,20676,11304,9632,11255,37386,4
0.0,0.0,0.0,20636,11354,9621,11219,37269,4
0.0,0.0,0.0,20716,11379,9621,11219,37386,4
0.0,0.0,0.0,20676,11528,9621,11194,38019,4
0.0,0.0,0.0,20636,12086,9621,11231,38503,4
0.0,0.0,0.0,20716,12267,9755,11255,38585,4
0.0,0.0,0.0,20716,12743,10117,11268,38585,4
0.0,0.0,0.0,20737,12851,10383,11317,38463,4
0.0,0.0,0.0,20818,12864,10617,11391,38341,4
0.0,0.0,0.0,20798,12905,10629,11416,38180,4
0.0,0.0,0.0,20757,13027,10653,11453,38220,4
0.0,0.0,0.0,20757,12972,10664,11428,38100,4
0.0,0.0,0.0,20716,12986,10843,11528,38019,4
0.0,0.0,0.0,20737,12986,10879,11553,38019,4
0.0,0.0,0.0,20716,12945,10891,11578,37860,4
0.0,0.0,0.0,20636,12972,10867,11553,37940,4
0.0,0.0,0.0,20757,13205,10867,11565,37980,4
0.0,0.0,0.0,20737,13205,10867,11553,38019,4
0.0,0.0,0.0,20716,13081,10855,11553,38180,4
0.0,0.0,0.0,20716,12905,10843,11553,38059,4
0.0,0.0,0.0,20716,12743,10795,11553,38100,4
0.0,0.0,0.0,20737,12703,10795,11528,38100,4
0.0,0.0,0.0,20676,12636,10783,11528,38220,4
0.0,0.0,0.0,20716,12649,10748,11503,38100,4
0.0,0.0,0.0,20716,12583,10724,11503,38301,4
0.0,0.0,0.0,20737,12556,10724,11478,38019,4
0.0,0.0,0.0,20737,12556,10700,11478,38019,4
0.0,0.0,0.0,20696,12556,10700,11478,38059,4
0.0,0.0,0.0,20716,12530,10676,11478,38019,4
0.0,0.0,0.0,20676,12530,10676,11453,38019,4
0.0,0.0,0.0,20737,12372,10676,11478,38220,4
0.0,0.0,0.0,20777,12163,10535,11465,38341,4
0.0,0.0,0.0,20716,12112,10488,11416,37940,4
0.0,0.0,0.0,20798,12086,10464,11403,38019,4
0.0,0.0,0.0,20777,12112,10441,11403,37820,4
0.0,0.0,0.0,20716,12112,10418,11366,37781,4
0.0,0.0,0.0,20798,12112,10441,11379,37741,4
0.0,0.0,0.0,20737,12073,10441,11379,37701,4
0.0,0.0,0.0,20636,12163,10453,11379,37940,4
0.0,0.0,0.0,20615,12810,10676,11465,38019,4
0.0,0.0,0.0,20656,13040,10915,11515,37900,4
0.0,0.0,0.0,20676,13205,10987,11553,37781,4
0.0,0.0,0.0,20636,13122,11060,11578,37701,4
0.0,0.0,0.0,20636,13232,11109,11653,37781,4
0.0,0.0,0.0,20676,13081,11133,11665,37860,4
0.0,0.0,0.0,20676,13081,11170,11754,37820,4
0.0,0.0,0.0,20696,13040,11157,11779,37980,4
0.0,0.0,0.0,20656,12905,11109,11779,37900,4
0.0,0.0,0.0,20676,12824,11048,11716,37980,4
0.0,0.0,0.0,20636,12756,11024,11741,37900,4
0.0,0.0,0.0,20595,12716,11012,11728,37860,4
0.0,0.0,0.0,20656,12690,10987,11716,37860,4
0.0,0.0,0.0,20636,12690,10975,11716,37781,4
0.0,0.0,0.0,20676,12690,10963,11691,37781,4
0.0,0.0,0.0,20676,12716,10963,11678,37781,4
0.0,0.0,0.0,20636,12690,10951,11665,37701,4
0.0,0.0,0.0,20615,12649,10963,11678,37701,4
0.0,0.0,0.0,20636,12703,10927,11678,37543,4
0.0,0.0,0.0,20615,12690,10963,11653,37543,4
0.0,0.0,0.0,20595,12690,10963,11665,37426,4
0.0,0.0,0.0,20595,12730,10915,11665,37426,4
0.0,0.0,0.0,20615,12703,10927,11678,37465,4
0.0,0.0,0.0,20575,12743,10939,11678,37426,4
0.0,0.0,0.0,20575,12730,10927,11678,37504,4
0.0,0.0,0.0,20555,12716,10915,11665,37426,4
0.0,0.0,0.0,20555,12663,10915,11653,37308,4
0.0,0.0,0.0,20636,12663,10891,11653,37543,4
0.0,0.0,0.0,20555,12610,10831,11603,37269,4
0.0,0.0,0.0,20475,12610,10819,11628,37230,4
0.0,0.0,0.0,20495,12596,10819,11603,37269,4
0.0,0.0,0.0,20495,12610,10819,11653,37191,4
0.0,0.0,0.0,20515,12610,10819,11578,37230,4
0.0,0.0,0.0,20415,12636,10795,11653,37075,4
0.0,0.0,0.0,20415,12663,10807,11615,37308,4
0.0,0.0,0.0,20475,12649,10819,11603,37386,4
0.0,0.0,0.0,20495,12636,10795,11603,37662,4
0.0,0.0,0.0,20495,12636,10819,11578,37622,4
0.0,0.0,0.0,20555,12583,10819,11578,37543,4
0.0,0.0,0.0,20475,12636,10795,11603,37347,4
0.0,0.0,0.0,20495,12610,10795,11578,37386,4
0.0,0.0,0.0,20495,12636,10819,11603,37386,4
0.0,0.0,0.0,20495,12636,10795,11578,37426,4
0.0,0.0,0.0,20475,12649,10795,11565,37308,4
0.0,0.0,0.0,20475,12636,10819,11578,37386,4
0.0,0.0,0.0,20475,12690,10795,11590,37386,4
0.0,0.0,0.0,20455,12703,10795,11565,37230,4
0.0,0.0,0.0,20435,12690,10795,11578,37308,4
0.0,0.0,0.0,20475,12716,10795,11578,37308,4
0.0,0.0,0.0,20395,12743,10795,11565,37230,4
0.0,0.0,0.0,20475,12756,10783,11603,37308,4
0.0,0.0,0.0,20415,12743,10795,11603,37269,4
0.0,0.0,0.0,20455,12756,10783,11578,37347,4
0.0,0.0,0.0,20435,12770,10795,11578,37230,4
0.0,0.0,0.0,20435,12743,10783,11565,37386,4
0.0,0.0,0.0,20395,12743,10795,11578,37269,4
0.0,0.0,0.0,20435,12743,10771,11603,37269,4
0.0,0.0,0.0,20395,12770,10783,11553,37230,4
0.0,0.0,0.0,20395,12770,10771,11565,37230,4
0.0,0.0,0.0,20395,12756,10783,11578,37269,4
0.0,0.0,0.0,20435,12743,10771,11578,37230,4
0.0,0.0,0.0,20435,12743,10771,11565,37230,4
0.0,0.0,0.0,20395,12716,10795,11578,37114,4
0.0,0.0,0.0,20375,12743,10795,11565,37114,4
0.0,0.0,0.0,20395,12716,10783,11565,37036,4
0.0,0.0,0.0,20395,12690,10771,11578,37075,4
0.0,0.0,0.0,20415,12676,10771,11565,37075,4
0.0,0.0,0.0,20335,12663,10771,11528,36998,4
0.0,0.0,0.0,20335,12649,10771,11578,36998,4
0.0,0.0,0.0,20335,12636,10783,11565,37075,4
0.0,0.0,0.0,20315,12610,10771,11553,36843,4
0.0,0.0,0.0,20315,12636,10783,11553,36920,4
0.0,0.0,0.0,20335,12583,10807,11553,36843,4
0.0,0.0,0.0,20335,12610,10831,11590,36920,4
0.0,0.0,0.0,20275,12596,10819,11628,36920,4
0.0,0.0,0.0,20275,12610,10819,11603,36920,4
0.0,0.0,0.0,20236,12583,10819,11653,36998,4
0.0,0.0,0.0,20157,12623,10819,11653,36843,4
0.0,0.0,0.0,20176,12636,10819,11653,36843,4
0.0,0.0,0.0,20176,12636,10807,11665,37036,4
0.0,0.0,0.0,20196,12636,10843,11653,37075,4
0.0,0.0,0.0,20236,12636,10807,11653,36998,4
0.0,0.0,0.0,20176,12649,10819,11653,36920,4
0.0,0.0,0.0,20196,12649,10819,11653,36959,4
0.0,0.0,0.0,20216,12636,10819,11628,36920,4
0.0,0.0,0.0,20196,12636,10819,11628,37230,4
0.0,0.0,0.0,20157,12610,10819,11653,36998,4
0.0,0.0,0.0,20176,12596,10819,11653,36882,4
0.0,0.0,0.0,20196,12636,10819,11653,36920,4
0.0,0.0,0.0,20157,12610,10867,11653,36998,4
0.0,0.0,0.0,20157,12918,11416,11804,37191,4
0.0,0.0,0.0,20196,13343,11893,12267,37230,4
0.0,0.0,0.0,20196,13906,12583,13068,37191,4
0.0,0.0,0.0,20196,14326,12972,13454,37230,4
0.0,0.0,0.0,20256,14786,13835,14370,37191,4
0.0,0.0,0.0,20236,14756,14547,15089,37308,4
0.0,0.0,0.0,20256,14488,14922,15490,37308,4
0.0,0.0,0.0,20236,14636,14846,15288,37269,4
0.0,0.0,0.0,20256,14429,14831,15211,37308,4
0.0,0.0,0.0,20236,14429,14907,15104,37308,4
0.0,0.0,0.0,20157,14370,14876,15043,37269,4
0.0,0.0,0.0,20176,14326,14756,14967,37191,4
0.0,0.0,0.0,20236,14224,14621,14907,37308,4
0.0,0.0,0.0,20236,14209,14741,14876,37230,4
0.0,0.0,0.0,20196,14209,14666,14846,37191,4
0.0,0.0,0.0,20196,14108,14547,14786,37230,4
0.0,0.0,0.0,20196,14079,14503,14726,37308,4
0.0,0.0,0.0,20196,14741,14488,14621,37191,4
0.0,0.0,0.0,20216,14636,14429,14488,37426,4
0.0,0.0,0.0,20275,14195,14326,14429,37386,4
0.0,0.0,0.0,20196,14137,14224,14370,37269,4
0.0,0.0,0.0,20176,14166,14209,14370,37308,4
0.0,0.0,0.0,20236,14137,14195,14370,37230,4
0.0,0.0,0.0,20176,14195,14180,14341,37152,4
0.0,0.0,0.0,20176,14137,14108,14311,37230,4
0.0,0.0,0.0,20176,14079,14050,14311,37230,4
0.0,0.0,0.0,20176,14108,14036,14253,37230,4
0.0,0.0,0.0,20216,14050,14021,14224,37386,4
0.0,0.0,0.0,20117,14050,13992,14195,37114,4
0.0,0.0,0.0,20176,14064,13964,14195,37191,4
0.0,0.0,0.0,20176,14050,13964,14166,37075,4
0.0,0.0,0.0,20157,14036,13935,14195,37075,4
0.0,0.0,0.0,20176,14079,13921,14166,37114,4
0.0,0.0,0.0,20216,14036,13892,14079,37114,4
0.0,0.0,0.0,20157,14050,13878,14021,37152,4
0.0,0.0,0.0,20117,14036,13849,13892,37269,4
0.0,0.0,0.0,20176,14064,13849,13849,37152,4
0.0,0.0,0.0,20176,14079,13806,13849,37075,4
0.0,0.0,0.0,20157,14050,13792,13806,37191,4
0.0,0.0,0.0,20236,14021,13792,13806,36998,4
0.0,0.0,0.0,20157,14036,13735,13821,37075,4
0.0,0.0,0.0,20157,13978,13693,13792,36998,4
0.0,0.0,0.0,20157,13992,13679,13764,36998,4
0.0,0.0,0.0,20117,13964,13622,13735,36959,4
0.0,0.0,0.0,20117,13906,13650,13735,37152,4
0.0,0.0,0.0,20157,13878,13566,13622,37230,4
0.0,0.0,0.0,20157,13878,13510,13566,36998,4
0.0,0.0,0.0,20275,13806,13538,13301,37230,4
0.0,0.0,0.0,20395,13806,13454,13177,37114,4
0.0,0.0,0.0,20435,13792,13412,13177,37114,4
0.0,0.0,0.0,20315,13792,13412,13136,36920,4
0.0,0.0,0.0,20315,13749,13357,13136,36920,4
0.0,0.0,0.0,20315,13707,13371,13122,36843,4
0.0,0.0,0.0,20395,13707,13343,13122,36920,4
0.0,0.0,0.0,20395,13679,13343,13013,37191,4
0.0,0.0,0.0,20475,13679,13343,13068,37114,4
0.0,0.0,0.0,20475,13679,13329,13177,36998,4
0.0,0.0,0.0,20415,13693,13260,13122,36920,4
0.0,0.0,0.0,20475,13693,13260,13095,36843,4
0.0,0.0,0.0,20415,13679,13246,13081,36843,4
0.0,0.0,0.0,20355,13735,13260,13122,36767,4
0.0,0.0,0.0,20415,13778,13232,13122,36920,4
0.0,0.0,0.0,20395,13735,13205,13136,36805,4
0.0,0.0,0.0,20395,13735,13246,13122,36805,4
0.0,0.0,0.0,20395,13735,13218,13136,36767,4
0.0,0.0,0.0,20355,13707,13232,13081,36805,4
0.0,0.0,0.0,20355,13707,13232,13122,36767,4
0.0,0.0,0.0,20335,13707,13205,13136,36690,4
0.0,0.0,0.0,20315,13707,13205,13122,36767,4
0.0,0.0,0.0,20275,13679,13136,13510,36805,4
0.0,0.0,0.0,20275,13693,13150,13426,36767,4
0.0,0.0,0.0,20236,13693,13177,13412,36767,4
0.0,0.0,0.0,20275,13679,13136,13343,36805,4
0.0,0.0,0.0,20315,13650,13136,13398,36843,4
0.0,0.0,0.0,20335,13665,13122,13371,36920,4
0.0,0.0,0.0,20395,13679,13122,13343,36959,4
0.0,0.0,0.0,20395,13679,13136,13343,36920,4
0.0,0.0,0.0,20315,13679,13136,13343,37075,4
0.0,0.0,0.0,20335,13650,13122,13454,37230,4
0.0,0.0,0.0,20395,13566,13095,13566,37152,4
0.0,0.0,0.0,20395,13566,13054,13524,37191,4
0.0,0.0,0.0,20375,13538,13068,13524,37075,4
0.0,0.0,0.0,20335,13566,13081,13552,37308,4
0.0,0.0,0.0,20315,13538,13027,13594,37114,4
0.0,0.0,0.0,20315,13566,12905,13594,37230,4
0.0,0.0,0.0,20315,13524,12851,13622,37230,4
0.0,0.0,0.0,20335,13426,12797,13580,37269,4
0.0,0.0,0.0,20315,13398,12743,13566,37269,4
0.0,0.0,0.0,20315,13371,12716,13580,37230,4
0.0,0.0,0.0,20395,13343,12690,13594,37230,4
0.0,0.0,0.0,20315,13371,12649,13566,37075,4
0.0,0.0,0.0,20355,13357,12649,13566,37230,4
0.0,0.0,0.0,20335,13398,12636,13566,37230,4
0.0,0.0,0.0,20275,13398,12610,13566,37075,4
0.0,0.0,0.0,20315,13357,12596,13524,37152,4
0.0,0.0,0.0,20335,13357,12610,13566,37230,4
0.0,0.0,0.0,20315,13371,12543,13566,37075,4
0.0,0.0,0.0,20315,13371,12583,13538,36998,4
0.0,0.0,0.0,20335,13343,12556,13524,37075,4
0.0,0.0,0.0,20315,13357,12583,13538,37230,4
0.0,0.0,0.0,20335,13343,12583,13566,37152,4
0.0,0.0,0.0,20335,13343,12583,13566,37230,4
0.0,0.0,0.0,20335,13301,12543,13552,37075,4
0.0,0.0,0.0,20335,13343,12543,13524,37152,4
0.0,0.0,0.0,20335,13343,12543,13538,37075,4
0.0,0.0,0.0,20315,13343,12543,13524,37075,4
0.0,0.0,0.0,20315,13343,12543,13510,37075,4
0.0,0.0,0.0,20275,13343,12543,13510,36959,4
0.0,0.0,0.0,20275,13343,12543,13510,36959,4
0.0,0.0,0.0,20295,13315,12530,13510,36998,4
0.0,0.0,0.0,20315,13329,12556,13524,37152,4
0.0,0.0,0.0,20335,13343,12543,13510,37075,4
0.0,0.0,0.0,20275,13329,12530,13510,37114,4
0.0,0.0,0.0,20275,13343,12543,13468,37075,4
0.0,0.0,0.0,20256,13343,12543,13510,36920,4
0.0,0.0,0.0,20315,13315,12556,13510,36843,4
0.0,0.0,0.0,20256,13287,12530,13482,36843,4
0.0,0.0,0.0,20295,13301,12490,13426,36843,4
0.0,0.0,0.0,20236,13260,12346,13384,36843,4
0.0,0.0,0.0,20256,13260,12163,13287,36882,4
0.0,0.0,0.0,20256,13122,11855,12986,36843,4
0.0,0.0,0.0,20236,12824,11503,12583,36920,4
0.0,0.0,0.0,20196,12556,10987,12254,37075,4
0.0,0.0,0.0,20196,12424,10795,12009,37036,4
0.0,0.0,0.0,20157,12228,10724,11944,37114,4
0.0,0.0,0.0,20176,12150,10629,11855,37230,4
0.0,0.0,0.0,20098,11817,10325,11754,37230,4
0.0,0.0,0.0,20117,11416,9643,11766,37386,4
0.0,0.0,0.0,19999,11255,9621,11754,37114,4
0.0,0.0,0.0,19999,11206,9610,11703,37036,4
0.0,0.0,0.0,19941,11157,9621,11628,36882,4
0.0,0.0,0.0,19921,11268,9621,11590,36843,4
0.0,0.0,0.0,19921,11280,9610,11603,36843,4
0.0,0.0,0.0,19921,11304,9599,11603,36843,4
0.0,0.0,0.0,19921,11329,9621,11578,36805,4
0.0,0.0,0.0,19921,11354,9621,11553,36805,4
0.0,0.0,0.0,19921,11354,9621,11565,36805,4
0.0,0.0,0.0,19960,11379,9599,11553,36728,4
0.0,0.0,0.0,19941,11354,9632,11603,36767,4
0.0,0.0,0.0,19960,11329,9610,11578,36728,4
0.0,0.0,0.0,19941,11391,9621,11553,36690,4
0.0,0.0,0.0,19941,11403,9632,11553,36767,4
0.0,0.0,0.0,19921,11379,9621,11553,36767,4
0.0,0.0,0.0,19921,11403,9632,11553,36767,4
0.0,0.0,0.0,19921,11416,9621,11553,36690,4
0.0,0.0,0.0,19921,11428,9621,11578,36690,4
0.0,0.0,0.0,19960,11553,9621,11590,36805,4
0.0,0.0,0.0,20236,11665,9621,11578,36767,4
0.0,0.0,0.0,20157,11653,9621,11528,36614,4
0.0,0.0,0.0,20078,11665,9621,11528,36614,4
0.0,0.0,0.0,20117,11703,9599,11553,36614,4
0.0,0.0,0.0,20078,11792,9688,11754,36614,4
0.0,0.0,0.0,20737,12905,11206,13177,36998,4
0.0,0.0,0.0,20798,14036,13040,15242,36728,4
0.0,0.0,0.0,20757,15058,14577,16125,36805,4
0.0,0.0,0.0,20716,15584,14876,15980,36767,4
0.0,0.0,0.0,20716,16417,15647,16093,36843,4
0.0,0.0,0.0,20716,17461,16698,16352,36959,4
0.0,0.0,0.0,20656,17915,17186,16516,36882,4
0.0,0.0,0.0,20716,17289,18562,18075,36998,4
0.0,0.0,0.0,20818,17357,19193,19136,37269,4
0.0,0.0,0.0,20818,17152,18912,19024,37191,4
0.0,0.0,0.0,20818,16681,18746,18894,37230,4
0.0,0.0,0.0,20798,16648,18746,18654,37347,4
0.0,0.0,0.0,20798,16598,18635,18489,37230,4
0.0,0.0,0.0,20716,16417,18344,18344,36998,4
0.0,0.0,0.0,20716,16417,18272,18200,37075,4
0.0,0.0,0.0,20716,16319,18164,18022,37152,4
0.0,0.0,0.0,20716,16303,18057,17845,37075,4
0.0,0.0,0.0,20696,16222,17880,17704,37114,4
0.0,0.0,0.0,20676,16109,17862,17617,37114,4
0.0,0.0,0.0,20676,16093,17757,17495,36920,4
0.0,0.0,0.0,20636,16060,17687,17409,37075,4
0.0,0.0,0.0,20595,15996,17634,17357,36920,4
0.0,0.0,0.0,20595,15932,17513,17289,36920,4
0.0,0.0,0.0,20575,15900,17426,17203,36920,4
0.0,0.0,0.0,20575,15884,17426,17203,37036,4
0.0,0.0,0.0,20595,15852,17357,17169,37075,4
0.0,0.0,0.0,20515,15837,17323,17152,37075,4
0.0,0.0,0.0,20575,15837,17323,17118,37191,4
0.0,0.0,0.0,20595,15821,17289,17084,37075,4
0.0,0.0,0.0,20595,15773,17254,17016,37152,4
0.0,0.0,0.0,20575,16060,17289,16949,36882,4
0.0,0.0,0.0,20595,16157,17289,16949,36920,4
0.0,0.0,0.0,20595,16060,17289,16983,36920,4
0.0,0.0,0.0,20575,16060,17306,17016,36843,4
0.0,0.0,0.0,20555,16028,17392,17530,36767,4
0.0,0.0,0.0,20495,16028,17374,17792,36576,4
0.0,0.0,0.0,20555,16028,17392,17739,36614,4
0.0,0.0,0.0,20515,15980,17340,17634,36499,4
0.0,0.0,0.0,20555,15964,17323,17530,36690,4
0.0,0.0,0.0,20515,15964,17323,17495,36690,4
0.0,0.0,0.0,20555,15916,17289,17565,36843,4
0.0,0.0,0.0,20555,15916,17237,17478,36805,4
0.0,0.0,0.0,20495,15868,17220,17495,36728,4
0.0,0.0,0.0,20575,15868,17272,17478,37152,4
0.0,0.0,0.0,20555,15852,17237,17495,37230,4
0.0,0.0,0.0,20595,15868,17289,17513,37269,4
0.0,0.0,0.0,20555,15900,17220,17495,37114,4
0.0,0.0,0.0,20495,15868,17237,17461,37114,4
0.0,0.0,0.0,20495,15868,17237,17461,36998,4
0.0,0.0,0.0,20555,15837,17220,17426,37036,4
0.0,0.0,0.0,20495,15837,17237,17426,37152,4
0.0,0.0,0.0,20555,15805,17220,17426,37386,4
0.0,0.0,0.0,20636,15837,17186,17443,37386,4
0.0,0.0,0.0,20595,15805,17186,17392,37230,4
0.0,0.0,0.0,20555,15805,17169,17392,37269,4
0.0,0.0,0.0,20595,15789,17152,17357,37308,4
0.0,0.0,0.0,20555,15773,17203,17357,37230,4
0.0,0.0,0.0,20575,15789,17152,17323,37114,4
0.0,0.0,0.0,20636,15773,17118,17289,37269,4
0.0,0.0,0.0,20535,15773,17169,17323,37075,4
0.0,0.0,0.0,20575,15773,17152,17272,37075,4
0.0,0.0,0.0,20555,15773,17118,17272,37075,4
0.0,0.0,0.0,20555,15773,17118,17237,36920,4
0.0,0.0,0.0,20535,15757,17101,17220,36998,4
0.0,0.0,0.0,20555,15773,17084,17186,36920,4
0.0,0.0,0.0,20495,15773,17084,17169,36843,4
0.0,0.0,0.0,20475,15773,17084,17118,36805,4
0.0,0.0,0.0,20475,15773,17084,17084,36843,4
0.0,0.0,0.0,20555,15741,17084,17084,36843,4
0.0,0.0,0.0,20535,15678,17050,17067,36998,4
0.0,0.0,0.0,20515,15741,17016,16983,36843,4
0.0,0.0,0.0,20475,15726,17033,17016,36805,4
0.0,0.0,0.0,20475,15741,17033,17067,36767,4
0.0,0.0,0.0,20435,15663,17016,17067,36805,4
0.0,0.0,0.0,20435,15741,17050,17067,36767,4
0.0,0.0,0.0,20455,15726,17016,17033,36690,4
0.0,0.0,0.0,20415,15710,16999,17016,36767,4
0.0,0.0,0.0,20395,15726,17016,17033,36614,4
0.0,0.0,0.0,20435,15710,16999,17016,36690,4
0.0,0.0,0.0,20435,15678,16983,17016,36767,4
0.0,0.0,0.0,20335,15710,17016,17050,36652,4
0.0,0.0,0.0,20415,15678,17016,16999,36576,4
0.0,0.0,0.0,20395,15678,17016,17016,36576,4
0.0,0.0,0.0,20395,15710,16949,16966,36614,4
0.0,0.0,0.0,20435,15726,17016,16966,36767,4
0.0,0.0,0.0,20395,15710,16966,16966,36614,4
0.0,0.0,0.0,20475,15678,16966,16966,36805,4
0.0,0.0,0.0,20435,15663,17016,17016,36920,4
0.0,0.0,0.0,20435,15647,17016,16999,36690,4
0.0,0.0,0.0,20395,15678,16966,16966,36690,4
0.0,0.0,0.0,20435,15663,17033,17016,36767,4
0.0,0.0,0.0,20395,15647,16949,17016,36690,4
0.0,0.0,0.0,20395,15694,16966,16966,36690,4
0.0,0.0,0.0,20395,15663,16949,16983,36690,4
0.0,0.0,0.0,20415,15647,16949,16966,36690,4
0.0,0.0,0.0,20395,15663,16983,16966,36690,4
0.0,0.0,0.0,20435,15726,16983,16966,36728,4
0.0,0.0,0.0,20335,15663,16932,16983,36614,4
0.0,0.0,0.0,20315,15663,16949,16949,36614,4
0.0,0.0,0.0,20415,15663,16915,16949,36690,4
0.0,0.0,0.0,20395,15647,16983,16966,36843,4
0.0,0.0,0.0,20395,15631,16949,16966,36690,4
0.0,0.0,0.0,20395,15647,16949,16966,36690,4
0.0,0.0,0.0,20415,15647,16915,16949,36767,4
0.0,0.0,0.0,20355,15647,16898,16949,36614,4
0.0,0.0,0.0,20395,15647,16915,16949,36728,4
0.0,0.0,0.0,20335,15647,16949,16966,36728,4
0.0,0.0,0.0,20315,15678,16882,16966,36614,4
0.0,0.0,0.0,20395,15647,16882,16983,36690,4
0.0,0.0,0.0,20395,15647,16882,16966,36805,4
0.0,0.0,0.0,20415,15647,16882,16966,36805,4
0.0,0.0,0.0,20415,15615,16882,16966,36843,4
0.0,0.0,0.0,20415,15710,16831,16966,36690,4
0.0,0.0,0.0,20395,15647,16882,16966,36767,4
0.0,0.0,0.0,20335,15647,16882,16949,36690,4
0.0,0.0,0.0,20375,15584,16882,16983,36843,4
0.0,0.0,0.0,20335,15428,16665,16898,36690,4
0.0,0.0,0.0,20335,14429,15165,15821,36843,4
0.0,0.0,0.0,20335,13964,13849,15089,36998,4
0.0,0.0,0.0,20395,13594,13081,14458,37075,4
0.0,0.0,0.0,20315,13412,12743,14195,37075,4
0.0,0.0,0.0,20256,13260,11983,13510,37152,4
0.0,0.0,0.0,20256,12972,11304,12797,37191,4
0.0,0.0,0.0,20256,12610,10676,12215,37347,4
0.0,0.0,0.0,20196,12320,10394,11855,37543,4
0.0,0.0,0.0,20216,12215,10278,11804,37386,4
0.0,0.0,0.0,20196,12124,10163,11754,37308,4
0.0,0.0,0.0,20176,12060,10083,11716,37114,4
0.0,0.0,0.0,20117,12060,10049,11716,37114,4
0.0,0.0,0.0,20157,12047,10049,11703,37152,4
0.0,0.0,0.0,20176,12060,10049,11678,37075,4
0.0,0.0,0.0,20117,12073,10071,11678,36998,4
0.0,0.0,0.0,20098,12086,10049,11665,37075,4
0.0,0.0,0.0,20157,12073,10071,11678,36998,4
0.0,0.0,0.0,20137,12073,10071,11691,36998,4
0.0,0.0,0.0,20117,12060,10071,11665,37075,4
0.0,0.0,0.0,20117,12060,10071,11665,36959,4
0.0,0.0,0.0,20157,12060,10071,11665,37075,4
0.0,0.0,0.0,20117,12021,10049,11703,36843,4
0.0,0.0,0.0,20157,12034,10026,11665,36882,4
0.0,0.0,0.0,20157,12034,10037,11678,36843,4
0.0,0.0,0.0,20117,11983,10026,11703,36767,4
0.0,0.0,0.0,20117,11919,10003,11703,36690,4
0.0,0.0,0.0,20098,11779,10071,11665,36614,4
0.0,0.0,0.0,20078,11653,10106,11603,36272,4
0.0,0.0,0.0,19960,11628,10117,11590,36160,4
0.0,0.0,0.0,19921,11553,10071,11603,36122,4
0.0,0.0,0.0,19921,11528,10071,11578,36010,4
0.0,0.0,0.0,19921,11453,10014,11553,36010,4
0.0,0.0,0.0,19843,11403,9958,11515,36010,4
0.0,0.0,0.0,19921,11428,9890,11528,36160,4
0.0,0.0,0.0,19960,11403,9856,11515,36047,4
0.0,0.0,0.0,19882,11403,9856,11515,35935,4
0.0,0.0,0.0,19921,11403,9845,11528,36047,4
0.0,0.0,0.0,19921,11416,9845,11515,35898,4
0.0,0.0,0.0,19921,11403,9811,11503,36010,4
0.0,0.0,0.0,19941,11440,9845,11503,35935,4
0.0,0.0,0.0,19921,11453,9811,11503,35935,4
0.0,0.0,0.0,19941,11453,9800,11490,36010,4
0.0,0.0,0.0,19941,11478,9800,11490,35935,4
0.0,0.0,0.0,19960,11453,9800,11503,36010,4
0.0,0.0,0.0,19941,11453,9800,11503,36010,4
0.0,0.0,0.0,19921,11465,9800,11503,35898,4
0.0,0.0,0.0,19941,11503,9800,11490,36010,4
0.0,0.0,0.0,19882,11503,9755,11478,35972,4
0.0,0.0,0.0,19902,11515,9755,11503,35861,4
0.0,0.0,0.0,19882,11503,9755,11478,35935,4
0.0,0.0,0.0,19882,11503,9755,11478,35898,4
0.0,0.0,0.0,19882,11503,9766,11503,35787,4
0.0,0.0,0.0,19921,11540,9766,11478,35861,4
0.0,0.0,0.0,19921,11553,9777,11453,35861,4
0.0,0.0,0.0,19921,11553,9755,11453,35861,4
0.0,0.0,0.0,19921,11565,9755,11465,35898,4
0.0,0.0,0.0,19882,11578,9744,11465,36047,4
0.0,0.0,0.0,19941,11590,9755,11465,36047,4
0.0,0.0,0.0,19921,11615,9777,11453,36085,4
0.0,0.0,0.0,19921,11653,9766,11453,36010,4
0.0,0.0,0.0,19921,11665,9755,11453,36047,4
0.0,0.0,0.0,19941,11678,9766,11453,36085,4
0.0,0.0,0.0,19921,11678,9755,11453,36197,4
0.0,0.0,0.0,19921,11678,9766,11453,36010,4
0.0,0.0,0.0,19921,11716,9755,11453,36085,4
0.0,0.0,0.0,19921,11703,9766,11465,36010,4
0.0,0.0,0.0,19921,11716,9777,11453,35935,4
0.0,0.0,0.0,19921,11766,9800,11453,36085,4
0.0,0.0,0.0,19941,11766,9800,11428,35935,4
0.0,0.0,0.0,19921,11779,9800,11440,35972,4
0.0,0.0,0.0,19941,11766,9800,11428,36010,4
0.0,0.0,0.0,19960,11754,9800,11453,36085,4
0.0,0.0,0.0,19863,11766,9800,11453,35898,4
0.0,0.0,0.0,19882,11741,9800,11453,35898,4
0.0,0.0,0.0,19941,11766,9800,11453,36010,4
0.0,0.0,0.0,19902,11779,9800,11453,35898,4
0.0,0.0,0.0,19921,11779,9800,11428,35972,4
0.0,0.0,0.0,19921,11804,9800,11453,35935,4
0.0,0.0,0.0,19921,11779,9811,11453,35972,4
0.0,0.0,0.0,19921,11804,9811,11465,36010,4
0.0,0.0,0.0,19921,11766,9811,11453,35972,4
0.0,0.0,0.0,19902,11779,9800,11453,35824,4
0.0,0.0,0.0,19882,11754,9800,11453,35861,4
0.0,0.0,0.0,19882,11754,9811,11453,35861,4
0.0,0.0,0.0,19843,11754,9811,11453,35824,4
0.0,0.0,0.0,19746,11754,9811,11453,35712,4
0.0,0.0,0.0,19863,11754,9811,11453,35824,4
0.0,0.0,0.0,19882,11754,9811,11428,35749,4
0.0,0.0,0.0,19824,11754,9845,11428,35861,4
0.0,0.0,0.0,19824,11741,9822,11453,35935,4
0.0,0.0,0.0,19805,11728,9856,11465,35861,4
0.0,0.0,0.0,19805,11653,9912,11416,36047,4
0.0,0.0,0.0,19785,11615,9901,11465,36010,4
0.0,0.0,0.0,19766,11578,9935,11440,35935,4
0.0,0.0,0.0,19689,11553,9935,11428,35861,4
0.0,0.0,0.0,19689,11565,9935,11453,35787,4
0.0,0.0,0.0,19708,11553,9912,11428,35787,4
0.0,0.0,0.0,19689,11553,9901,11453,35861,4
0.0,0.0,0.0,19689,11578,9890,11453,35861,4
0.0,0.0,0.0,19689,11578,9912,11453,35824,4
0.0,0.0,0.0,19650,11578,9878,11465,35787,4
0.0,0.0,0.0,19708,11578,9890,11416,35749,4
0.0,0.0,0.0,19708,11628,9890,11453,35935,4
0.0,0.0,0.0,19843,11628,9890,11453,36499,4
0.0,0.0,0.0,19785,11615,9890,11453,36882,4
0.0,0.0,0.0,19785,11615,9901,11453,37075,4
0.0,0.0,0.0,19689,11628,9890,11465,36728,4
0.0,0.0,0.0,19612,11628,9901,11453,36767,4
0.0,0.0,0.0,19708,11628,9912,11465,37075,4
0.0,0.0,0.0,19727,11628,9935,11503,37741,4
0.0,0.0,0.0,20058,11615,9867,11490,38503,4
0.0,0.0,0.0,20157,11615,9800,11490,38100,4
0.0,0.0,0.0,20176,11703,9777,11453,38100,4
0.0,0.0,0.0,20236,11779,9890,11465,38260,4
0.0,0.0,0.0,20256,11855,9912,11503,38100,4
0.0,0.0,0.0,20256,11830,9901,11490,38100,4
0.0,0.0,0.0,20256,11754,9867,11503,38019,4
0.0,0.0,0.0,20275,11678,9901,11478,37900,4
0.0,0.0,0.0,20196,11603,9878,11490,37860,4
0.0,0.0,0.0,20157,11678,9946,11453,37940,4
0.0,0.0,0.0,20117,11804,10163,11453,37741,4
0.0,0.0,0.0,20157,12009,10163,11465,37701,4
0.0,0.0,0.0,20157,12073,10140,11503,38059,4
0.0,0.0,0.0,20117,12372,10163,11565,37701,4
0.0,0.0,0.0,20157,12556,10441,11578,37347,4
0.0,0.0,0.0,20098,12743,10570,11578,37191,4
0.0,0.0,0.0,20157,13068,10558,11528,37191,4
0.0,0.0,0.0,20117,13510,10511,11553,37114,4
0.0,0.0,0.0,20058,14268,10441,11553,37114,4
0.0,0.0,0.0,19999,14621,10394,11553,37075,4
0.0,0.0,0.0,20078,14429,10406,11578,36998,4
0.0,0.0,0.0,20039,13343,10429,11528,37230,4
0.0,0.0,0.0,20039,13054,10688,11503,37191,4
0.0,0.0,0.0,20098,13177,11109,11490,37230,4
0.0,0.0,0.0,20078,13177,11528,11453,37152,4
0.0,0.0,0.0,20078,13246,12060,11453,37036,4
0.0,0.0,0.0,20098,13232,12530,11453,37152,4
0.0,0.0,0.0,20098,13260,12824,11416,36959,4
0.0,0.0,0.0,20078,13232,13013,11416,36998,4
0.0,0.0,0.0,20019,12986,12543,11403,36998,4
0.0,0.0,0.0,19980,12676,11478,11465,37820,4
0.0,0.0,0.0,19941,12438,10795,11503,37781,4
0.0,0.0,0.0,20236,12215,10535,11603,38100,4
0.0,0.0,0.0,20395,12073,10394,11615,38422,4
0.0,0.0,0.0,20575,11957,10371,11653,38503,4
0.0,0.0,0.0,20475,11919,10325,11615,38422,4
0.0,0.0,0.0,20475,11957,10313,11603,38220,4
0.0,0.0,0.0,20455,11906,10267,11553,38585,4
0.0,0.0,0.0,20475,11957,10290,11578,38503,4
0.0,0.0,0.0,20495,11957,10255,11578,38260,4
0.0,0.0,0.0,20515,12009,10244,11553,38180,4
0.0,0.0,0.0,20555,11996,10209,11553,38019,4
0.0,0.0,0.0,20515,12009,10209,11553,37940,4
0.0,0.0,0.0,20555,12009,10186,11528,37860,4
0.0,0.0,0.0,20555,12034,10209,11528,37741,4
0.0,0.0,0.0,20615,12086,10255,11515,37860,4
0.0,0.0,0.0,20636,12073,10232,11528,37900,4
0.0,0.0,0.0,20636,12086,10209,11528,37980,4
0.0,0.0,0.0,20636,12086,10209,11503,37980,4
0.0,0.0,0.0,20595,12099,10174,11528,37900,4
0.0,0.0,0.0,20555,12086,10174,11528,37860,4
0.0,0.0,0.0,20555,12099,10163,11503,37900,4
0.0,0.0,0.0,20555,12073,10163,11503,37860,4
0.0,0.0,0.0,20555,12073,10163,11503,37860,4
0.0,0.0,0.0,20475,12112,10140,11465,37781,4
0.0,0.0,0.0,20475,12112,10140,11453,37980,4
0.0,0.0,0.0,20475,12124,10129,11453,37860,4
0.0,0.0,0.0,20475,12163,10140,11453,37781,4
0.0,0.0,0.0,20435,12163,10140,11453,37860,4
0.0,0.0,0.0,20395,12124,10117,11428,37940,4
0.0,0.0,0.0,20335,12163,10140,11440,37900,4
0.0,0.0,0.0,20395,12163,10129,11453,37900,4
0.0,0.0,0.0,20335,12215,10117,11403,37940,4
0.0,0.0,0.0,20395,12202,10117,11416,37781,4
0.0,0.0,0.0,20335,12202,10117,11440,37980,4
0.0,0.0,0.0,20415,12228,10117,11403,38059,4
0.0,0.0,0.0,20395,12228,10117,11403,37980,4
0.0,0.0,0.0,20335,12241,10117,11416,37820,4
0.0,0.0,0.0,20395,12215,10106,11366,37860,4
0.0,0.0,0.0,20435,12189,10117,11403,37860,4
0.0,0.0,0.0,20415,12189,10129,11403,37940,4
0.0,0.0,0.0,20435,12189,10152,11304,37940,4
0.0,0.0,0.0,20415,12176,10129,11366,37940,4
0.0,0.0,0.0,20395,12176,10140,11366,37781,4
0.0,0.0,0.0,20395,12163,10129,11354,37781,4
0.0,0.0,0.0,20355,12163,10140,11354,37860,4
0.0,0.0,0.0,20415,12163,10129,11354,37860,4
0.0,0.0,0.0,20435,12163,10140,11391,37900,4
0.0,0.0,0.0,20435,12176,10117,11354,37860,4
0.0,0.0,0.0,20475,12267,10129,11379,37900,4
0.0,0.0,0.0,20415,12228,10117,11354,37860,4
0.0,0.0,0.0,20415,12176,10117,11379,37701,4
0.0,0.0,0.0,20495,12189,10129,11379,37860,4
0.0,0.0,0.0,20475,12150,10094,11403,37820,4
0.0,0.0,0.0,20495,12086,10026,11416,37940,4
0.0,0.0,0.0,20555,11996,9912,11354,37860,4
0.0,0.0,0.0,20555,11919,9901,11354,37860,4
0.0,0.0,0.0,20475,11906,9935,11354,37741,4
0.0,0.0,0.0,20475,11855,9946,11354,37741,4
0.0,0.0,0.0,20475,11678,9890,11329,37820,4
0.0,0.0,0.0,20455,11280,9666,11304,38301,4
0.0,0.0,0.0,20236,11219,9621,11280,38059,4
0.0,0.0,0.0,20275,11182,9632,11304,38059,4
0.0,0.0,0.0,20196,11219,9621,11292,37940,4
0.0,0.0,0.0,20196,11231,9643,11268,38019,4
0.0,0.0,0.0,20196,11268,9643,11268,38220,4
0.0,0.0,0.0,20275,11268,9677,11280,38341,4
0.0,0.0,0.0,20275,11304,9688,11268,38260,4
0.0,0.0,0.0,20315,11329,9688,11255,38341,4
0.0,0.0,0.0,20335,11304,9677,11255,38544,4
0.0,0.0,0.0,20236,11304,9688,11243,38503,4
0.0,0.0,0.0,20275,11304,9677,11255,38422,4
0.0,0.0,0.0,20315,11292,9677,11255,38382,4
0.0,0.0,0.0,20315,11292,9666,11243,38260,4
0.0,0.0,0.0,20236,11304,9666,11219,38220,4
0.0,0.0,0.0,20295,11317,9666,11231,38341,4
0.0,0.0,0.0,20275,11354,9666,11231,38341,4
0.0,0.0,0.0,20315,11403,9666,11231,38341,4
0.0,0.0,0.0,20335,11403,9666,11243,38503,4
0.0,0.0,0.0,20315,11403,9666,11219,38260,4
0.0,0.0,0.0,20335,11453,9688,11231,38260,4
0.0,0.0,0.0,20335,11465,9677,11219,38180,4
0.0,0.0,0.0,20335,11503,9688,11255,38260,4
0.0,0.0,0.0,20335,11553,9688,11255,38341,4
0.0,0.0,0.0,20315,11578,9699,11243,38059,4
0.0,0.0,0.0,20375,11590,9710,11231,38180,4
0.0,0.0,0.0,20335,11615,9710,11231,38180,4
0.0,0.0,0.0,20395,11653,9710,11231,38220,4
0.0,0.0,0.0,20375,11678,9710,11231,38260,4
0.0,0.0,0.0,20435,11628,9710,11255,38140,4
0.0,0.0,0.0,20395,11653,9710,11243,38100,4
0.0,0.0,0.0,20415,11640,9710,11219,38140,4
0.0,0.0,0.0,20395,11653,9710,11219,38059,4
0.0,0.0,0.0,20335,11703,9710,11206,38180,4
0.0,0.0,0.0,20355,11665,9710,11231,38019,4
0.0,0.0,0.0,20395,11653,9710,11231,38140,4
0.0,0.0,0.0,20335,11678,9710,11255,38100,4
0.0,0.0,0.0,20315,11653,9710,11304,38019,4
0.0,0.0,0.0,20256,11678,9710,11292,37940,4
0.0,0.0,0.0,20275,11653,9710,11280,38140,4
0.0,0.0,0.0,20315,11665,9710,11268,38019,4
0.0,0.0,0.0,20256,11691,9710,11255,37940,4
0.0,0.0,0.0,20196,11716,9721,11280,38019,4
0.0,0.0,0.0,20315,11716,9721,11255,38019,4
0.0,0.0,0.0,20256,11703,9721,11255,38059,4
0.0,0.0,0.0,20275,11754,9733,11255,38019,4
0.0,0.0,0.0,20236,11716,9721,11268,38019,4
0.0,0.0,0.0,20315,11728,9710,11268,37940,4
0.0,0.0,0.0,20315,11703,9733,11268,38019,4
0.0,0.0,0.0,20275,11703,9721,11268,38019,4
0.0,0.0,0.0,20256,11716,9755,11304,37980,4
0.0,0.0,0.0,20256,11855,9755,11403,38180,4
0.0,0.0,0.0,20236,11804,9766,11403,37622,4
0.0,0.0,0.0,20196,11754,9766,11379,37741,4
0.0,0.0,0.0,20275,11754,9766,11379,37741,4
0.0,0.0,0.0,20256,11728,9777,11379,37701,4
0.0,0.0,0.0,20275,11741,9800,11354,37781,4
0.0,0.0,0.0,20335,11703,9755,11379,37662,4
0.0,0.0,0.0,20315,11703,9733,11354,37860,4
0.0,0.0,0.0,20256,11716,9666,11366,37900,4
0.0,0.0,0.0,20315,11678,9643,11366,38019,4
0.0,0.0,0.0,20275,11615,9666,11416,38382,4
0.0,0.0,0.0,20415,11603,9811,11453,38748,4
0.0,0.0,0.0,20555,11515,10003,11528,38707,4
0.0,0.0,0.0,20676,11379,9699,11503,38666,4
0.0,0.0,0.0,20716,11317,9733,11490,38585,4
0.0,0.0,0.0,20798,11304,9766,11453,38666,4
0.0,0.0,0.0,20818,11268,9800,11465,38789,4
0.0,0.0,0.0,20757,11304,9912,11478,38422,4
0.0,0.0,0.0,20798,11329,9755,11453,38382,4
0.0,0.0,0.0,20777,11329,9733,11453,38140,4
0.0,0.0,0.0,20676,11403,9710,11465,38180,4
0.0,0.0,0.0,20676,11428,9710,11453,38019,4
0.0,0.0,0.0,20696,11428,9766,11416,38301,4
0.0,0.0,0.0,20676,11478,9958,11403,38301,4
0.0,0.0,0.0,20716,11515,10163,11317,38912,4
0.0,0.0,0.0,20656,11553,10071,11354,38180,4
0.0,0.0,0.0,20555,11553,10094,11366,38019,4
0.0,0.0,0.0,20495,11528,10071,11354,37820,4
0.0,0.0,0.0,20475,11553,10094,11329,37583,4
0.0,0.0,0.0,20475,11528,10071,11354,37543,4
0.0,0.0,0.0,20475,11553,10060,11317,37662,4
0.0,0.0,0.0,20475,11603,10037,11304,37701,4
0.0,0.0,0.0,20415,11603,10071,11304,37386,4
0.0,0.0,0.0,20435,11653,10071,11304,37308,4
0.0,0.0,0.0,20435,11678,10071,11304,37347,4
0.0,0.0,0.0,20335,11716,10071,11304,37230,4
0.0,0.0,0.0,20395,11703,10071,11280,37230,4
0.0,0.0,0.0,20335,11868,10083,11292,37347,4
0.0,0.0,0.0,20335,11855,10083,11304,37308,4
0.0,0.0,0.0,20315,11855,10071,11304,37386,4
0.0,0.0,0.0,20295,11830,10071,11292,37622,4
0.0,0.0,0.0,20335,11830,10071,11304,37543,4
0.0,0.0,0.0,20395,11842,10071,11304,37543,4
0.0,0.0,0.0,20395,11855,10049,11304,37504,4
0.0,0.0,0.0,20395,11804,10037,11304,37426,4
0.0,0.0,0.0,20395,11804,10037,11304,37426,4
0.0,0.0,0.0,20335,11817,10049,11304,37426,4
0.0,0.0,0.0,20335,11817,10049,11317,37426,4
0.0,0.0,0.0,20355,11804,10037,11280,37583,4
0.0,0.0,0.0,20375,11804,10037,11280,37426,4
0.0,0.0,0.0,20395,11779,10026,11280,37426,4
0.0,0.0,0.0,20395,11804,10037,11255,37386,4
0.0,0.0,0.0,20395,11804,10037,11255,37426,4
0.0,0.0,0.0,20335,11817,10037,11268,37504,4
0.0,0.0,0.0,20335,11779,10037,11268,37465,4
0.0,0.0,0.0,20415,11779,10071,11268,37465,4
0.0,0.0,0.0,20375,11792,10049,11255,37426,4
0.0,0.0,0.0,20415,11817,10026,11255,37347,4
0.0,0.0,0.0,20395,11855,10037,11255,37347,4
0.0,0.0,0.0,20335,11855,10049,11292,37308,4
0.0,0.0,0.0,20435,11817,10071,11268,37308,4
0.0,0.0,0.0,20355,11830,10071,11304,37152,4
0.0,0.0,0.0,20355,11830,10083,11268,37269,4
0.0,0.0,0.0,20395,11804,10094,11280,37386,4
0.0,0.0,0.0,20335,11855,10094,11304,37543,4
0.0,0.0,0.0,20295,11855,10117,11329,37701,4
0.0,0.0,0.0,20315,11817,10117,11354,37701,4
0.0,0.0,0.0,20275,11855,10083,11317,37622,4
0.0,0.0,0.0,20236,11868,10094,11304,37465,4
0.0,0.0,0.0,20196,11881,10117,11268,37230,4
0.0,0.0,0.0,20196,11868,10094,11280,37386,4
0.0,0.0,0.0,20216,11881,10094,11280,37308,4
0.0,0.0,0.0,20196,11906,10083,11304,37308,4
0.0,0.0,0.0,20157,11906,10071,11292,37230,4
0.0,0.0,0.0,20157,11881,10094,11304,37191,4
0.0,0.0,0.0,20196,11906,10071,11292,37230,4
0.0,0.0,0.0,20176,11919,10071,11268,37075,4
0.0,0.0,0.0,20137,11957,10083,11280,37230,4
0.0,0.0,0.0,20137,11957,10094,11268,37075,4
0.0,0.0,0.0,20098,11957,10094,11268,37230,4
0.0,0.0,0.0,20117,11970,10094,11268,37152,4
