GyroX,GyroY,GyroZ,Thumb,Index,Middle,Ring,Pinky,Gesture
0.0,0.0,0.0,12346,22096,21043,33714,18182,5
0.0,0.0,0.0,12241,22140,21043,33714,18417,5
0.0,0.0,0.0,12280,22118,21064,33714,18562,5
0.0,0.0,0.0,12228,22053,21043,33645,18562,5
0.0,0.0,0.0,12150,22096,21022,33508,18654,5
0.0,0.0,0.0,12060,22053,20940,33371,18857,5
0.0,0.0,0.0,11970,22053,20899,33303,18894,5
0.0,0.0,0.0,11932,22010,20818,33236,18894,5
0.0,0.0,0.0,11932,22053,20798,33236,18931,5
0.0,0.0,0.0,12009,22010,20798,33168,18894,5
0.0,0.0,0.0,11957,22075,20737,33067,18783,5
0.0,0.0,0.0,12009,22444,20798,33033,18746,5
0.0,0.0,0.0,12112,22554,20798,33033,18672,5
0.0,0.0,0.0,12477,22576,20859,33033,18308,5
0.0,0.0,0.0,13068,22665,20961,33508,17495,5
0.0,0.0,0.0,13510,22843,21167,34165,16882,5
0.0,0.0,0.0,13778,22977,21375,34660,16665,5
0.0,0.0,0.0,13964,22977,21458,34839,16532,5
0.0,0.0,0.0,14108,22932,21500,34874,16483,5
0.0,0.0,0.0,14311,22887,21500,34874,16434,5
0.0,0.0,0.0,14801,22955,21395,34839,16385,5
0.0,0.0,0.0,15242,22865,21416,34767,16352,5
0.0,0.0,0.0,15932,22910,21395,34767,16303,5
0.0,0.0,0.0,16417,22932,21312,34696,16319,5
0.0,0.0,0.0,16222,22932,21291,34482,16254,5
0.0,0.0,0.0,16028,22977,21208,34482,16222,5
0.0,0.0,0.0,15980,22887,21146,34341,16222,5
0.0,0.0,0.0,15900,22820,21125,34341,16238,5
0.0,0.0,0.0,15837,22798,21084,34376,16173,5
0.0,0.0,0.0,15789,22798,21125,34412,16222,5
0.0,0.0,0.0,15773,22754,21084,34341,16222,5
0.0,0.0,0.0,15710,22754,21105,34412,16157,5
0.0,0.0,0.0,15631,22709,21084,34341,16173,5
0.0,0.0,0.0,15584,22665,21002,34376,16157,5
0.0,0.0,0.0,15553,22665,21064,34376,16125,5
0.0,0.0,0.0,15459,22599,21022,34341,16157,5
0.0,0.0,0.0,15412,22576,21043,34376,16173,5
0.0,0.0,0.0,15366,22576,20981,34271,16173,5
0.0,0.0,0.0,15350,22576,20961,34341,16173,5
0.0,0.0,0.0,15335,22510,20961,34165,16189,5
0.0,0.0,0.0,15335,22576,20981,34095,16222,5
0.0,0.0,0.0,15273,22532,20920,34060,16254,5
0.0,0.0,0.0,15288,22488,20961,34060,16287,5
0.0,0.0,0.0,15273,22510,20899,33921,16336,5
0.0,0.0,0.0,15288,22488,20920,33991,16287,5
0.0,0.0,0.0,15227,22510,20899,33852,16352,5
0.0,0.0,0.0,15227,22444,20961,33887,16352,5
0.0,0.0,0.0,15211,22488,20899,33817,16352,5
0.0,0.0,0.0,15211,22466,20899,33852,16303,5
0.0,0.0,0.0,15211,22466,20899,33714,16352,5
0.0,0.0,0.0,15135,22510,20838,33679,16417,5
0.0,0.0,0.0,15119,22444,20838,33576,16417,5
0.0,0.0,0.0,15119,22423,20798,33474,16483,5
0.0,0.0,0.0,15104,22423,20798,33439,16483,5
0.0,0.0,0.0,15119,22357,20818,33371,16532,5
0.0,0.0,0.0,15135,22335,20798,33337,16582,5
0.0,0.0,0.0,15150,22357,20798,33371,16582,5
0.0,0.0,0.0,15211,22401,20716,33337,16565,5
0.0,0.0,0.0,15288,22335,20757,33236,16516,5
0.0,0.0,0.0,15428,22401,20757,33303,16516,5
0.0,0.0,0.0,15428,22335,20737,33168,16434,5
0.0,0.0,0.0,15397,22313,20716,33168,16417,5
0.0,0.0,0.0,15397,22357,20676,33168,16368,5
0.0,0.0,0.0,15521,22313,20676,33168,16417,5
0.0,0.0,0.0,15757,22335,20636,33168,16352,5
0.0,0.0,0.0,15964,22226,20676,33168,16385,5
0.0,0.0,0.0,15900,22270,20595,33100,16336,5
0.0,0.0,0.0,16093,22248,20555,33033,16303,5
0.0,0.0,0.0,15964,22226,20495,33100,16254,5
0.0,0.0,0.0,15868,22248,20475,32999,16287,5
0.0,0.0,0.0,15773,22226,20515,33067,16238,5
0.0,0.0,0.0,15647,22183,20435,33033,16222,5
0.0,0.0,0.0,15647,22205,20475,32899,16189,5
0.0,0.0,0.0,15615,22161,20495,32966,16189,5
0.0,0.0,0.0,15600,22140,20475,32932,16222,5
0.0,0.0,0.0,15521,22161,20435,32932,16206,5
0.0,0.0,0.0,15490,22226,20475,32899,16189,5
0.0,0.0,0.0,15459,22226,20435,32832,16206,5
0.0,0.0,0.0,15475,22140,20475,32932,16189,5
0.0,0.0,0.0,15490,22140,20435,32899,16238,5
0.0,0.0,0.0,15443,22140,20395,32832,16222,5
0.0,0.0,0.0,15521,22140,20395,32832,16222,5
0.0,0.0,0.0,15490,22140,20395,32832,16238,5
0.0,0.0,0.0,15459,22118,20395,32832,16173,5
0.0,0.0,0.0,15459,22118,20355,32899,16222,5
0.0,0.0,0.0,15428,22140,20335,32832,16189,5
0.0,0.0,0.0,15459,22075,20355,32765,16238,5
0.0,0.0,0.0,15521,22140,20335,32732,16189,5
0.0,0.0,0.0,15459,22140,20335,32799,16206,5
0.0,0.0,0.0,15412,22053,20315,32765,16222,5
0.0,0.0,0.0,15397,22053,20315,32765,16238,5
0.0,0.0,0.0,15397,22096,20335,32732,16254,5
0.0,0.0,0.0,15397,22096,20335,32699,16271,5
0.0,0.0,0.0,15366,22053,20335,32765,16254,5
0.0,0.0,0.0,15381,22053,20335,32732,16287,5
0.0,0.0,0.0,15366,22053,20315,32699,16254,5
0.0,0.0,0.0,15397,22053,20315,32633,16254,5
0.0,0.0,0.0,15335,22010,20315,32765,16254,5
0.0,0.0,0.0,15350,22053,20315,32633,16271,5
0.0,0.0,0.0,15335,22053,20335,32633,16222,5
0.0,0.0,0.0,15335,22053,20315,32699,16238,5
0.0,0.0,0.0,15335,22032,20315,32633,16222,5
0.0,0.0,0.0,15304,21946,20535,32633,16222,5
0.0,0.0,0.0,15273,22010,20315,32633,16222,5
0.0,0.0,0.0,15273,21924,20475,32599,16254,5
0.0,0.0,0.0,15288,22010,20256,32435,16206,5
0.0,0.0,0.0,15273,21946,20495,32500,16189,5
0.0,0.0,0.0,15273,22010,20275,32533,16141,5
0.0,0.0,0.0,15227,22010,20275,32435,16222,5
0.0,0.0,0.0,15211,21967,20495,32500,16157,5
0.0,0.0,0.0,15227,21967,20415,32435,16157,5
0.0,0.0,0.0,15227,21924,20475,32500,16173,5
0.0,0.0,0.0,15211,22010,20236,32369,16157,5
0.0,0.0,0.0,15227,21967,20415,32402,16206,5
0.0,0.0,0.0,15227,21903,20435,32435,16125,5
0.0,0.0,0.0,15165,21924,20415,32369,16189,5
0.0,0.0,0.0,15165,22010,20236,32402,16157,5
0.0,0.0,0.0,15211,21946,20415,32369,16173,5
0.0,0.0,0.0,15181,21903,20435,32303,16173,5
0.0,0.0,0.0,15150,21946,20415,32303,16173,5
0.0,0.0,0.0,15150,21882,20395,32303,16173,5
0.0,0.0,0.0,15181,21903,20395,32303,16206,5
0.0,0.0,0.0,15150,21860,20455,32303,16222,5
0.0,0.0,0.0,15196,21860,20415,32238,16173,5
0.0,0.0,0.0,15181,21882,20395,32271,16189,5
0.0,0.0,0.0,15181,21903,20395,32303,16254,5
0.0,0.0,0.0,15181,21882,20395,32238,16238,5
0.0,0.0,0.0,15211,21903,20395,32238,16287,5
0.0,0.0,0.0,15227,21839,20395,32238,16303,5
0.0,0.0,0.0,15211,21860,20395,32303,16368,5
0.0,0.0,0.0,15211,21882,20355,32238,16303,5
0.0,0.0,0.0,15211,21882,20355,32173,16303,5
0.0,0.0,0.0,15211,21903,20395,32238,16401,5
0.0,0.0,0.0,15181,21882,20315,32173,16417,5
0.0,0.0,0.0,15196,21882,20395,32238,16499,5
0.0,0.0,0.0,15211,21839,20395,32238,16516,5
0.0,0.0,0.0,15211,21775,20335,32238,16565,5
0.0,0.0,0.0,15150,21860,20415,32205,16582,5
0.0,0.0,0.0,15165,21818,20395,32238,16549,5
0.0,0.0,0.0,15165,21860,20355,32173,16565,5
0.0,0.0,0.0,15181,21839,20335,32108,16549,5
0.0,0.0,0.0,15150,21818,20375,32140,16483,5
0.0,0.0,0.0,15150,21882,20315,32043,16483,5
0.0,0.0,0.0,15150,21860,20355,32043,16450,5
0.0,0.0,0.0,15119,21882,20335,32140,16385,5
0.0,0.0,0.0,15119,21839,20315,31978,16319,5
0.0,0.0,0.0,15119,21839,20315,32043,16319,5
0.0,0.0,0.0,15119,21839,20335,32108,16303,5
0.0,0.0,0.0,15089,21796,20315,32075,16303,5
0.0,0.0,0.0,15089,21796,20315,32075,16336,5
0.0,0.0,0.0,15089,21818,20315,31978,16385,5
0.0,0.0,0.0,15089,21796,20275,31978,16417,5
0.0,0.0,0.0,15058,21796,20315,31978,16368,5
0.0,0.0,0.0,15043,21818,20315,32010,16417,5
0.0,0.0,0.0,15028,21818,20335,31978,16450,5
0.0,0.0,0.0,15058,21818,20295,31978,16450,5
0.0,0.0,0.0,15028,21839,20295,31978,16450,5
0.0,0.0,0.0,15028,21818,20295,32010,16483,5
0.0,0.0,0.0,15043,21796,20256,31913,16483,5
0.0,0.0,0.0,14997,21796,20275,31881,16434,5
0.0,0.0,0.0,15013,21818,20275,31913,16450,5
0.0,0.0,0.0,14982,21796,20275,31913,16499,5
0.0,0.0,0.0,15013,21796,20256,31913,16565,5
0.0,0.0,0.0,14997,21754,20315,31913,16615,5
0.0,0.0,0.0,14967,21796,20275,31881,16582,5
0.0,0.0,0.0,14997,21796,20236,31785,16615,5
0.0,0.0,0.0,14982,21796,20256,31817,16582,5
0.0,0.0,0.0,14997,21754,20256,31849,16648,5
0.0,0.0,0.0,14967,21796,20236,31849,16615,5
0.0,0.0,0.0,14982,21754,20295,31849,16632,5
0.0,0.0,0.0,14967,21796,20236,31720,16681,5
0.0,0.0,0.0,14967,21796,20256,31785,16632,5
0.0,0.0,0.0,14967,21796,20256,31785,16565,5
0.0,0.0,0.0,14967,21775,20275,31849,16483,5
0.0,0.0,0.0,14967,21733,20236,31752,16483,5
0.0,0.0,0.0,14997,21775,20236,31752,16434,5
0.0,0.0,0.0,14982,21754,20236,31656,16450,5
0.0,0.0,0.0,15028,21711,20236,31656,16417,5
0.0,0.0,0.0,14997,21733,20236,31720,16368,5
0.0,0.0,0.0,15028,21711,20216,31656,16417,5
0.0,0.0,0.0,14997,21711,20236,31593,16385,5
0.0,0.0,0.0,14967,21711,20196,31624,16417,5
0.0,0.0,0.0,14967,21733,20236,31656,16434,5
0.0,0.0,0.0,15028,21711,20176,31624,16417,5
0.0,0.0,0.0,14997,21711,20236,31656,16483,5
0.0,0.0,0.0,14997,21690,20196,31656,16417,5
0.0,0.0,0.0,14967,21690,20196,31529,16385,5
0.0,0.0,0.0,14967,21711,20196,31593,16385,5
0.0,0.0,0.0,14982,21711,20196,31593,16385,5
0.0,0.0,0.0,14997,21711,20196,31497,16352,5
0.0,0.0,0.0,14982,21648,20236,31593,16352,5
0.0,0.0,0.0,15028,21648,20196,31624,16417,5
0.0,0.0,0.0,15043,21648,20196,31624,16368,5
0.0,0.0,0.0,15028,21711,20196,31624,16417,5
0.0,0.0,0.0,15089,21669,20176,31529,16434,5
0.0,0.0,0.0,15058,21669,20157,31593,16385,5
0.0,0.0,0.0,15104,21648,20157,31593,16434,5
0.0,0.0,0.0,15058,21648,20176,31561,16483,5
0.0,0.0,0.0,15089,21711,20196,31624,16549,5
0.0,0.0,0.0,15058,21648,20176,31593,16598,5
0.0,0.0,0.0,15028,21711,20157,31593,16615,5
0.0,0.0,0.0,15028,21648,20196,31593,16648,5
0.0,0.0,0.0,15028,21711,20157,31465,16681,5
0.0,0.0,0.0,15043,21711,20157,31497,16681,5
0.0,0.0,0.0,15028,21648,20176,31593,16648,5
0.0,0.0,0.0,15043,21690,20176,31465,16698,5
0.0,0.0,0.0,15058,21669,20157,31465,16715,5
0.0,0.0,0.0,15028,21627,20176,31465,16698,5
0.0,0.0,0.0,14967,21669,20176,31465,16698,5
0.0,0.0,0.0,14952,21648,20196,31465,16698,5
0.0,0.0,0.0,14967,21669,20157,31402,16698,5
0.0,0.0,0.0,14967,21669,20157,31402,16665,5
0.0,0.0,0.0,14937,21669,20157,31370,16632,5
0.0,0.0,0.0,14967,21648,20137,31434,16648,5
0.0,0.0,0.0,14967,21627,20157,31370,16681,5
0.0,0.0,0.0,14967,21627,20117,31402,16681,5
0.0,0.0,0.0,14922,21627,20157,31465,16698,5
0.0,0.0,0.0,14952,21648,20157,31402,16698,5
0.0,0.0,0.0,14937,21648,20117,31370,16748,5
0.0,0.0,0.0,14967,21627,20137,31402,16698,5
0.0,0.0,0.0,14967,21627,20117,31370,16681,5
0.0,0.0,0.0,14952,21648,20078,31339,16681,5
0.0,0.0,0.0,14967,21648,20078,31339,16748,5
0.0,0.0,0.0,14922,21669,20157,31339,16698,5
0.0,0.0,0.0,14922,21690,20117,31244,16681,5
0.0,0.0,0.0,14922,21648,20078,31276,16565,5
0.0,0.0,0.0,14907,21627,20078,31213,16615,5
0.0,0.0,0.0,14967,21563,20078,31213,16549,5
0.0,0.0,0.0,14982,21606,20078,31244,16499,5
0.0,0.0,0.0,15058,21606,20078,31213,16434,5
0.0,0.0,0.0,15335,21627,20078,31307,16417,5
0.0,0.0,0.0,15647,21627,20117,31465,16303,5
0.0,0.0,0.0,15553,21606,20117,31529,16254,5
0.0,0.0,0.0,15553,21584,20117,31529,16287,5
0.0,0.0,0.0,15475,21627,20157,31720,16173,5
0.0,0.0,0.0,15553,21627,20176,31881,16173,5
0.0,0.0,0.0,15459,21669,20196,32010,16060,5
0.0,0.0,0.0,15397,21690,20236,32108,16093,5
0.0,0.0,0.0,15273,21754,20275,32108,16157,5
0.0,0.0,0.0,15058,21882,20335,32238,16173,5
0.0,0.0,0.0,15013,22140,20395,32633,16287,5
0.0,0.0,0.0,14967,22313,20495,32633,16303,5
0.0,0.0,0.0,15058,22401,20515,32699,16287,5
0.0,0.0,0.0,15553,22401,20495,32765,16157,5
0.0,0.0,0.0,16189,22488,20435,32765,16173,5
0.0,0.0,0.0,16417,22488,20415,32765,16173,5
0.0,0.0,0.0,16434,22576,20515,32699,16109,5
0.0,0.0,0.0,16401,22621,20575,32271,16093,5
0.0,0.0,0.0,16352,22709,20716,31056,16093,5
0.0,0.0,0.0,16303,22665,20737,30807,16109,5
0.0,0.0,0.0,16222,22643,20798,30165,16189,5
0.0,0.0,0.0,16125,22665,20757,30015,16352,5
0.0,0.0,0.0,16028,22665,20716,29925,16368,5
0.0,0.0,0.0,16060,22687,20716,29925,16222,5
0.0,0.0,0.0,15916,22709,20716,30165,16125,5
0.0,0.0,0.0,15964,22621,20716,30015,16125,5
0.0,0.0,0.0,15900,22621,20757,29865,16222,5
0.0,0.0,0.0,15868,22621,20737,29775,16189,5
0.0,0.0,0.0,15789,22599,20757,29805,16238,5
0.0,0.0,0.0,15789,22554,20716,30499,15980,5
0.0,0.0,0.0,15789,22599,20716,30195,15996,5
0.0,0.0,0.0,15647,22665,20818,29657,16516,5
0.0,0.0,0.0,15537,22621,21208,28898,16781,5
0.0,0.0,0.0,15459,22665,22118,27202,17033,5
0.0,0.0,0.0,14801,22488,22335,26124,17152,5
0.0,0.0,0.0,13384,22444,22335,25742,17084,5
0.0,0.0,0.0,12905,22444,22313,25666,17016,5
0.0,0.0,0.0,12905,22488,22183,25691,16983,5
0.0,0.0,0.0,12932,22532,22401,25894,16949,5
0.0,0.0,0.0,12743,22576,22357,26099,16865,5
0.0,0.0,0.0,12676,22576,22335,26150,16848,5
0.0,0.0,0.0,12690,22576,22313,26566,16848,5
0.0,0.0,0.0,12649,22554,22313,26566,16815,5
0.0,0.0,0.0,12610,22510,22313,26776,16781,5
0.0,0.0,0.0,12504,22488,22313,26749,16765,5
0.0,0.0,0.0,12215,22488,22248,26723,16765,5
0.0,0.0,0.0,12163,22444,22226,26644,16765,5
0.0,0.0,0.0,12215,22423,22140,26697,16748,5
0.0,0.0,0.0,12215,22401,22183,26723,16748,5
0.0,0.0,0.0,12424,22357,22140,26855,16715,5
0.0,0.0,0.0,12424,22313,22226,26882,16698,5
0.0,0.0,0.0,12398,22357,22140,27015,16681,5
0.0,0.0,0.0,12228,22357,22183,27041,16698,5
0.0,0.0,0.0,12112,22313,22226,26961,16681,5
0.0,0.0,0.0,12112,22357,22183,26988,16748,5
0.0,0.0,0.0,12189,22313,22140,27068,16648,5
0.0,0.0,0.0,12176,22357,22140,27175,16665,5
0.0,0.0,0.0,12241,22313,22140,27256,16648,5
0.0,0.0,0.0,12280,22313,22183,27310,16632,5
0.0,0.0,0.0,12293,22313,22161,27581,16632,5
0.0,0.0,0.0,12280,22313,22226,27527,16648,5
0.0,0.0,0.0,12346,22248,22226,27663,16681,5
0.0,0.0,0.0,12320,22270,22248,27773,16648,5
0.0,0.0,0.0,12346,22226,22226,27911,16648,5
0.0,0.0,0.0,12372,22313,22183,27911,16648,5
0.0,0.0,0.0,12424,22226,22161,27856,16615,5
0.0,0.0,0.0,12398,22270,22161,27939,16582,5
0.0,0.0,0.0,12424,22226,22183,28133,16549,5
0.0,0.0,0.0,12517,22313,22183,28133,16549,5
0.0,0.0,0.0,12649,22313,22226,27966,16615,5
0.0,0.0,0.0,12703,22379,22248,27939,16615,5
0.0,0.0,0.0,12690,22357,22270,27800,16582,5
0.0,0.0,0.0,12663,22313,22270,27636,16615,5
0.0,0.0,0.0,12703,22313,22270,27472,16648,5
0.0,0.0,0.0,12797,22270,22226,27527,16598,5
0.0,0.0,0.0,12810,22270,22248,27745,16565,5
0.0,0.0,0.0,12959,22270,22270,27828,16549,5
0.0,0.0,0.0,12972,22270,22226,27828,16565,5
0.0,0.0,0.0,12972,22270,22270,27828,16582,5
0.0,0.0,0.0,12905,22270,22313,27718,16549,5
0.0,0.0,0.0,12905,22270,22313,27636,16598,5
0.0,0.0,0.0,12610,22248,22248,27581,16615,5
0.0,0.0,0.0,12372,22270,22226,27337,16681,5
0.0,0.0,0.0,12228,22313,22183,27095,16715,5
0.0,0.0,0.0,12477,22313,22140,26749,16715,5
0.0,0.0,0.0,12959,22270,21946,26618,16715,5
0.0,0.0,0.0,13398,22053,21796,26228,16681,5
0.0,0.0,0.0,13357,21818,21796,25894,16748,5
0.0,0.0,0.0,13205,21903,21754,25742,16748,5
0.0,0.0,0.0,13095,21903,21754,25641,16748,5
0.0,0.0,0.0,13068,21882,21754,25591,16748,5
0.0,0.0,0.0,13040,21818,21711,25490,16748,5
0.0,0.0,0.0,13040,21796,21563,25390,16748,5
0.0,0.0,0.0,13068,21627,21333,25291,16748,5
0.0,0.0,0.0,13260,21375,21043,25068,16748,5
0.0,0.0,0.0,13454,20961,20636,24848,16681,5
0.0,0.0,0.0,13580,20636,20395,24775,16615,5
0.0,0.0,0.0,13622,20355,20039,24678,16615,5
0.0,0.0,0.0,13594,20236,19980,24606,16565,5
0.0,0.0,0.0,13538,20236,19863,24606,16549,5
0.0,0.0,0.0,13566,20216,19863,24534,16499,5
0.0,0.0,0.0,13566,20216,19843,24702,16549,5
0.0,0.0,0.0,13580,20275,19882,24848,16549,5
0.0,0.0,0.0,13622,20315,19921,25019,16483,5
0.0,0.0,0.0,13594,20335,20157,26435,16434,5
0.0,0.0,0.0,13679,20515,20315,26776,16434,5
0.0,0.0,0.0,13650,20757,20595,27256,16401,5
0.0,0.0,0.0,13622,20961,20961,27800,16385,5
0.0,0.0,0.0,13735,21312,21333,28189,16336,5
0.0,0.0,0.0,13735,21796,21648,28669,16352,5
0.0,0.0,0.0,13749,22205,21711,29100,16271,5
0.0,0.0,0.0,13821,22226,22010,29391,16287,5
0.0,0.0,0.0,13764,22140,22032,30256,16303,5
0.0,0.0,0.0,13707,22053,22183,31025,16222,5
0.0,0.0,0.0,13707,22053,22270,30838,16157,5
0.0,0.0,0.0,13679,21903,22466,30715,16125,5
0.0,0.0,0.0,13594,21924,22466,30438,16157,5
0.0,0.0,0.0,13538,21903,22488,30499,16254,5
0.0,0.0,0.0,13398,21882,22820,30653,16352,5
0.0,0.0,0.0,13454,21882,22977,31276,16483,5
0.0,0.0,0.0,13398,21839,22977,30962,16450,5
0.0,0.0,0.0,13357,21796,22932,31181,16748,5
0.0,0.0,0.0,13287,21775,22887,30962,16681,5
0.0,0.0,0.0,13287,21711,22843,30838,16565,5
0.0,0.0,0.0,13287,21690,22843,30715,16698,5
0.0,0.0,0.0,13246,21690,22798,30591,16748,5
0.0,0.0,0.0,13246,21669,22731,30530,16681,5
0.0,0.0,0.0,13205,21627,22754,30499,16715,5
0.0,0.0,0.0,13163,21563,22731,30499,16731,5
0.0,0.0,0.0,13136,21584,22687,30469,16681,5
0.0,0.0,0.0,13081,21606,22665,30408,16632,5
0.0,0.0,0.0,13068,21542,22709,30377,16615,5
0.0,0.0,0.0,13068,21479,22754,30408,16499,5
0.0,0.0,0.0,13027,21542,22798,30622,16368,5
0.0,0.0,0.0,12959,21542,22798,30838,16206,5
0.0,0.0,0.0,12878,21542,22843,30994,16028,5
0.0,0.0,0.0,12797,21521,22932,31213,15932,5
0.0,0.0,0.0,12851,21542,22932,31087,15932,5
0.0,0.0,0.0,12837,21542,22887,31150,15868,5
0.0,0.0,0.0,12756,21542,22887,30994,15900,5
0.0,0.0,0.0,12703,21542,22798,30962,15868,5
0.0,0.0,0.0,12663,21542,22754,30931,15868,5
0.0,0.0,0.0,12583,21584,22754,30994,15837,5
0.0,0.0,0.0,12596,21627,22798,31150,15900,5
0.0,0.0,0.0,12530,21711,22776,31150,15868,5
0.0,0.0,0.0,12477,21711,22665,31056,15789,5
0.0,0.0,0.0,12451,21733,22665,30869,15773,5
0.0,0.0,0.0,12451,21733,22576,30776,15741,5
0.0,0.0,0.0,12438,21754,22576,31025,15773,5
0.0,0.0,0.0,12424,21796,22532,30653,15868,5
0.0,0.0,0.0,12398,21754,22510,30561,15837,5
0.0,0.0,0.0,12372,21796,22599,30408,15996,5
0.0,0.0,0.0,12372,21733,22576,30715,15837,5
0.0,0.0,0.0,12372,21711,22510,30591,15837,5
0.0,0.0,0.0,12372,21711,22532,30715,16028,5
0.0,0.0,0.0,12372,21711,22488,30438,15996,5
0.0,0.0,0.0,12346,21733,22488,30226,16173,5
0.0,0.0,0.0,12320,21754,22510,29984,16287,5
0.0,0.0,0.0,12320,21818,22510,29686,16319,5
0.0,0.0,0.0,12333,21796,22665,29304,16368,5
0.0,0.0,0.0,12346,21839,22665,29042,16368,5
0.0,0.0,0.0,12372,21882,22599,28640,16417,5
0.0,0.0,0.0,12424,22010,22313,27856,16483,5
0.0,0.0,0.0,12477,22010,22205,27256,16549,5
0.0,0.0,0.0,12583,22053,22140,27041,16434,5
0.0,0.0,0.0,12610,21924,22313,27068,16417,5
0.0,0.0,0.0,12543,21903,22292,27068,16385,5
0.0,0.0,0.0,12530,21903,22313,27041,16368,5
0.0,0.0,0.0,12543,21839,22270,27095,16417,5
0.0,0.0,0.0,12530,21882,22270,26935,16368,5
0.0,0.0,0.0,12543,21796,22226,26882,16352,5
0.0,0.0,0.0,12517,21818,22075,26802,16368,5
0.0,0.0,0.0,12490,21775,22096,26723,16450,5
0.0,0.0,0.0,12517,21796,22053,26749,16352,5
0.0,0.0,0.0,12490,21754,22053,26855,16319,5
0.0,0.0,0.0,12504,21754,22010,26935,16287,5
0.0,0.0,0.0,12490,21711,22010,27041,16271,5
0.0,0.0,0.0,12504,21711,22010,27256,16303,5
0.0,0.0,0.0,12530,21648,22010,27175,16287,5
0.0,0.0,0.0,12490,21648,22010,27581,16222,5
0.0,0.0,0.0,12504,21669,22010,27581,16222,5
0.0,0.0,0.0,12583,21669,22010,27691,16189,5
0.0,0.0,0.0,12583,21669,22053,27966,16222,5
0.0,0.0,0.0,12596,21648,22075,27966,16222,5
0.0,0.0,0.0,12583,21669,22053,28077,16173,5
0.0,0.0,0.0,12596,21669,22053,28189,16206,5
0.0,0.0,0.0,12610,21648,22053,28245,16189,5
0.0,0.0,0.0,12596,21690,22096,28527,16157,5
0.0,0.0,0.0,12596,21627,22140,28583,16157,5
0.0,0.0,0.0,12690,21669,22183,28555,16157,5
0.0,0.0,0.0,12636,21627,22161,28697,16222,5
0.0,0.0,0.0,12583,21711,22183,28697,16189,5
0.0,0.0,0.0,12583,21711,22183,28527,16157,5
0.0,0.0,0.0,12530,21775,22183,28301,16157,5
0.0,0.0,0.0,12504,21796,22205,28301,16125,5
0.0,0.0,0.0,12477,21648,22226,28414,16125,5
0.0,0.0,0.0,12504,21733,22205,28357,16157,5
0.0,0.0,0.0,12636,21733,22226,28133,16125,5
0.0,0.0,0.0,12756,21796,22075,27499,16222,5
0.0,0.0,0.0,12756,21860,22118,26935,16287,5
0.0,0.0,0.0,12716,21796,22010,26618,16303,5
0.0,0.0,0.0,12690,21711,21818,26566,16271,5
0.0,0.0,0.0,12716,21627,21584,26305,16303,5
0.0,0.0,0.0,12797,21521,21542,26099,16303,5
0.0,0.0,0.0,12905,21458,21479,26073,16287,5
0.0,0.0,0.0,13040,21458,21416,25996,16287,5
0.0,0.0,0.0,13095,21375,21437,25894,16287,5
0.0,0.0,0.0,13040,21375,21333,25793,16287,5
0.0,0.0,0.0,12959,21312,21208,25540,16303,5
0.0,0.0,0.0,12945,21270,21208,25415,16319,5
0.0,0.0,0.0,12959,21105,21146,25192,16287,5
0.0,0.0,0.0,12932,21125,21043,24995,16287,5
0.0,0.0,0.0,12959,21146,21043,24946,16287,5
0.0,0.0,0.0,12972,21125,21022,24848,16222,5
0.0,0.0,0.0,12878,21167,21208,25142,16254,5
0.0,0.0,0.0,12716,21354,21250,25216,16287,5
0.0,0.0,0.0,12424,21542,21312,25192,16352,5
0.0,0.0,0.0,12293,21500,21312,25390,16319,5
0.0,0.0,0.0,12280,21500,21375,25390,16287,5
0.0,0.0,0.0,12241,21458,21333,25540,16222,5
0.0,0.0,0.0,12215,21542,21375,25793,16189,5
0.0,0.0,0.0,12176,21521,21542,25894,16222,5
0.0,0.0,0.0,12163,21542,21542,26047,16222,5
0.0,0.0,0.0,12124,21542,21479,25996,16222,5
0.0,0.0,0.0,12163,21563,21542,25996,16206,5
0.0,0.0,0.0,12124,21563,21584,26202,16173,5
0.0,0.0,0.0,12228,21711,21839,26566,16222,5
0.0,0.0,0.0,12320,21796,21903,26513,16157,5
0.0,0.0,0.0,12267,21839,21839,26618,16173,5
0.0,0.0,0.0,12215,21818,21860,26776,16125,5
0.0,0.0,0.0,12137,21754,21882,26882,16173,5
0.0,0.0,0.0,12112,21733,21882,26855,16157,5
0.0,0.0,0.0,12060,21775,21882,26935,16173,5
0.0,0.0,0.0,12073,21711,21924,27364,16173,5
0.0,0.0,0.0,12060,21627,22096,27609,16157,5
0.0,0.0,0.0,12034,21458,22096,29274,15852,5
0.0,0.0,0.0,12346,21333,22010,30015,16385,5
0.0,0.0,0.0,12583,21229,21946,30962,16483,5
0.0,0.0,0.0,12610,21105,21882,31213,16368,5
0.0,0.0,0.0,12851,21084,21711,31276,16287,5
0.0,0.0,0.0,13095,21084,21775,31244,16157,5
0.0,0.0,0.0,13343,21125,21711,31025,16141,5
0.0,0.0,0.0,14151,21229,21796,31339,16109,5
0.0,0.0,0.0,13849,21146,21733,31150,16028,5
0.0,0.0,0.0,14592,21250,21711,31181,16028,5
0.0,0.0,0.0,14253,21291,21733,31213,16060,5
0.0,0.0,0.0,14224,21229,21627,31025,16093,5
0.0,0.0,0.0,14151,21229,21711,31150,16093,5
0.0,0.0,0.0,13906,21229,21711,30838,16125,5
0.0,0.0,0.0,13906,21250,21690,30653,16173,5
0.0,0.0,0.0,13906,21312,21711,30469,16222,5
0.0,0.0,0.0,13764,21375,21733,30530,16189,5
0.0,0.0,0.0,13764,21395,21733,30408,16189,5
0.0,0.0,0.0,13792,21375,21711,30286,16109,5
0.0,0.0,0.0,14021,21375,21711,30226,16125,5
0.0,0.0,0.0,13964,21416,21711,30317,16125,5
0.0,0.0,0.0,13935,21416,21711,30286,16076,5
0.0,0.0,0.0,14036,21395,21711,30530,16109,5
0.0,0.0,0.0,14297,21416,21690,30561,16093,5
0.0,0.0,0.0,14577,21500,21733,30591,16125,5
0.0,0.0,0.0,14876,21479,21733,30530,16125,5
0.0,0.0,0.0,15165,21416,21733,30377,16157,5
0.0,0.0,0.0,15980,21416,21711,30226,16109,5
0.0,0.0,0.0,16157,21375,21627,30045,16125,5
0.0,0.0,0.0,16450,21333,21500,29984,16125,5
0.0,0.0,0.0,16615,21375,21500,30105,16060,5
0.0,0.0,0.0,16549,21312,21458,30286,16028,5
0.0,0.0,0.0,16303,21291,21458,30469,15964,5
0.0,0.0,0.0,16093,21250,21437,30530,15852,5
0.0,0.0,0.0,15980,21229,21416,30591,15948,5
0.0,0.0,0.0,15900,21291,21416,30653,15837,5
0.0,0.0,0.0,15726,21250,21375,30653,15805,5
0.0,0.0,0.0,15584,21229,21333,30653,15868,5
0.0,0.0,0.0,15412,21125,21395,30715,15805,5
0.0,0.0,0.0,15319,21084,21354,30622,15837,5
0.0,0.0,0.0,15211,21105,21333,30684,15837,5
0.0,0.0,0.0,15089,21084,21333,30622,15852,5
0.0,0.0,0.0,14997,21064,21375,30653,15868,5
0.0,0.0,0.0,14952,21125,21354,30530,15964,5
0.0,0.0,0.0,14922,21064,21333,30499,16093,5
0.0,0.0,0.0,14876,21064,21333,30469,16028,5
0.0,0.0,0.0,14907,21125,21375,30469,16093,5
0.0,0.0,0.0,14861,21125,21395,30469,16044,5
0.0,0.0,0.0,14846,21084,21395,30469,15996,5
0.0,0.0,0.0,14876,21084,21333,30469,15996,5
0.0,0.0,0.0,14876,21125,21375,30377,15996,5
0.0,0.0,0.0,14861,21125,21395,30408,16028,5
0.0,0.0,0.0,14922,21105,21375,30408,15980,5
0.0,0.0,0.0,15058,21084,21375,30377,15948,5
0.0,0.0,0.0,15028,21084,21354,30499,15932,5
0.0,0.0,0.0,14876,21105,21375,30347,15916,5
0.0,0.0,0.0,14907,21084,21354,30408,15964,5
0.0,0.0,0.0,14907,21084,21333,30408,15916,5
0.0,0.0,0.0,14861,21084,21375,30377,15964,5
0.0,0.0,0.0,14846,21064,21416,30377,16028,5
0.0,0.0,0.0,14861,21084,21375,30377,16028,5
0.0,0.0,0.0,14816,21064,21416,30377,16125,5
0.0,0.0,0.0,14846,21125,21416,30469,16189,5
0.0,0.0,0.0,14801,21125,21479,30530,16287,5
0.0,0.0,0.0,14756,21167,21479,30469,16368,5
0.0,0.0,0.0,14786,21167,21479,30499,16336,5
0.0,0.0,0.0,14786,21208,21521,30530,16352,5
0.0,0.0,0.0,14786,21167,21479,30530,16368,5
0.0,0.0,0.0,14756,21167,21479,30561,16254,5
0.0,0.0,0.0,14696,21208,21542,30776,16206,5
0.0,0.0,0.0,14636,21229,21563,30838,16125,5
0.0,0.0,0.0,14607,21229,21542,30869,16093,5
0.0,0.0,0.0,14636,21187,21542,30869,16060,5
0.0,0.0,0.0,14666,21208,21542,30869,16093,5
0.0,0.0,0.0,14726,21208,21542,30807,16012,5
0.0,0.0,0.0,14907,21208,21542,30745,16060,5
0.0,0.0,0.0,15211,21167,21479,30776,16060,5
0.0,0.0,0.0,15119,21167,21458,30838,16028,5
0.0,0.0,0.0,15242,21208,21479,30994,16044,5
0.0,0.0,0.0,15273,21208,21458,31213,16093,5
0.0,0.0,0.0,15273,21146,21416,31339,16093,5
0.0,0.0,0.0,15366,21146,21375,31465,16125,5
0.0,0.0,0.0,15273,21125,21333,31497,16093,5
0.0,0.0,0.0,15211,21146,21333,31465,16060,5
0.0,0.0,0.0,15366,21167,21333,31465,16060,5
0.0,0.0,0.0,15600,21187,21354,31370,15980,5
0.0,0.0,0.0,15615,21229,21375,31370,16044,5
0.0,0.0,0.0,15710,21208,21291,31339,16028,5
0.0,0.0,0.0,15521,21208,21312,31370,15980,5
0.0,0.0,0.0,15647,21208,21354,31370,16028,5
0.0,0.0,0.0,15694,21250,21291,31339,15964,5
0.0,0.0,0.0,15521,21229,21312,31244,15964,5
0.0,0.0,0.0,15600,21208,21312,31119,15980,5
0.0,0.0,0.0,15710,21208,21291,31087,15948,5
0.0,0.0,0.0,15490,21167,21291,31087,15980,5
0.0,0.0,0.0,15459,21146,21291,30931,15964,5
0.0,0.0,0.0,15397,21187,21270,30900,16028,5
0.0,0.0,0.0,15335,21125,21229,30776,15996,5
0.0,0.0,0.0,15242,21105,21291,30838,16028,5
0.0,0.0,0.0,15258,21084,21208,30838,16028,5
0.0,0.0,0.0,15242,21146,21250,30776,15996,5
0.0,0.0,0.0,15242,21146,21250,30715,16060,5
0.0,0.0,0.0,15211,21146,21229,30776,15996,5
0.0,0.0,0.0,15273,21167,21208,30715,16028,5
0.0,0.0,0.0,15350,21208,21229,30653,15996,5
0.0,0.0,0.0,15242,21229,21229,30653,15996,5
0.0,0.0,0.0,15227,21146,21229,30622,16060,5
0.0,0.0,0.0,15227,21146,21270,30653,16093,5
0.0,0.0,0.0,15165,21146,21208,30653,16093,5
0.0,0.0,0.0,14967,21167,21250,30715,16157,5
0.0,0.0,0.0,14937,21125,21229,30653,16157,5
0.0,0.0,0.0,14967,21146,21250,30530,16173,5
0.0,0.0,0.0,14922,21208,21250,30591,16206,5
0.0,0.0,0.0,14907,21167,21208,30561,16222,5
0.0,0.0,0.0,14846,21167,21229,30499,16173,5
0.0,0.0,0.0,14861,21167,21250,30561,16222,5
0.0,0.0,0.0,15150,21208,21208,30499,16206,5
0.0,0.0,0.0,16109,21250,21208,30469,16222,5
0.0,0.0,0.0,15741,21208,21208,30469,16222,5
0.0,0.0,0.0,15647,21167,21208,30408,16173,5
0.0,0.0,0.0,15615,21146,21208,30438,16189,5
0.0,0.0,0.0,15615,21146,21208,30408,16222,5
0.0,0.0,0.0,15916,21208,21250,30469,16157,5
0.0,0.0,0.0,15837,21208,21229,30377,16222,5
0.0,0.0,0.0,15663,21229,21208,30347,16254,5
0.0,0.0,0.0,15521,21187,21250,30377,16238,5
0.0,0.0,0.0,15521,21229,21208,30347,16222,5
0.0,0.0,0.0,15615,21208,21208,30347,16173,5
0.0,0.0,0.0,16125,21229,21250,30286,16157,5
0.0,0.0,0.0,16060,21208,21250,30347,16206,5
0.0,0.0,0.0,16093,21291,21208,30347,16173,5
0.0,0.0,0.0,16060,21250,21229,30347,16157,5
0.0,0.0,0.0,15932,21208,21208,30286,16189,5
0.0,0.0,0.0,15852,21208,21208,30347,16093,5
0.0,0.0,0.0,15852,21291,21208,30347,16109,5
0.0,0.0,0.0,15789,21291,21250,30256,16173,5
0.0,0.0,0.0,15678,21250,21250,30226,16189,5
0.0,0.0,0.0,15615,21208,21270,30286,16222,5
0.0,0.0,0.0,15631,21229,21291,30226,16222,5
0.0,0.0,0.0,15647,21291,21333,30286,16238,5
0.0,0.0,0.0,15631,21458,21627,30591,16287,5
0.0,0.0,0.0,15647,21479,21606,30438,16352,5
0.0,0.0,0.0,15694,21627,21627,30469,16336,5
0.0,0.0,0.0,15584,21627,21563,30499,16417,5
0.0,0.0,0.0,15568,21627,21584,30438,16352,5
0.0,0.0,0.0,15490,21606,21584,30499,16385,5
0.0,0.0,0.0,15459,21584,21648,30469,16303,5
0.0,0.0,0.0,15459,21584,21584,30408,16417,5
0.0,0.0,0.0,15459,21542,21606,30347,16417,5
0.0,0.0,0.0,15412,21542,21563,30286,16417,5
0.0,0.0,0.0,15397,21542,21627,30377,16417,5
0.0,0.0,0.0,15366,21542,21542,30165,16385,5
0.0,0.0,0.0,15335,21521,21563,30286,16385,5
0.0,0.0,0.0,15273,21542,21542,30408,16417,5
0.0,0.0,0.0,15242,21500,21563,30317,16483,5
0.0,0.0,0.0,15150,21437,21606,30317,16516,5
0.0,0.0,0.0,15135,21500,21606,30256,16598,5
0.0,0.0,0.0,15089,21479,21563,30256,16648,5
0.0,0.0,0.0,15028,21542,21542,30165,16681,5
0.0,0.0,0.0,15028,21479,21584,30226,16615,5
0.0,0.0,0.0,14982,21479,21542,30165,16615,5
0.0,0.0,0.0,14907,21458,21542,30105,16615,5
0.0,0.0,0.0,14846,21416,21542,30165,16549,5
0.0,0.0,0.0,14786,21395,21479,30165,16549,5
0.0,0.0,0.0,14756,21375,21479,30165,16549,5
0.0,0.0,0.0,14741,21375,21500,30105,16549,5
0.0,0.0,0.0,14726,21395,21437,30105,16582,5
0.0,0.0,0.0,14681,21354,21479,30075,16632,5
0.0,0.0,0.0,14621,21395,21458,30045,16632,5
0.0,0.0,0.0,14607,21333,21479,30075,16681,5
0.0,0.0,0.0,14681,21375,21458,30075,16615,5
0.0,0.0,0.0,14681,21458,21458,30045,16598,5
0.0,0.0,0.0,14681,21375,21479,29984,16615,5
0.0,0.0,0.0,14786,21416,21458,29984,16582,5
0.0,0.0,0.0,15119,21416,21437,29984,16516,5
0.0,0.0,0.0,15900,21437,21395,29984,16385,5
0.0,0.0,0.0,15490,21375,21375,29984,16319,5
0.0,0.0,0.0,15506,21395,21375,30045,16287,5
0.0,0.0,0.0,15521,21354,21375,30165,16222,5
0.0,0.0,0.0,15397,21333,21333,30226,16222,5
0.0,0.0,0.0,15490,21333,21375,30286,16125,5
0.0,0.0,0.0,15412,21333,21333,30226,16109,5
0.0,0.0,0.0,15397,21333,21333,30317,16157,5
0.0,0.0,0.0,15428,21375,21375,30317,16093,5
0.0,0.0,0.0,15631,21354,21291,30347,16125,5
0.0,0.0,0.0,15584,21312,21375,30286,16125,5
0.0,0.0,0.0,16076,21375,21333,30286,16093,5
0.0,0.0,0.0,15932,21375,21208,30256,16076,5
0.0,0.0,0.0,15789,21395,21291,30408,16028,5
0.0,0.0,0.0,15964,21416,21312,30591,16044,5
0.0,0.0,0.0,16109,21458,21270,30715,16060,5
0.0,0.0,0.0,16238,21416,21250,30745,16109,5
0.0,0.0,0.0,16516,21458,21291,30776,16093,5
0.0,0.0,0.0,16765,21542,21312,30900,15900,5
0.0,0.0,0.0,16898,21500,21333,30869,15964,5
0.0,0.0,0.0,16882,21542,21291,30776,15900,5
0.0,0.0,0.0,16648,21542,21333,30931,15805,5
0.0,0.0,0.0,16615,21500,21354,30900,15868,5
0.0,0.0,0.0,16549,21458,21291,30807,15789,5
0.0,0.0,0.0,16648,21500,21333,30838,15773,5
0.0,0.0,0.0,16765,21542,21375,30869,15757,5
0.0,0.0,0.0,17016,21584,21312,30838,15773,5
0.0,0.0,0.0,16815,21521,21291,30838,15757,5
0.0,0.0,0.0,16385,21500,21312,30807,15773,5
0.0,0.0,0.0,16254,21437,21250,30745,15741,5
0.0,0.0,0.0,16222,21375,21229,30715,15773,5
0.0,0.0,0.0,16189,21375,21208,30622,15741,5
0.0,0.0,0.0,16028,21333,21208,30591,15789,5
0.0,0.0,0.0,15710,21312,21208,30591,15900,5
0.0,0.0,0.0,15521,21270,21208,30622,15916,5
0.0,0.0,0.0,15288,21208,21167,30591,15932,5
0.0,0.0,0.0,14967,21167,21167,30591,15980,5
0.0,0.0,0.0,14399,21208,21167,30715,15980,5
0.0,0.0,0.0,14385,21208,21125,30530,15996,5
0.0,0.0,0.0,14253,21208,21125,30530,15996,5
0.0,0.0,0.0,14253,21229,21187,30530,16060,5
0.0,0.0,0.0,14108,21208,21146,30530,15980,5
0.0,0.0,0.0,14021,21229,21146,30561,15996,5
0.0,0.0,0.0,13792,21291,21208,30591,15996,5
0.0,0.0,0.0,13510,21333,21208,30561,16028,5
0.0,0.0,0.0,13343,21333,21146,30530,16028,5
0.0,0.0,0.0,13232,21333,21167,30530,16060,5
0.0,0.0,0.0,13177,21291,21146,30499,16060,5
0.0,0.0,0.0,13040,21291,21146,30499,16044,5
0.0,0.0,0.0,13013,21395,21125,30469,16076,5
0.0,0.0,0.0,12932,21333,21146,30469,16093,5
0.0,0.0,0.0,12905,21333,21125,30408,16157,5
0.0,0.0,0.0,12824,21312,21146,30530,16157,5
0.0,0.0,0.0,12797,21312,21125,30408,16222,5
0.0,0.0,0.0,12770,21333,21125,30408,16222,5
0.0,0.0,0.0,12743,21333,21125,30408,16303,5
0.0,0.0,0.0,12743,21312,21105,30377,16222,5
0.0,0.0,0.0,12716,21291,21125,30408,16271,5
0.0,0.0,0.0,12716,21270,21105,30377,16238,5
0.0,0.0,0.0,12743,21312,21146,30408,16238,5
0.0,0.0,0.0,12743,21208,21084,30347,16287,5
0.0,0.0,0.0,12756,21250,21084,30286,16303,5
0.0,0.0,0.0,12770,21270,21084,30286,16287,5
0.0,0.0,0.0,12716,21229,21084,30256,16303,5
0.0,0.0,0.0,12716,21250,21084,30286,16287,5
0.0,0.0,0.0,12797,21250,21105,30226,16303,5
0.0,0.0,0.0,12530,21291,21125,30256,16368,5
0.0,0.0,0.0,12372,21250,21064,30195,16352,5
0.0,0.0,0.0,12346,21270,21064,30195,16303,5
0.0,0.0,0.0,12346,21291,21002,30045,16319,5
0.0,0.0,0.0,12583,21208,20981,29895,16368,5
0.0,0.0,0.0,12905,21208,20961,29895,16352,5
0.0,0.0,0.0,13054,21208,20899,29805,16352,5
0.0,0.0,0.0,12959,21125,20899,29775,16352,5
0.0,0.0,0.0,12959,21167,20920,29716,16319,5
0.0,0.0,0.0,12797,21146,20879,29746,16352,5
0.0,0.0,0.0,12703,21125,20879,29657,16319,5
0.0,0.0,0.0,12716,21105,20899,29686,16352,5
0.0,0.0,0.0,12690,21125,20879,29657,16303,5
0.0,0.0,0.0,12690,21043,20879,29686,16287,5
0.0,0.0,0.0,12610,21084,20879,29509,16303,5
0.0,0.0,0.0,12636,21043,20879,29509,16287,5
0.0,0.0,0.0,12623,21043,20899,29391,16238,5
0.0,0.0,0.0,12649,21043,20879,29304,16238,5
0.0,0.0,0.0,12716,21043,20838,29450,16189,5
0.0,0.0,0.0,12690,21043,20879,29304,16157,5
0.0,0.0,0.0,12703,21043,20879,29304,16109,5
0.0,0.0,0.0,12743,21043,20899,29274,16157,5
0.0,0.0,0.0,12756,21105,20879,29333,16125,5
0.0,0.0,0.0,12743,21105,20899,29333,16093,5
0.0,0.0,0.0,12743,21084,20879,29245,16125,5
0.0,0.0,0.0,12756,21064,20879,29158,16303,5
0.0,0.0,0.0,12743,21105,20879,28783,16765,5
0.0,0.0,0.0,12703,21084,20879,28640,16781,5
0.0,0.0,0.0,12690,21084,20981,27718,16681,5
0.0,0.0,0.0,12649,21084,21043,26935,16781,5
0.0,0.0,0.0,12636,21043,21043,25894,16815,5
0.0,0.0,0.0,12504,21043,20961,25044,16865,5
0.0,0.0,0.0,12438,21002,20961,24702,16882,5
0.0,0.0,0.0,12385,21043,20879,24510,16831,5
0.0,0.0,0.0,12372,20879,20879,24510,16865,5
0.0,0.0,0.0,12346,20981,20838,24510,16831,5
0.0,0.0,0.0,12359,20981,20838,24390,16831,5
0.0,0.0,0.0,12346,20981,20798,24414,16848,5
0.0,0.0,0.0,12306,20961,20879,24366,16831,5
0.0,0.0,0.0,12320,20899,20838,24366,16781,5
0.0,0.0,0.0,12293,20838,20716,24176,16815,5
0.0,0.0,0.0,12293,20798,20716,24199,16815,5
0.0,0.0,0.0,12280,20818,20676,24129,16781,5
0.0,0.0,0.0,12267,20818,20636,24081,16765,5
0.0,0.0,0.0,12267,20818,20636,24081,16815,5
0.0,0.0,0.0,12267,20757,20595,24129,16798,5
0.0,0.0,0.0,12267,20777,20575,24081,16831,5
0.0,0.0,0.0,12228,20777,20555,24081,16781,5
0.0,0.0,0.0,12267,20757,20575,24129,16748,5
0.0,0.0,0.0,12267,20737,20595,24390,16681,5
0.0,0.0,0.0,12293,20737,20575,24534,16681,5
0.0,0.0,0.0,12267,20716,20595,24534,16681,5
0.0,0.0,0.0,12320,20716,20575,24702,16632,5
0.0,0.0,0.0,12346,20716,20575,24606,16632,5
0.0,0.0,0.0,12320,20737,20636,24702,16582,5
0.0,0.0,0.0,12346,20676,20595,24799,16598,5
0.0,0.0,0.0,12346,20676,20636,24848,16582,5
0.0,0.0,0.0,12346,20676,20595,24824,16615,5
0.0,0.0,0.0,12346,20676,20595,24654,16598,5
0.0,0.0,0.0,12320,20716,20595,24462,16615,5
0.0,0.0,0.0,12320,20676,20575,24510,16549,5
0.0,0.0,0.0,12346,20676,20595,24510,16615,5
0.0,0.0,0.0,12346,20656,20575,24582,16615,5
0.0,0.0,0.0,12346,20656,20555,24630,16582,5
0.0,0.0,0.0,12346,20676,20555,24654,16615,5
0.0,0.0,0.0,12372,20757,20636,24654,16582,5
0.0,0.0,0.0,12372,20818,20636,24702,16565,5
0.0,0.0,0.0,12372,20757,20636,24751,16549,5
0.0,0.0,0.0,12398,20798,20676,24799,16549,5
0.0,0.0,0.0,12372,20798,20676,24946,16582,5
0.0,0.0,0.0,12372,20737,20676,24921,16565,5
0.0,0.0,0.0,12346,20737,20656,24751,16549,5
0.0,0.0,0.0,12346,20798,20636,24606,16598,5
0.0,0.0,0.0,12346,20879,20656,24414,16582,5
0.0,0.0,0.0,12306,20879,20696,24318,16632,5
0.0,0.0,0.0,12280,20879,20716,24034,16582,5
0.0,0.0,0.0,12267,20777,20716,23294,16615,5
0.0,0.0,0.0,12241,20716,20676,23112,16632,5
0.0,0.0,0.0,12228,20716,20555,22977,16648,5
0.0,0.0,0.0,12215,20757,20515,22955,16615,5
0.0,0.0,0.0,12215,20757,20475,23067,16615,5
0.0,0.0,0.0,12189,20716,20515,23271,16615,5
0.0,0.0,0.0,12137,20716,20535,23940,16565,5
0.0,0.0,0.0,12124,20716,20656,24606,16582,5
0.0,0.0,0.0,12189,20798,20737,25142,16516,5
0.0,0.0,0.0,12215,20879,20879,25641,16483,5
0.0,0.0,0.0,12293,20920,20981,25742,16483,5
0.0,0.0,0.0,12293,21043,21125,26099,16483,5
0.0,0.0,0.0,12280,21125,21416,27202,16417,5
0.0,0.0,0.0,12228,21125,21584,27663,16368,5
0.0,0.0,0.0,12189,21146,21627,27636,16352,5
0.0,0.0,0.0,12163,21208,21711,27581,16352,5
0.0,0.0,0.0,12112,21125,21627,27256,16368,5
0.0,0.0,0.0,12086,21125,21627,27256,16368,5
0.0,0.0,0.0,12124,21125,21648,27364,16303,5
0.0,0.0,0.0,12112,21064,21627,27310,16336,5
0.0,0.0,0.0,12124,21125,21627,27256,16287,5
0.0,0.0,0.0,12124,21105,21648,27175,16319,5
0.0,0.0,0.0,12112,21043,21584,27148,16303,5
0.0,0.0,0.0,12073,21105,21584,27283,16303,5
0.0,0.0,0.0,12086,21064,21563,27283,16352,5
0.0,0.0,0.0,12073,21064,21542,27364,16303,5
0.0,0.0,0.0,12086,21043,21542,27364,16254,5
0.0,0.0,0.0,12086,21002,21542,27418,16303,5
0.0,0.0,0.0,12073,21084,21542,27472,16287,5
0.0,0.0,0.0,12060,21064,21521,27472,16303,5
0.0,0.0,0.0,12086,21002,21500,27527,16303,5
0.0,0.0,0.0,12086,21043,21479,27445,16222,5
0.0,0.0,0.0,12073,21043,21479,27418,16222,5
0.0,0.0,0.0,12112,20981,21479,27418,16238,5
0.0,0.0,0.0,12073,20961,21458,27418,16189,5
0.0,0.0,0.0,12086,20961,21416,27472,16157,5
0.0,0.0,0.0,12112,20961,21416,27418,16173,5
0.0,0.0,0.0,12086,20940,21437,27418,16125,5
0.0,0.0,0.0,12073,20940,21375,27472,16157,5
0.0,0.0,0.0,12112,20961,21375,27310,16028,5
0.0,0.0,0.0,12060,20899,21375,27256,16060,5
0.0,0.0,0.0,12060,20818,21375,27041,16028,5
0.0,0.0,0.0,12086,20899,21375,26776,16222,5
0.0,0.0,0.0,12073,20859,21312,26644,16417,5
0.0,0.0,0.0,12073,20798,21291,26566,16434,5
0.0,0.0,0.0,12060,20737,21270,26723,16368,5
0.0,0.0,0.0,12034,20757,21291,26723,16287,5
0.0,0.0,0.0,12060,20716,21291,26988,16254,5
0.0,0.0,0.0,12021,20676,21291,27041,16109,5
0.0,0.0,0.0,12034,20716,21229,27068,16157,5
0.0,0.0,0.0,12009,20656,21229,27041,16157,5
0.0,0.0,0.0,12034,20676,21229,26988,16157,5
0.0,0.0,0.0,12060,20676,21229,27041,16157,5
0.0,0.0,0.0,12034,20656,21208,27041,16254,5
0.0,0.0,0.0,12034,20656,21229,27175,16254,5
0.0,0.0,0.0,12009,20636,21208,27095,16238,5
0.0,0.0,0.0,12009,20615,21250,27148,16157,5
0.0,0.0,0.0,12009,20575,21208,27175,15964,5
0.0,0.0,0.0,12009,20555,21208,27175,15773,5
0.0,0.0,0.0,12009,20555,21229,27283,15773,5
0.0,0.0,0.0,11983,20555,21167,27283,15694,5
0.0,0.0,0.0,12047,20475,21229,27364,15615,5
0.0,0.0,0.0,12034,20535,21208,27418,15600,5
0.0,0.0,0.0,12099,20515,21187,27364,15521,5
0.0,0.0,0.0,12086,20515,21167,27364,15553,5
0.0,0.0,0.0,12073,20495,21187,27364,15428,5
0.0,0.0,0.0,12060,20495,21125,27310,15521,5
0.0,0.0,0.0,12060,20515,21125,27256,15490,5
0.0,0.0,0.0,12112,20515,21084,27337,15537,5
0.0,0.0,0.0,12163,20555,21084,27364,15584,5
0.0,0.0,0.0,12189,20555,21125,27418,15726,5
0.0,0.0,0.0,12267,20555,21146,27472,15710,5
0.0,0.0,0.0,12293,20595,21125,27472,15600,5
0.0,0.0,0.0,12372,20515,21084,27527,15553,5
0.0,0.0,0.0,12398,20515,21125,27527,15615,5
0.0,0.0,0.0,12306,20495,21084,27472,15647,5
0.0,0.0,0.0,12267,20495,21125,27581,15678,5
0.0,0.0,0.0,12280,20475,21064,27745,15789,5
0.0,0.0,0.0,12215,20475,21084,27609,16028,5
0.0,0.0,0.0,12202,20435,21043,27581,16352,5
0.0,0.0,0.0,12189,20475,21064,27472,16141,5
0.0,0.0,0.0,12163,20495,21084,27527,15837,5
0.0,0.0,0.0,12215,20495,21043,27609,15647,5
0.0,0.0,0.0,12215,20475,21043,27581,15475,5
0.0,0.0,0.0,12176,20455,21043,27581,15475,5
0.0,0.0,0.0,12215,20435,21043,27554,15475,5
0.0,0.0,0.0,12267,20415,21043,27581,15553,5
0.0,0.0,0.0,12124,20415,21022,27581,15475,5
0.0,0.0,0.0,11944,20515,21064,27581,15397,5
0.0,0.0,0.0,11678,20636,21084,27718,14997,5
0.0,0.0,0.0,11703,20535,20879,27911,14922,5
0.0,0.0,0.0,12583,20335,20275,27418,14831,5
0.0,0.0,0.0,13693,20216,19863,27095,14846,5
0.0,0.0,0.0,14195,19921,19174,26047,14816,5
0.0,0.0,0.0,14607,19631,18526,25241,14666,5
0.0,0.0,0.0,14997,19612,18362,25167,14311,5
0.0,0.0,0.0,14997,19766,18290,25742,14079,5
0.0,0.0,0.0,14503,19766,18182,25869,14079,5
0.0,0.0,0.0,14209,19727,17845,25818,14577,5
0.0,0.0,0.0,13301,18968,16549,23157,14503,5
0.0,0.0,0.0,12972,18764,16434,22270,14282,5
0.0,0.0,0.0,13027,19005,16882,22226,14036,5
0.0,0.0,0.0,12905,19382,17565,22423,13806,5
0.0,0.0,0.0,13232,19921,18746,23730,13679,5
0.0,0.0,0.0,13482,20615,19766,25793,13679,5
0.0,0.0,0.0,13878,20636,19921,26099,13735,5
0.0,0.0,0.0,14518,20961,20636,27122,14021,5
0.0,0.0,0.0,15288,21125,20920,27745,14036,5
0.0,0.0,0.0,15443,21064,20920,27828,14079,5
0.0,0.0,0.0,15600,21064,20879,27745,14137,5
0.0,0.0,0.0,15678,21043,20879,27828,14137,5
0.0,0.0,0.0,15741,21125,20920,27939,14195,5
0.0,0.0,0.0,15615,21043,20920,27911,14253,5
0.0,0.0,0.0,15647,21043,20859,27828,14253,5
0.0,0.0,0.0,15631,21002,20838,27800,14311,5
0.0,0.0,0.0,15773,21043,20899,27856,14341,5
0.0,0.0,0.0,16028,20981,20818,27745,14370,5
0.0,0.0,0.0,16287,20899,20716,27527,14341,5
0.0,0.0,0.0,16549,20818,20636,27337,14370,5
0.0,0.0,0.0,16681,20696,20415,26988,14385,5
0.0,0.0,0.0,16815,20595,20315,26882,14370,5
0.0,0.0,0.0,16999,20575,20275,26670,14414,5
0.0,0.0,0.0,16748,20555,20176,26618,14562,5
0.0,0.0,0.0,16632,20555,20236,26331,14726,5
0.0,0.0,0.0,16582,20555,20236,26202,14726,5
0.0,0.0,0.0,16831,20535,20216,26305,14681,5
0.0,0.0,0.0,16565,20515,20196,26305,14636,5
0.0,0.0,0.0,16483,20495,20216,26357,14577,5
0.0,0.0,0.0,16434,20555,20196,26383,14458,5
0.0,0.0,0.0,16385,20455,20236,26357,14429,5
0.0,0.0,0.0,16303,20415,20176,26409,14341,5
0.0,0.0,0.0,16189,20475,20176,26409,14385,5
0.0,0.0,0.0,16093,20435,20157,26513,14429,5
0.0,0.0,0.0,16028,20415,20078,26305,14458,5
0.0,0.0,0.0,15948,20375,20078,26305,14547,5
0.0,0.0,0.0,15916,20395,20078,26253,14547,5
0.0,0.0,0.0,15852,20315,19960,26099,14518,5
0.0,0.0,0.0,15868,20157,19843,25945,14444,5
0.0,0.0,0.0,15837,20157,19785,25894,14444,5
0.0,0.0,0.0,15900,20078,19785,25894,14488,5
0.0,0.0,0.0,15837,20098,19727,25742,14473,5
0.0,0.0,0.0,15837,20019,19535,25291,14488,5
0.0,0.0,0.0,15773,20019,19458,25142,14518,5
0.0,0.0,0.0,15821,19999,19420,25044,14547,5
0.0,0.0,0.0,15773,19921,19325,24946,14444,5
0.0,0.0,0.0,15741,19882,19382,25142,14429,5
0.0,0.0,0.0,15773,19843,19401,25440,14370,5
0.0,0.0,0.0,15773,19921,19420,25415,14311,5
0.0,0.0,0.0,15710,19863,19344,25390,14253,5
0.0,0.0,0.0,15726,19863,19458,25616,14311,5
0.0,0.0,0.0,15726,19921,19458,25691,14282,5
0.0,0.0,0.0,15710,19843,19458,25591,14268,5
0.0,0.0,0.0,15710,19863,19401,25591,14311,5
0.0,0.0,0.0,15694,19863,19458,25616,14282,5
0.0,0.0,0.0,15678,19882,19477,25641,14326,5
0.0,0.0,0.0,15678,19843,19458,25515,14341,5
0.0,0.0,0.0,15663,19843,19458,25540,14370,5
0.0,0.0,0.0,15647,19882,19497,25717,14311,5
0.0,0.0,0.0,15678,19921,19535,25515,14429,5
0.0,0.0,0.0,15647,19921,19535,25490,14399,5
0.0,0.0,0.0,15647,19843,19497,25291,14458,5
0.0,0.0,0.0,15615,19863,19497,25316,14429,5
0.0,0.0,0.0,15631,19863,19497,25291,14429,5
0.0,0.0,0.0,15584,19843,19497,25365,14385,5
0.0,0.0,0.0,15615,19863,19497,25316,14311,5
0.0,0.0,0.0,15568,19863,19535,25316,14341,5
0.0,0.0,0.0,15615,19863,19458,25390,14341,5
0.0,0.0,0.0,15584,19863,19535,25390,14341,5
0.0,0.0,0.0,15615,19921,19573,25390,14370,5
0.0,0.0,0.0,15615,19863,19573,25440,14370,5
0.0,0.0,0.0,15615,19921,19612,25490,14370,5
0.0,0.0,0.0,15600,19999,19689,25565,14385,5
0.0,0.0,0.0,15584,19999,19689,25515,14429,5
0.0,0.0,0.0,15584,20039,19689,25490,14518,5
0.0,0.0,0.0,15584,19999,19689,25440,14518,5
0.0,0.0,0.0,15615,19941,19689,25415,14473,5
0.0,0.0,0.0,15710,19960,19689,25616,14458,5
0.0,0.0,0.0,15837,20157,19785,25742,14444,5
0.0,0.0,0.0,15900,20176,19941,25869,14488,5
0.0,0.0,0.0,15916,20335,20137,26253,14458,5
0.0,0.0,0.0,15980,20315,20117,26202,14488,5
0.0,0.0,0.0,16141,20335,20117,26150,14503,5
0.0,0.0,0.0,15980,20315,20117,26099,14488,5
0.0,0.0,0.0,15916,20275,20078,26073,14429,5
0.0,0.0,0.0,15837,20196,20058,25894,14488,5
0.0,0.0,0.0,15741,20157,19941,25717,14488,5
0.0,0.0,0.0,15584,20157,19902,25591,14488,5
0.0,0.0,0.0,15335,20216,19999,25540,14503,5
0.0,0.0,0.0,14696,20275,19999,25440,14681,5
0.0,0.0,0.0,14681,20415,20117,25390,14786,5
0.0,0.0,0.0,14801,20595,20196,25291,14861,5
0.0,0.0,0.0,14861,20676,20475,25415,14846,5
0.0,0.0,0.0,14801,20636,20415,25365,14816,5
0.0,0.0,0.0,14696,20555,20415,25341,14801,5
0.0,0.0,0.0,14666,20475,20455,25390,14756,5
0.0,0.0,0.0,14666,20435,20375,25390,14756,5
0.0,0.0,0.0,14636,20475,20475,25591,14741,5
0.0,0.0,0.0,14621,20495,20495,25691,14756,5
0.0,0.0,0.0,14666,20475,20495,25691,14786,5
0.0,0.0,0.0,14607,20435,20575,25767,14771,5
0.0,0.0,0.0,14547,20475,20636,25742,14786,5
0.0,0.0,0.0,14311,20475,20656,25742,14786,5
0.0,0.0,0.0,14282,20595,20716,25843,14771,5
0.0,0.0,0.0,14253,20595,20798,25818,14846,5
0.0,0.0,0.0,14151,20716,20879,25894,14831,5
0.0,0.0,0.0,13992,20737,20981,25920,14846,5
0.0,0.0,0.0,13863,20838,21043,26047,14816,5
0.0,0.0,0.0,13566,20879,21064,26202,14801,5
0.0,0.0,0.0,13081,20879,21002,26228,14786,5
0.0,0.0,0.0,12972,20859,21022,26202,14786,5
0.0,0.0,0.0,13191,20777,20981,26176,14786,5
0.0,0.0,0.0,12999,20737,20961,26176,14801,5
0.0,0.0,0.0,12959,20716,20961,26150,14786,5
0.0,0.0,0.0,12932,20757,20961,26202,14846,5
0.0,0.0,0.0,12905,20676,20940,26202,14846,5
0.0,0.0,0.0,12905,20676,20961,26228,14801,5
0.0,0.0,0.0,12864,20676,20961,26228,14831,5
0.0,0.0,0.0,12918,20656,20899,26202,14846,5
0.0,0.0,0.0,12878,20676,20961,26253,14876,5
0.0,0.0,0.0,12932,20676,20899,26202,14907,5
0.0,0.0,0.0,12878,20676,20879,26150,14846,5
0.0,0.0,0.0,12824,20636,20940,26124,14861,5
0.0,0.0,0.0,12864,20656,20879,26099,14846,5
0.0,0.0,0.0,12878,20636,20920,26124,14861,5
0.0,0.0,0.0,13068,20575,20879,26047,14861,5
0.0,0.0,0.0,14079,20636,20899,25996,14831,5
0.0,0.0,0.0,14741,20656,20879,26022,14861,5
0.0,0.0,0.0,14547,20636,20838,25894,14907,5
0.0,0.0,0.0,14666,20676,20961,25920,14846,5
0.0,0.0,0.0,14341,20656,20859,25920,14771,5
0.0,0.0,0.0,14297,20676,20879,25894,14846,5
0.0,0.0,0.0,14166,20636,20899,25920,14816,5
0.0,0.0,0.0,14122,20676,20879,26022,14786,5
0.0,0.0,0.0,14108,20636,20879,26124,14876,5
0.0,0.0,0.0,14166,20636,20879,26099,14831,5
0.0,0.0,0.0,14209,20676,20879,26047,14786,5
0.0,0.0,0.0,14151,20636,20838,26099,14846,5
0.0,0.0,0.0,14137,20656,20879,26150,14786,5
0.0,0.0,0.0,14108,20676,20879,26099,14801,5
0.0,0.0,0.0,14021,20636,20818,26124,14846,5
0.0,0.0,0.0,14050,20595,20879,26099,14816,5
0.0,0.0,0.0,13992,20575,20818,26099,14816,5
0.0,0.0,0.0,13949,20636,20838,26099,14786,5
0.0,0.0,0.0,13978,20595,20879,26099,14861,5
0.0,0.0,0.0,13964,20575,20838,26150,14846,5
0.0,0.0,0.0,13949,20595,20798,26176,14876,5
0.0,0.0,0.0,13921,20575,20818,26124,14801,5
0.0,0.0,0.0,13921,20636,20859,26202,14846,5
0.0,0.0,0.0,13878,20555,20879,26253,14846,5
0.0,0.0,0.0,13878,20575,20818,26253,14801,5
0.0,0.0,0.0,13863,20575,20859,26331,14861,5
0.0,0.0,0.0,13849,20575,20818,26357,14846,5
0.0,0.0,0.0,13849,20636,20899,26409,14907,5
0.0,0.0,0.0,13835,20595,20961,26513,14801,5
0.0,0.0,0.0,13849,20636,20920,26618,14741,5
0.0,0.0,0.0,13806,20595,20961,26670,14636,5
0.0,0.0,0.0,13849,20636,20981,26723,14458,5
0.0,0.0,0.0,13849,20595,20961,26644,14311,5
0.0,0.0,0.0,13821,20595,20899,26618,14195,5
0.0,0.0,0.0,13849,20555,20920,26723,14036,5
0.0,0.0,0.0,13849,20575,20940,26723,13964,5
0.0,0.0,0.0,13849,20555,20879,26723,13964,5
0.0,0.0,0.0,13849,20515,20879,26723,13906,5
0.0,0.0,0.0,13835,20515,20879,26670,13921,5
0.0,0.0,0.0,13792,20555,20899,26670,14195,5
0.0,0.0,0.0,13792,20555,20899,26618,14414,5
0.0,0.0,0.0,13821,20575,20879,26566,14429,5
0.0,0.0,0.0,13792,20535,20818,26487,14458,5
0.0,0.0,0.0,13806,20515,20838,26513,14488,5
0.0,0.0,0.0,13806,20495,20838,26566,14414,5
0.0,0.0,0.0,13764,20515,20818,26513,14370,5
0.0,0.0,0.0,13792,20475,20818,26566,14253,5
0.0,0.0,0.0,13735,20475,20798,26513,14050,5
0.0,0.0,0.0,13735,20475,20879,26618,13806,5
0.0,0.0,0.0,13735,20475,20818,26670,13580,5
0.0,0.0,0.0,13792,20535,20879,26723,13566,5
0.0,0.0,0.0,13778,20495,20818,26723,13426,5
0.0,0.0,0.0,13806,20495,20798,26723,13371,5
0.0,0.0,0.0,13806,20475,20777,26749,13260,5
0.0,0.0,0.0,13849,20475,20798,26882,13232,5
0.0,0.0,0.0,13821,20475,20798,26935,13136,5
0.0,0.0,0.0,13849,20475,20798,26961,13122,5
0.0,0.0,0.0,13849,20455,20737,26961,13095,5
0.0,0.0,0.0,13849,20435,20757,26935,13136,5
0.0,0.0,0.0,13849,20435,20757,26882,13482,5
0.0,0.0,0.0,13863,20415,20798,26882,14079,5
0.0,0.0,0.0,13863,20475,20818,26882,14108,5
0.0,0.0,0.0,13921,20415,20757,26829,13992,5
0.0,0.0,0.0,13863,20395,20777,26882,13792,5
0.0,0.0,0.0,13863,20415,20757,26908,13454,5
0.0,0.0,0.0,13863,20435,20737,26935,13468,5
0.0,0.0,0.0,13863,20435,20737,26935,13398,5
0.0,0.0,0.0,13821,20415,20716,26935,13384,5
0.0,0.0,0.0,13821,20435,20716,26961,13343,5
0.0,0.0,0.0,13821,20435,20737,26988,13287,5
0.0,0.0,0.0,13792,20395,20716,26988,13287,5
0.0,0.0,0.0,13821,20415,20696,27015,13260,5
0.0,0.0,0.0,13806,20415,20676,26935,13343,5
0.0,0.0,0.0,13821,20395,20777,26961,13287,5
0.0,0.0,0.0,13821,20415,20716,26961,13315,5
0.0,0.0,0.0,13849,20395,20716,26988,13274,5
0.0,0.0,0.0,13821,20395,20716,26935,13260,5
0.0,0.0,0.0,13806,20395,20656,26935,13150,5
0.0,0.0,0.0,13835,20395,20716,26935,13122,5
0.0,0.0,0.0,13849,20395,20676,26908,13136,5
0.0,0.0,0.0,13849,20395,20656,26882,13081,5
0.0,0.0,0.0,13863,20395,20676,26829,13068,5
0.0,0.0,0.0,13906,20395,20696,26829,13027,5
0.0,0.0,0.0,13906,20395,20656,26802,13040,5
0.0,0.0,0.0,13964,20415,20656,26882,13068,5
0.0,0.0,0.0,13964,20395,20676,26908,13081,5
0.0,0.0,0.0,14064,20395,20676,26855,12918,5
0.0,0.0,0.0,14195,20395,20495,26882,12743,5
0.0,0.0,0.0,14253,20335,20415,26935,12703,5
0.0,0.0,0.0,14311,20295,20395,26882,12610,5
0.0,0.0,0.0,14414,20315,20335,26829,13150,5
0.0,0.0,0.0,14607,20137,20098,26618,13426,5
0.0,0.0,0.0,14846,20098,19960,26487,13679,5
0.0,0.0,0.0,14726,20039,19921,26409,13749,5
0.0,0.0,0.0,14786,20078,19863,26357,13849,5
0.0,0.0,0.0,14786,19960,19805,26228,14007,5
0.0,0.0,0.0,14801,19999,19785,26202,14108,5
0.0,0.0,0.0,14846,19999,19766,25996,14137,5
0.0,0.0,0.0,14801,20039,19785,25920,14268,5
0.0,0.0,0.0,14786,19960,19766,25591,14238,5
0.0,0.0,0.0,14726,20019,19766,25515,14253,5
0.0,0.0,0.0,14681,20019,19727,25440,14224,5
0.0,0.0,0.0,14577,20019,19766,25390,14253,5
0.0,0.0,0.0,14547,19999,19766,25390,14195,5
0.0,0.0,0.0,14547,19999,19766,25440,14224,5
0.0,0.0,0.0,14518,19960,19766,25390,14195,5
0.0,0.0,0.0,14518,20019,19805,25490,14195,5
0.0,0.0,0.0,14488,20019,19785,25616,14151,5
0.0,0.0,0.0,14518,20019,19843,25818,14137,5
0.0,0.0,0.0,14444,20058,19863,25742,14166,5
0.0,0.0,0.0,14429,20039,19882,25717,14151,5
0.0,0.0,0.0,14399,20019,19863,25742,14180,5
0.0,0.0,0.0,14385,20078,19863,25717,14137,5
0.0,0.0,0.0,14385,20078,19882,25717,14137,5
0.0,0.0,0.0,14341,20078,19921,25742,14122,5
0.0,0.0,0.0,14370,20078,19863,25742,14108,5
0.0,0.0,0.0,14370,20019,19843,25641,14166,5
0.0,0.0,0.0,14370,19999,19805,25591,14108,5
0.0,0.0,0.0,14370,19999,19785,25591,14108,5
0.0,0.0,0.0,14326,19980,19708,25540,14079,5
0.0,0.0,0.0,14370,19960,19708,25540,14021,5
0.0,0.0,0.0,14503,20078,19708,25616,14036,5
0.0,0.0,0.0,14907,20157,19766,25616,14050,5
0.0,0.0,0.0,15710,20157,19785,25641,14108,5
0.0,0.0,0.0,15996,20196,19843,25641,14137,5
0.0,0.0,0.0,17220,20196,19999,25894,14341,5
0.0,0.0,0.0,17845,20176,20078,26022,14547,5
0.0,0.0,0.0,17951,20236,20176,26279,14681,5
0.0,0.0,0.0,17774,20176,20157,26228,14636,5
0.0,0.0,0.0,17704,20157,20098,25996,14801,5
0.0,0.0,0.0,17565,20236,20039,25996,14726,5
0.0,0.0,0.0,17186,20196,20039,25996,14786,5
0.0,0.0,0.0,17050,20176,20058,25996,14756,5
0.0,0.0,0.0,16848,20157,20039,26022,14816,5
0.0,0.0,0.0,16748,20176,20039,25996,14801,5
0.0,0.0,0.0,16615,20157,20039,25971,14816,5
0.0,0.0,0.0,16352,20216,20039,26047,14846,5
0.0,0.0,0.0,16060,20157,20039,26047,14801,5
0.0,0.0,0.0,15964,20137,20078,26150,14801,5
0.0,0.0,0.0,15837,20176,20078,26253,14786,5
0.0,0.0,0.0,15757,20176,20117,26279,14786,5
0.0,0.0,0.0,15694,20176,20137,26279,14786,5
0.0,0.0,0.0,15521,20216,20098,26305,14786,5
0.0,0.0,0.0,15475,20196,20117,26228,14741,5
0.0,0.0,0.0,15412,20157,20137,26305,14786,5
0.0,0.0,0.0,15335,20137,20098,26253,14786,5
0.0,0.0,0.0,15273,20157,20098,26202,14726,5
0.0,0.0,0.0,15211,20157,20098,26331,14666,5
0.0,0.0,0.0,15227,20157,20078,26331,14651,5
0.0,0.0,0.0,15211,20157,20078,26305,14607,5
0.0,0.0,0.0,15150,20157,20117,26409,14651,5
0.0,0.0,0.0,15150,20196,20157,26461,14666,5
0.0,0.0,0.0,15104,20236,20157,26513,14636,5
0.0,0.0,0.0,15058,20216,20098,26435,14621,5
0.0,0.0,0.0,15028,20236,20137,26435,14666,5
0.0,0.0,0.0,15211,20355,20196,26513,14681,5
0.0,0.0,0.0,15335,20716,20435,26644,14786,5
0.0,0.0,0.0,15227,20636,20355,26566,14786,5
0.0,0.0,0.0,15181,20495,20355,26461,14786,5
0.0,0.0,0.0,15150,20555,20315,26513,14801,5
0.0,0.0,0.0,15119,20555,20315,26461,14786,5
0.0,0.0,0.0,15135,20535,20395,26461,14801,5
0.0,0.0,0.0,15104,20636,20475,26566,14801,5
0.0,0.0,0.0,15119,20656,20435,26461,14756,5
0.0,0.0,0.0,15058,20636,20435,26461,14771,5
0.0,0.0,0.0,14982,20595,20395,26461,14741,5
0.0,0.0,0.0,14937,20595,20395,26435,14741,5
0.0,0.0,0.0,14801,20555,20395,26409,14846,5
0.0,0.0,0.0,14771,20555,20415,26357,14861,5
0.0,0.0,0.0,14786,20555,20395,26305,14876,5
0.0,0.0,0.0,14607,20555,20375,26409,14876,5
0.0,0.0,0.0,14547,20515,20375,26566,14861,5
0.0,0.0,0.0,14518,20495,20415,26566,14816,5
0.0,0.0,0.0,14518,20475,20375,26566,14786,5
0.0,0.0,0.0,14503,20555,20395,26383,14741,5
0.0,0.0,0.0,14488,20475,20375,26409,14756,5
0.0,0.0,0.0,14444,20495,20335,26253,14831,5
0.0,0.0,0.0,14488,20455,20335,26279,14846,5
0.0,0.0,0.0,14429,20455,20375,26305,14831,5
0.0,0.0,0.0,14385,20475,20335,26279,14786,5
0.0,0.0,0.0,14341,20475,20315,26202,14816,5
0.0,0.0,0.0,14311,20435,20275,26124,14816,5
0.0,0.0,0.0,14268,20415,20216,26150,14801,5
0.0,0.0,0.0,14253,20415,20196,26124,14786,5
0.0,0.0,0.0,14224,20415,20176,26124,14876,5
0.0,0.0,0.0,14253,20395,20196,26150,14861,5
0.0,0.0,0.0,14209,20335,20196,26099,14861,5
0.0,0.0,0.0,14209,20335,20196,26099,14846,5
0.0,0.0,0.0,14180,20375,20196,26124,14861,5
0.0,0.0,0.0,14166,20315,20176,26099,14846,5
0.0,0.0,0.0,14137,20335,20157,26047,14861,5
0.0,0.0,0.0,14166,20395,20157,26073,14876,5
0.0,0.0,0.0,14108,20375,20196,26099,14907,5
0.0,0.0,0.0,14137,20335,20196,26150,14861,5
0.0,0.0,0.0,14108,20315,20176,26202,14801,5
0.0,0.0,0.0,14108,20315,20176,26150,14816,5
0.0,0.0,0.0,14137,20335,20157,26253,14846,5
0.0,0.0,0.0,14370,20395,20196,26202,14846,5
0.0,0.0,0.0,14444,20335,20196,26253,14861,5
0.0,0.0,0.0,15013,20315,20216,26202,14952,5
0.0,0.0,0.0,15028,20275,20157,25996,15181,5
0.0,0.0,0.0,15058,20315,20117,25894,15273,5
0.0,0.0,0.0,15273,20335,20098,25894,15181,5
0.0,0.0,0.0,15196,20315,20098,25971,15150,5
0.0,0.0,0.0,15028,20275,20078,25894,15150,5
0.0,0.0,0.0,14982,20275,20098,25971,15150,5
0.0,0.0,0.0,14967,20275,20137,25996,15150,5
0.0,0.0,0.0,14801,20256,20157,25945,15089,5
0.0,0.0,0.0,14726,20236,20157,25920,15058,5
0.0,0.0,0.0,14429,20236,20098,25894,15150,5
0.0,0.0,0.0,14108,20275,20098,25793,15211,5
0.0,0.0,0.0,14079,20275,20098,25717,15211,5
0.0,0.0,0.0,14429,20335,20078,25666,15150,5
0.0,0.0,0.0,14429,20395,20078,25691,15119,5
0.0,0.0,0.0,14326,20395,20098,25616,15089,5
0.0,0.0,0.0,14195,20395,20098,25691,15089,5
0.0,0.0,0.0,14050,20395,20157,25691,15089,5
0.0,0.0,0.0,13978,20315,20157,25742,15058,5
0.0,0.0,0.0,13964,20335,20157,25717,15089,5
0.0,0.0,0.0,13863,20335,20176,25894,15058,5
0.0,0.0,0.0,13863,20335,20176,25894,15043,5
0.0,0.0,0.0,13849,20375,20256,25945,14967,5
0.0,0.0,0.0,13821,20335,20196,25971,14967,5
0.0,0.0,0.0,13792,20335,20236,25945,15028,5
0.0,0.0,0.0,13792,20335,20256,25971,15043,5
0.0,0.0,0.0,13749,20315,20236,26047,15058,5
0.0,0.0,0.0,13792,20335,20315,26124,15089,5
0.0,0.0,0.0,13792,20295,20275,26047,15043,5
0.0,0.0,0.0,13792,20315,20315,26099,15058,5
0.0,0.0,0.0,13764,20275,20335,26150,15043,5
0.0,0.0,0.0,13735,20315,20315,26073,15028,5
0.0,0.0,0.0,13735,20315,20315,26124,15043,5
0.0,0.0,0.0,13735,20295,20275,26099,15028,5
0.0,0.0,0.0,13693,20315,20275,25996,15028,5
0.0,0.0,0.0,13665,20315,20236,26099,14997,5
0.0,0.0,0.0,13650,20315,20275,26022,15028,5
0.0,0.0,0.0,13594,20315,20275,25996,15089,5
0.0,0.0,0.0,13594,20256,20256,25996,15119,5
0.0,0.0,0.0,13622,20335,20236,26022,15058,5
0.0,0.0,0.0,13622,20315,20256,26047,15104,5
0.0,0.0,0.0,13650,20275,20295,25996,15058,5
0.0,0.0,0.0,13650,20275,20236,25945,15089,5
0.0,0.0,0.0,13679,20315,20236,25945,15058,5
0.0,0.0,0.0,13679,20315,20256,25945,15074,5
0.0,0.0,0.0,13707,20335,20256,25894,15119,5
0.0,0.0,0.0,13906,20335,20256,25894,15119,5
0.0,0.0,0.0,13849,20236,20275,25742,15119,5
0.0,0.0,0.0,14108,20256,20236,25691,15089,5
0.0,0.0,0.0,14151,20256,20196,25591,15074,5
0.0,0.0,0.0,14224,20236,20098,25490,14997,5
0.0,0.0,0.0,14253,20236,20078,25291,15227,5
0.0,0.0,0.0,14385,20256,20058,25341,15104,5
0.0,0.0,0.0,14399,20256,20078,25241,14982,5
0.0,0.0,0.0,14444,20256,20098,25093,14952,5
0.0,0.0,0.0,14399,20315,20117,24897,14952,5
0.0,0.0,0.0,14326,20275,20098,24606,15028,5
0.0,0.0,0.0,14503,20236,20039,23940,15150,5
0.0,0.0,0.0,14607,20315,19921,22955,15335,5
0.0,0.0,0.0,14473,20236,19766,22313,15258,5
0.0,0.0,0.0,14636,20196,19708,22292,15211,5
0.0,0.0,0.0,14666,20236,19766,22226,15273,5
0.0,0.0,0.0,14726,20315,19785,22010,15335,5
0.0,0.0,0.0,14696,20315,19843,21542,15615,5
0.0,0.0,0.0,14666,20395,20157,21084,15553,5
0.0,0.0,0.0,14607,20475,20315,20777,15506,5
0.0,0.0,0.0,14503,20435,20315,20636,15397,5
0.0,0.0,0.0,14429,20395,20315,20777,15273,5
0.0,0.0,0.0,14253,20395,20236,20798,15242,5
0.0,0.0,0.0,14137,20355,20256,20879,15211,5
0.0,0.0,0.0,14195,20335,20275,21043,15181,5
0.0,0.0,0.0,14209,20375,20335,20981,15150,5
0.0,0.0,0.0,14224,20395,20236,20961,15150,5
0.0,0.0,0.0,14224,20355,20256,20981,15165,5
0.0,0.0,0.0,14399,20395,20236,21002,15165,5
0.0,0.0,0.0,14488,20395,20236,21043,15119,5
0.0,0.0,0.0,14458,20395,20196,21064,15150,5
0.0,0.0,0.0,14577,20395,20196,21084,15165,5
0.0,0.0,0.0,14726,20395,20157,21146,15150,5
0.0,0.0,0.0,14711,20355,20157,21229,15135,5
0.0,0.0,0.0,14681,20395,20157,21416,15119,5
0.0,0.0,0.0,14711,20355,20078,21606,15150,5
0.0,0.0,0.0,14726,20355,20078,21669,15150,5
0.0,0.0,0.0,14741,20315,20157,22010,14982,5
0.0,0.0,0.0,14666,20315,20078,22010,14997,5
0.0,0.0,0.0,14666,20335,20078,22010,14997,5
0.0,0.0,0.0,14636,20335,20078,22010,14982,5
0.0,0.0,0.0,14577,20315,20117,22270,14967,5
0.0,0.0,0.0,14547,20315,20176,23225,15089,5
0.0,0.0,0.0,14488,20295,20157,23431,15150,5
0.0,0.0,0.0,14547,20275,20157,24129,15211,5
0.0,0.0,0.0,14429,20256,20098,24105,15211,5
0.0,0.0,0.0,14429,20275,20117,24129,15211,5
0.0,0.0,0.0,14399,20315,20078,24176,15211,5
0.0,0.0,0.0,14399,20315,20137,24081,15227,5
0.0,0.0,0.0,14370,20315,20157,23894,15242,5
0.0,0.0,0.0,14326,20295,20157,23569,15273,5
0.0,0.0,0.0,14311,20395,20216,23707,15227,5
0.0,0.0,0.0,14268,20335,20216,24176,15074,5
0.0,0.0,0.0,14253,20335,20157,23684,15165,5
0.0,0.0,0.0,14195,20315,20098,23316,15181,5
0.0,0.0,0.0,14268,20315,20137,23385,15181,5
0.0,0.0,0.0,14636,20415,20117,23385,15165,5
0.0,0.0,0.0,15319,20395,20176,23684,15058,5
0.0,0.0,0.0,15521,20355,20157,23754,15043,5
0.0,0.0,0.0,15459,20435,20196,23707,15058,5
0.0,0.0,0.0,15273,20475,20275,23964,15028,5
0.0,0.0,0.0,15273,20475,20256,24081,15028,5
0.0,0.0,0.0,15242,20475,20236,23987,15058,5
0.0,0.0,0.0,15119,20475,20236,24223,15089,5
0.0,0.0,0.0,14907,20415,20236,24129,15028,5
0.0,0.0,0.0,14577,20435,20256,24129,15013,5
0.0,0.0,0.0,14503,20475,20176,23940,14997,5
0.0,0.0,0.0,14907,20555,20216,23940,15058,5
0.0,0.0,0.0,15028,20615,20196,23940,15013,5
0.0,0.0,0.0,15028,20737,20157,23754,14997,5
0.0,0.0,0.0,14937,20716,20196,23824,15013,5
0.0,0.0,0.0,14861,20737,20176,23754,14982,5
0.0,0.0,0.0,14846,20757,20157,23707,15028,5
0.0,0.0,0.0,14786,20716,20176,23754,14982,5
0.0,0.0,0.0,14741,20676,20176,23754,14997,5
0.0,0.0,0.0,14711,20595,20157,23754,15028,5
0.0,0.0,0.0,14666,20595,20117,23684,15028,5
0.0,0.0,0.0,14562,20575,20137,23684,14967,5
0.0,0.0,0.0,14503,20615,20157,23661,14967,5
0.0,0.0,0.0,14488,20535,20078,23684,14967,5
0.0,0.0,0.0,14503,20555,20117,23684,14997,5
0.0,0.0,0.0,14636,20555,20157,23707,14967,5
0.0,0.0,0.0,14801,20636,20157,23661,14997,5
0.0,0.0,0.0,14756,20656,20236,23707,15058,5
0.0,0.0,0.0,14666,20676,20236,23522,15089,5
0.0,0.0,0.0,14636,20636,20216,23431,15211,5
0.0,0.0,0.0,14577,20696,20256,23225,15288,5
0.0,0.0,0.0,14488,20716,20515,22379,15459,5
0.0,0.0,0.0,14429,20716,20798,21500,15553,5
0.0,0.0,0.0,14355,20636,20636,21002,15475,5
0.0,0.0,0.0,14297,20656,20595,20838,15412,5
0.0,0.0,0.0,14282,20555,20555,20798,15366,5
0.0,0.0,0.0,14253,20555,20495,20798,15366,5
0.0,0.0,0.0,14253,20435,20495,20961,15335,5
0.0,0.0,0.0,14224,20415,20475,21125,15273,5
0.0,0.0,0.0,14224,20435,20535,21291,15288,5
0.0,0.0,0.0,14253,20435,20555,21458,15304,5
0.0,0.0,0.0,14224,20415,20555,21606,15242,5
0.0,0.0,0.0,14253,20395,20595,21584,15304,5
0.0,0.0,0.0,14253,20435,20595,21627,15273,5
0.0,0.0,0.0,14238,20515,20716,21711,15273,5
0.0,0.0,0.0,14253,20515,20737,21882,15304,5
0.0,0.0,0.0,14282,20636,20899,22140,15165,5
0.0,0.0,0.0,14268,20798,20940,22226,15150,5
0.0,0.0,0.0,14282,20961,21064,22357,15119,5
0.0,0.0,0.0,14253,21125,21125,22643,15196,5
0.0,0.0,0.0,14253,21291,21146,22798,15181,5
0.0,0.0,0.0,14195,21479,21167,22843,15181,5
0.0,0.0,0.0,14209,21458,21208,22865,15150,5
0.0,0.0,0.0,14195,21458,21105,22820,15150,5
0.0,0.0,0.0,14166,21395,21084,22887,15150,5
0.0,0.0,0.0,14137,21416,21064,22932,15150,5
0.0,0.0,0.0,14137,21291,21043,22932,15165,5
0.0,0.0,0.0,14166,21250,20961,22955,15181,5
0.0,0.0,0.0,14108,21208,20961,22999,15135,5
0.0,0.0,0.0,14036,21167,20920,23022,15150,5
0.0,0.0,0.0,13964,21125,20920,22843,15165,5
0.0,0.0,0.0,13878,21146,20920,22798,15211,5
0.0,0.0,0.0,13906,21125,20940,22798,15181,5
0.0,0.0,0.0,13878,21084,20879,22776,15165,5
0.0,0.0,0.0,13978,21125,20920,22843,15150,5
0.0,0.0,0.0,14064,21125,20981,23112,15119,5
0.0,0.0,0.0,14036,21125,20981,23431,15119,5
0.0,0.0,0.0,14021,21084,20961,23385,15058,5
0.0,0.0,0.0,13921,21043,20961,23431,15104,5
0.0,0.0,0.0,13835,21064,20981,23431,15058,5
0.0,0.0,0.0,13906,21043,20940,23431,15089,5
0.0,0.0,0.0,13906,21084,20961,23431,15089,5
0.0,0.0,0.0,13849,21043,20981,23385,15058,5
0.0,0.0,0.0,13849,21043,20961,23385,15058,5
0.0,0.0,0.0,13849,21064,20961,23339,15074,5
0.0,0.0,0.0,13849,21043,20981,23316,15058,5
0.0,0.0,0.0,13863,21022,20961,23362,15058,5
0.0,0.0,0.0,13863,20981,20961,23339,15058,5
0.0,0.0,0.0,13906,21043,20961,23316,15058,5
0.0,0.0,0.0,13863,21022,20961,23294,15028,5
0.0,0.0,0.0,13863,20961,20961,23271,15058,5
0.0,0.0,0.0,13863,21002,20961,23294,15058,5
0.0,0.0,0.0,13878,20981,20961,23294,15043,5
0.0,0.0,0.0,13863,21002,20920,23294,15058,5
0.0,0.0,0.0,13935,20961,20920,23294,15058,5
0.0,0.0,0.0,13863,20981,20961,23203,15013,5
0.0,0.0,0.0,13906,20961,20899,23248,15074,5
0.0,0.0,0.0,13849,21002,20961,23294,15043,5
