GyroX,GyroY,GyroZ,Thumb,Index,Middle,Ring,Pinky,Gesture
0.0,0.0,0.0,18200,24034,10232,10987,13287,1
0.0,0.0,0.0,18489,24176,10348,11012,13287,1
0.0,0.0,0.0,18435,24223,10418,11024,13287,1
0.0,0.0,0.0,18362,24081,10406,11012,13232,1
0.0,0.0,0.0,18200,24129,10371,11060,13274,1
0.0,0.0,0.0,18164,24034,10394,11012,13260,1
0.0,0.0,0.0,18147,24011,10359,11012,13260,1
0.0,0.0,0.0,18129,23964,10348,11012,13232,1
0.0,0.0,0.0,18164,24034,10348,10987,13232,1
0.0,0.0,0.0,18057,23940,10325,11012,13274,1
0.0,0.0,0.0,18075,23917,10325,10999,13232,1
0.0,0.0,0.0,18004,23940,10313,11012,13232,1
0.0,0.0,0.0,17933,23870,10301,11012,13260,1
0.0,0.0,0.0,17986,23894,10301,11012,13287,1
0.0,0.0,0.0,17933,23870,10325,11012,13287,1
0.0,0.0,0.0,17933,23824,10301,10987,13274,1
0.0,0.0,0.0,17915,23800,10301,10987,13232,1
0.0,0.0,0.0,17933,23800,10301,11012,13260,1
0.0,0.0,0.0,17915,23800,10301,11012,13287,1
0.0,0.0,0.0,17933,23800,10301,10987,13260,1
0.0,0.0,0.0,17968,23847,10301,11012,13205,1
0.0,0.0,0.0,18004,23824,10325,11012,13260,1
0.0,0.0,0.0,18746,24486,10488,11012,13205,1
0.0,0.0,0.0,18931,24751,10594,11024,13150,1
0.0,0.0,0.0,19382,25044,10617,11060,13027,1
0.0,0.0,0.0,19212,24946,10617,11060,13054,1
0.0,0.0,0.0,19231,24995,10605,11060,13040,1
0.0,0.0,0.0,19249,24897,10594,11012,13068,1
0.0,0.0,0.0,19249,24946,10605,11012,13013,1
0.0,0.0,0.0,19174,24848,10594,11012,13040,1
0.0,0.0,0.0,19099,24848,10582,11012,13081,1
0.0,0.0,0.0,19080,24848,10594,10999,13013,1
0.0,0.0,0.0,19043,24873,10605,10987,13054,1
0.0,0.0,0.0,19024,24824,10582,10987,13013,1
0.0,0.0,0.0,18857,24751,10582,10999,13027,1
0.0,0.0,0.0,18783,24678,10582,10963,13013,1
0.0,0.0,0.0,18727,24606,10582,10963,13027,1
0.0,0.0,0.0,18709,24558,10582,10963,13040,1
0.0,0.0,0.0,18508,24366,10629,10963,13150,1
0.0,0.0,0.0,18489,24176,10582,10963,13906,1
0.0,0.0,0.0,18489,24011,10546,10987,14122,1
0.0,0.0,0.0,18635,23964,10535,11012,14108,1
0.0,0.0,0.0,18635,23940,10535,11024,14108,1
0.0,0.0,0.0,18635,23870,10535,11060,14079,1
0.0,0.0,0.0,18635,23870,10499,11060,14050,1
0.0,0.0,0.0,18635,23847,10488,11024,13978,1
0.0,0.0,0.0,18635,23847,10488,11024,13921,1
0.0,0.0,0.0,18581,23824,10453,11012,13906,1
0.0,0.0,0.0,18581,23847,10453,10999,13863,1
0.0,0.0,0.0,18562,23894,10441,10987,13878,1
0.0,0.0,0.0,18562,23754,10441,10987,13821,1
0.0,0.0,0.0,18526,23847,10418,10963,13792,1
0.0,0.0,0.0,18562,23847,10418,10963,13821,1
0.0,0.0,0.0,18508,23754,10394,10939,13764,1
0.0,0.0,0.0,18562,23800,10383,10927,13749,1
0.0,0.0,0.0,18581,23777,10394,10927,13735,1
0.0,0.0,0.0,18838,23894,10383,10927,13735,1
0.0,0.0,0.0,18931,23894,10348,10915,13735,1
0.0,0.0,0.0,18931,23777,10348,10915,13650,1
0.0,0.0,0.0,18875,23777,10325,10915,13650,1
0.0,0.0,0.0,18857,23730,10348,10891,13594,1
0.0,0.0,0.0,18783,23707,10313,10867,13538,1
0.0,0.0,0.0,18801,23754,10313,10867,13538,1
0.0,0.0,0.0,18820,23754,10325,10867,13482,1
0.0,0.0,0.0,18857,23777,10348,10867,13454,1
0.0,0.0,0.0,18820,23730,10348,10867,13510,1
0.0,0.0,0.0,18801,23754,10325,10879,13566,1
0.0,0.0,0.0,18801,23754,10348,10867,13650,1
0.0,0.0,0.0,18746,23684,10348,10879,13693,1
0.0,0.0,0.0,18838,23707,10348,10867,13679,1
0.0,0.0,0.0,18857,23592,10313,10867,13679,1
0.0,0.0,0.0,18820,23615,10359,10843,13679,1
0.0,0.0,0.0,18783,23707,10348,10867,13622,1
0.0,0.0,0.0,18857,23661,10325,10843,13650,1
0.0,0.0,0.0,18857,23661,10325,10867,13608,1
0.0,0.0,0.0,18857,23615,10313,10867,13594,1
0.0,0.0,0.0,18820,23661,10301,10831,13622,1
0.0,0.0,0.0,18857,23569,10313,10843,13566,1
0.0,0.0,0.0,18857,23592,10278,10843,13594,1
0.0,0.0,0.0,18783,23615,10301,10843,13622,1
0.0,0.0,0.0,18783,23592,10301,10843,13622,1
0.0,0.0,0.0,18801,23569,10301,10831,13636,1
0.0,0.0,0.0,18801,23522,10278,10843,13580,1
0.0,0.0,0.0,18820,23569,10267,10867,13580,1
0.0,0.0,0.0,18838,23661,10255,10831,13594,1
0.0,0.0,0.0,18838,23707,10255,10819,13622,1
0.0,0.0,0.0,18875,23707,10278,10879,13580,1
0.0,0.0,0.0,18857,23661,10255,10855,13594,1
0.0,0.0,0.0,18857,23661,10255,10843,13580,1
0.0,0.0,0.0,18801,23754,10267,10819,13594,1
0.0,0.0,0.0,18764,23684,10278,10783,13580,1
0.0,0.0,0.0,18820,23638,10267,10819,13622,1
0.0,0.0,0.0,18820,23661,10255,10819,13566,1
0.0,0.0,0.0,18838,23661,10255,10819,13580,1
0.0,0.0,0.0,18857,23661,10255,10819,13566,1
0.0,0.0,0.0,18857,23661,10267,10819,13566,1
0.0,0.0,0.0,18783,23638,10255,10819,13594,1
0.0,0.0,0.0,18764,23638,10209,10819,13594,1
0.0,0.0,0.0,18783,23592,10209,10831,13566,1
0.0,0.0,0.0,18709,23615,10209,10819,13594,1
0.0,0.0,0.0,18746,23569,10209,10819,13594,1
0.0,0.0,0.0,18783,23800,10209,10819,13566,1
0.0,0.0,0.0,18783,23754,10209,10819,13622,1
0.0,0.0,0.0,18820,23847,10209,10843,13622,1
0.0,0.0,0.0,18894,23870,10186,10831,13622,1
0.0,0.0,0.0,18931,23847,10209,10831,13622,1
0.0,0.0,0.0,19080,23964,10209,10819,13622,1
0.0,0.0,0.0,18968,23940,10232,10819,13594,1
0.0,0.0,0.0,19174,24034,10209,10807,13566,1
0.0,0.0,0.0,19174,23847,10209,10831,13510,1
0.0,0.0,0.0,19099,23754,10209,10819,13538,1
0.0,0.0,0.0,19174,23754,10209,10831,13510,1
0.0,0.0,0.0,18968,23707,10174,10831,13524,1
0.0,0.0,0.0,18949,23661,10174,10819,13524,1
0.0,0.0,0.0,18949,23684,10174,10819,13524,1
0.0,0.0,0.0,18875,23661,10163,10831,13454,1
0.0,0.0,0.0,18949,23661,10163,10819,13510,1
0.0,0.0,0.0,18931,23615,10163,10819,13524,1
0.0,0.0,0.0,18931,23615,10163,10795,13510,1
0.0,0.0,0.0,18912,23684,10163,10831,13524,1
0.0,0.0,0.0,18912,23661,10163,10819,13524,1
0.0,0.0,0.0,18931,23661,10163,10831,13510,1
0.0,0.0,0.0,18894,23661,10140,10831,13524,1
0.0,0.0,0.0,18894,23661,10163,10819,13510,1
0.0,0.0,0.0,18857,23684,10140,10819,13566,1
0.0,0.0,0.0,18857,23684,10163,10819,13510,1
0.0,0.0,0.0,18894,23661,10163,10819,13510,1
0.0,0.0,0.0,18894,23661,10163,10831,13566,1
0.0,0.0,0.0,19005,23754,10163,10843,13594,1
0.0,0.0,0.0,19043,23707,10163,10831,13538,1
0.0,0.0,0.0,19080,23707,10163,10843,13510,1
0.0,0.0,0.0,19080,23684,10163,10831,13524,1
0.0,0.0,0.0,19024,23661,10163,10819,13510,1
0.0,0.0,0.0,19080,23661,10163,10819,13524,1
0.0,0.0,0.0,19043,23684,10163,10819,13482,1
0.0,0.0,0.0,19005,23730,10163,10819,13482,1
0.0,0.0,0.0,19024,23730,10163,10819,13510,1
0.0,0.0,0.0,19024,23684,10163,10819,13454,1
0.0,0.0,0.0,19005,23661,10163,10819,13482,1
0.0,0.0,0.0,19043,23707,10163,10831,13454,1
0.0,0.0,0.0,19043,23661,10163,10819,13482,1
0.0,0.0,0.0,19080,23684,10163,10819,13454,1
0.0,0.0,0.0,19005,23661,10163,10819,13496,1
0.0,0.0,0.0,19005,23707,10140,10843,13496,1
0.0,0.0,0.0,19005,23684,10163,10819,13482,1
0.0,0.0,0.0,18968,23707,10163,10831,13482,1
0.0,0.0,0.0,19005,23684,10163,10831,13510,1
0.0,0.0,0.0,19005,23661,10163,10843,13510,1
0.0,0.0,0.0,18987,23661,10163,10819,13468,1
0.0,0.0,0.0,19024,23707,10174,10831,13510,1
0.0,0.0,0.0,19061,23661,10163,10831,13510,1
0.0,0.0,0.0,19005,23661,10163,10843,13468,1
0.0,0.0,0.0,19005,23684,10221,10843,13482,1
0.0,0.0,0.0,19005,23707,10232,10831,13468,1
0.0,0.0,0.0,19005,23615,10221,10879,13510,1
0.0,0.0,0.0,19043,23707,10232,10831,13510,1
0.0,0.0,0.0,19005,23661,10209,10819,13454,1
0.0,0.0,0.0,19043,23661,10209,10831,13482,1
0.0,0.0,0.0,19005,23661,10209,10843,13510,1
0.0,0.0,0.0,19005,23661,10209,10831,13468,1
0.0,0.0,0.0,19005,23661,10209,10843,13468,1
0.0,0.0,0.0,19024,23684,10232,10855,13510,1
0.0,0.0,0.0,19043,23730,10221,10843,13454,1
0.0,0.0,0.0,19024,23661,10244,10843,13468,1
0.0,0.0,0.0,18949,23661,10209,10843,13468,1
0.0,0.0,0.0,19005,23661,10221,10843,13426,1
0.0,0.0,0.0,19005,23661,10209,10867,13454,1
0.0,0.0,0.0,19005,23940,10313,10879,13566,1
0.0,0.0,0.0,19005,24271,10453,10867,13468,1
0.0,0.0,0.0,19005,24510,10511,10891,13398,1
0.0,0.0,0.0,19249,24558,10582,10927,13191,1
0.0,0.0,0.0,19306,24702,10582,10915,13122,1
0.0,0.0,0.0,19268,24534,10629,10915,12999,1
0.0,0.0,0.0,19212,24366,10688,10939,12932,1
0.0,0.0,0.0,19080,24462,10700,10963,12918,1
0.0,0.0,0.0,19099,24462,10724,10975,12932,1
0.0,0.0,0.0,18894,24558,10724,10963,12959,1
0.0,0.0,0.0,18783,24342,10748,10987,12959,1
0.0,0.0,0.0,18709,24271,10700,10975,12918,1
0.0,0.0,0.0,18727,24247,10700,10963,12945,1
0.0,0.0,0.0,18727,24223,10688,10963,12986,1
0.0,0.0,0.0,18746,24247,10676,10963,12972,1
0.0,0.0,0.0,18764,24176,10676,10963,12932,1
0.0,0.0,0.0,18857,24176,10676,10963,12972,1
0.0,0.0,0.0,18931,24176,10676,10963,12959,1
0.0,0.0,0.0,19005,24223,10653,10963,12972,1
0.0,0.0,0.0,19005,24176,10653,10963,12972,1
0.0,0.0,0.0,19005,24223,10629,10927,12972,1
0.0,0.0,0.0,19043,24199,10617,10951,12986,1
0.0,0.0,0.0,18931,24247,10605,10963,13013,1
0.0,0.0,0.0,18949,24152,10629,10939,12986,1
0.0,0.0,0.0,19005,24176,10605,10963,12986,1
0.0,0.0,0.0,18949,24199,10629,10939,13081,1
0.0,0.0,0.0,19401,24342,10594,10939,13013,1
0.0,0.0,0.0,19439,24366,10605,10927,12986,1
0.0,0.0,0.0,19497,24366,10582,10939,12986,1
0.0,0.0,0.0,19477,24366,10582,10915,13013,1
0.0,0.0,0.0,19458,24318,10582,10939,13054,1
0.0,0.0,0.0,19420,24294,10582,10963,13027,1
0.0,0.0,0.0,19420,24247,10582,10915,13068,1
0.0,0.0,0.0,19401,24271,10558,10915,13068,1
0.0,0.0,0.0,19401,24271,10570,10927,13068,1
0.0,0.0,0.0,19325,24271,10546,10939,13040,1
0.0,0.0,0.0,19344,24247,10535,10915,13081,1
0.0,0.0,0.0,19363,24223,10546,10927,13068,1
0.0,0.0,0.0,19363,24223,10535,10915,13068,1
0.0,0.0,0.0,19382,24223,10535,10915,13068,1
0.0,0.0,0.0,19382,24176,10535,10927,13081,1
0.0,0.0,0.0,19306,24223,10523,10927,13068,1
0.0,0.0,0.0,19306,24223,10535,10915,13081,1
0.0,0.0,0.0,19344,24223,10535,10915,13109,1
0.0,0.0,0.0,19325,24129,10535,10915,13095,1
0.0,0.0,0.0,19325,24176,10523,10915,13040,1
0.0,0.0,0.0,19382,24129,10546,10915,13122,1
0.0,0.0,0.0,19382,24199,10535,10939,13040,1
0.0,0.0,0.0,19458,24223,10535,10927,13013,1
0.0,0.0,0.0,19401,24176,10535,10939,12959,1
0.0,0.0,0.0,19420,24152,10535,10939,13013,1
0.0,0.0,0.0,19401,24152,10535,10939,12972,1
0.0,0.0,0.0,19420,24129,10535,10939,12972,1
0.0,0.0,0.0,19420,24081,10523,10927,12972,1
0.0,0.0,0.0,19420,24129,10535,10927,12972,1
0.0,0.0,0.0,19382,24176,10511,10915,12945,1
0.0,0.0,0.0,19420,24129,10535,10927,12959,1
0.0,0.0,0.0,19344,24176,10535,10915,12959,1
0.0,0.0,0.0,19382,24129,10535,10927,12972,1
0.0,0.0,0.0,19401,24129,10535,10915,12986,1
0.0,0.0,0.0,19325,24129,10499,10915,13013,1
0.0,0.0,0.0,19325,24129,10535,10927,12986,1
0.0,0.0,0.0,19382,24129,10535,10915,13013,1
0.0,0.0,0.0,19401,24129,10499,10915,13013,1
0.0,0.0,0.0,19325,24081,10511,10903,12972,1
0.0,0.0,0.0,19344,24081,10511,10915,12972,1
0.0,0.0,0.0,19420,24081,10511,10927,13027,1
0.0,0.0,0.0,19325,24129,10499,10915,13040,1
0.0,0.0,0.0,19325,24058,10511,10915,13013,1
0.0,0.0,0.0,19306,24081,10511,10915,13040,1
0.0,0.0,0.0,19306,24034,10535,10915,13040,1
0.0,0.0,0.0,19325,24081,10511,10879,13013,1
0.0,0.0,0.0,19382,24034,10535,10927,13027,1
0.0,0.0,0.0,19382,24034,10535,10963,13040,1
0.0,0.0,0.0,19344,24034,10535,10963,13040,1
0.0,0.0,0.0,19382,24081,10546,10963,13040,1
0.0,0.0,0.0,19344,24129,10535,10963,13054,1
0.0,0.0,0.0,19306,24105,10535,10963,13068,1
0.0,0.0,0.0,19287,24058,10535,10939,13109,1
0.0,0.0,0.0,19306,24129,10546,10927,13095,1
0.0,0.0,0.0,19268,24058,10535,10915,13081,1
0.0,0.0,0.0,19287,24034,10535,10939,13081,1
0.0,0.0,0.0,19268,24058,10535,10927,13054,1
0.0,0.0,0.0,19268,24034,10546,10927,13081,1
0.0,0.0,0.0,19306,24058,10523,10915,13068,1
0.0,0.0,0.0,19306,24011,10535,10915,13081,1
0.0,0.0,0.0,19287,24034,10523,10939,13109,1
0.0,0.0,0.0,19249,24034,10523,10951,13122,1
0.0,0.0,0.0,19306,24058,10511,10915,13122,1
0.0,0.0,0.0,19231,23964,10511,10927,13068,1
0.0,0.0,0.0,19268,24034,10535,10915,13122,1
0.0,0.0,0.0,19306,24034,10523,10927,13081,1
0.0,0.0,0.0,19689,24223,10523,10939,13068,1
0.0,0.0,0.0,19921,24318,10511,10915,13068,1
0.0,0.0,0.0,19805,24247,10511,10915,13027,1
0.0,0.0,0.0,19766,24247,10523,10927,13027,1
0.0,0.0,0.0,19785,24176,10511,10915,13040,1
0.0,0.0,0.0,19727,24176,10535,10915,13027,1
0.0,0.0,0.0,19708,24223,10511,10927,13040,1
0.0,0.0,0.0,19708,24176,10535,10915,13013,1
0.0,0.0,0.0,19746,24152,10535,10927,13013,1
0.0,0.0,0.0,19727,24129,10511,10927,13013,1
0.0,0.0,0.0,19689,24176,10488,10915,13013,1
0.0,0.0,0.0,19689,24081,10511,10915,13013,1
0.0,0.0,0.0,19708,24129,10488,10915,13027,1
0.0,0.0,0.0,19689,24058,10488,10915,13013,1
0.0,0.0,0.0,19708,24129,10499,10927,13040,1
0.0,0.0,0.0,19689,24081,10499,10927,13027,1
0.0,0.0,0.0,19689,24058,10499,10939,13027,1
0.0,0.0,0.0,19612,24034,10488,10927,13068,1
0.0,0.0,0.0,19631,24081,10488,10927,13068,1
0.0,0.0,0.0,19631,24034,10464,10927,13068,1
0.0,0.0,0.0,19612,24034,10488,10939,13040,1
0.0,0.0,0.0,19631,24081,10488,10939,13040,1
0.0,0.0,0.0,19573,24011,10488,10927,13095,1
0.0,0.0,0.0,19612,24034,10488,10927,13081,1
0.0,0.0,0.0,19612,24034,10488,10915,13040,1
0.0,0.0,0.0,19612,24034,10488,10939,13081,1
0.0,0.0,0.0,19554,23987,10488,10915,13068,1
0.0,0.0,0.0,19573,24011,10488,10927,13068,1
0.0,0.0,0.0,19573,24034,10488,10939,13081,1
0.0,0.0,0.0,19592,23987,10488,10927,13068,1
0.0,0.0,0.0,19535,24011,10488,10927,13068,1
0.0,0.0,0.0,19535,24011,10464,10963,13081,1
0.0,0.0,0.0,19535,24034,10488,10927,13068,1
0.0,0.0,0.0,19535,24034,10488,10939,13122,1
0.0,0.0,0.0,19535,23964,10476,10939,13109,1
0.0,0.0,0.0,19535,23964,10476,10927,13122,1
0.0,0.0,0.0,19497,23987,10488,10915,13095,1
0.0,0.0,0.0,19516,23964,10488,10939,13205,1
0.0,0.0,0.0,19458,23940,10488,10927,13177,1
0.0,0.0,0.0,19497,23894,10488,10963,13177,1
0.0,0.0,0.0,19497,23940,10499,10963,13177,1
0.0,0.0,0.0,19477,23940,10499,10975,13205,1
0.0,0.0,0.0,19458,23987,10488,10975,13301,1
0.0,0.0,0.0,19401,23964,10488,11012,13357,1
0.0,0.0,0.0,19382,23940,10488,11170,13454,1
0.0,0.0,0.0,19458,23964,10499,11354,13764,1
0.0,0.0,0.0,19439,24058,10499,11428,13964,1
0.0,0.0,0.0,19458,24034,10535,11453,14399,1
0.0,0.0,0.0,19727,23917,10488,11503,14786,1
0.0,0.0,0.0,19863,23940,10453,11465,14982,1
0.0,0.0,0.0,20058,23917,10441,11453,15074,1
0.0,0.0,0.0,20078,23894,10453,11428,14967,1
0.0,0.0,0.0,20039,23847,10441,11403,14891,1
0.0,0.0,0.0,19921,23847,10418,11403,14816,1
0.0,0.0,0.0,19863,23847,10406,11403,14786,1
0.0,0.0,0.0,19805,23870,10394,11354,14696,1
0.0,0.0,0.0,19689,23870,10394,11354,14607,1
0.0,0.0,0.0,19689,23847,10394,11329,14607,1
0.0,0.0,0.0,19650,23847,10383,11354,14607,1
0.0,0.0,0.0,19689,23847,10371,11354,14607,1
0.0,0.0,0.0,19650,23847,10348,11304,14562,1
0.0,0.0,0.0,19631,23894,10359,11304,14503,1
0.0,0.0,0.0,19650,23847,10359,11280,14473,1
0.0,0.0,0.0,19612,23847,10348,11280,14444,1
0.0,0.0,0.0,19554,23847,10348,11268,14429,1
0.0,0.0,0.0,19497,23824,10348,11255,14385,1
0.0,0.0,0.0,19458,23824,10336,11255,14399,1
0.0,0.0,0.0,19477,23847,10313,11255,14370,1
0.0,0.0,0.0,19458,23800,10348,11231,14399,1
0.0,0.0,0.0,19401,23847,10348,11206,14311,1
0.0,0.0,0.0,19382,23894,10325,11206,14311,1
0.0,0.0,0.0,19382,23894,10348,11170,14311,1
0.0,0.0,0.0,19382,23847,10325,11182,14311,1
0.0,0.0,0.0,19401,23847,10325,11182,14282,1
0.0,0.0,0.0,19439,23847,10325,11157,14282,1
0.0,0.0,0.0,19420,23847,10313,11170,14282,1
0.0,0.0,0.0,19401,23800,10313,11157,14311,1
0.0,0.0,0.0,19420,23847,10301,11157,14311,1
0.0,0.0,0.0,19382,23847,10301,11157,14311,1
0.0,0.0,0.0,19382,23800,10301,11145,14282,1
0.0,0.0,0.0,19458,23847,10313,11157,14311,1
0.0,0.0,0.0,19382,23824,10301,11133,14253,1
0.0,0.0,0.0,19382,23777,10313,11157,14253,1
0.0,0.0,0.0,19382,23870,10301,11133,14253,1
0.0,0.0,0.0,19344,23894,10290,11109,14253,1
0.0,0.0,0.0,19344,23847,10267,11109,14238,1
0.0,0.0,0.0,19401,23824,10301,11109,14224,1
0.0,0.0,0.0,19363,23847,10278,11121,14268,1
0.0,0.0,0.0,19382,23847,10278,11133,14282,1
0.0,0.0,0.0,19325,23847,10278,11121,14253,1
0.0,0.0,0.0,19382,23800,10255,11109,14268,1
0.0,0.0,0.0,19344,23824,10255,11121,14268,1
0.0,0.0,0.0,19382,23824,10267,11109,14282,1
0.0,0.0,0.0,19363,23847,10244,11109,14224,1
0.0,0.0,0.0,19344,23800,10255,11096,14282,1
0.0,0.0,0.0,19382,23800,10255,11109,14268,1
0.0,0.0,0.0,19344,23777,10244,11096,14282,1
0.0,0.0,0.0,19306,23800,10232,11109,14224,1
0.0,0.0,0.0,19344,23847,10232,11072,14238,1
0.0,0.0,0.0,19382,23824,10255,11096,14195,1
0.0,0.0,0.0,19363,23870,10232,11084,14166,1
0.0,0.0,0.0,19325,23800,10255,11060,14166,1
0.0,0.0,0.0,19325,23870,10232,11024,14166,1
0.0,0.0,0.0,19306,23847,10232,11048,14137,1
0.0,0.0,0.0,19306,23824,10255,11060,14122,1
0.0,0.0,0.0,19306,23870,10232,11060,14079,1
0.0,0.0,0.0,19306,23870,10232,11036,14108,1
0.0,0.0,0.0,19325,23824,10232,11060,14108,1
0.0,0.0,0.0,19325,23800,10209,11048,14151,1
0.0,0.0,0.0,19249,23800,10209,11036,14137,1
0.0,0.0,0.0,19268,23800,10232,11060,14108,1
0.0,0.0,0.0,19306,23847,10221,11036,14108,1
0.0,0.0,0.0,19306,23800,10244,11024,14079,1
0.0,0.0,0.0,19325,23800,10209,11012,14108,1
0.0,0.0,0.0,19306,23940,10221,11012,14050,1
0.0,0.0,0.0,19306,23777,10209,11012,14050,1
0.0,0.0,0.0,19306,23800,10255,10987,14079,1
0.0,0.0,0.0,19306,23800,10232,11012,14021,1
0.0,0.0,0.0,19306,23847,10232,11012,14021,1
0.0,0.0,0.0,19268,23824,10232,10987,14036,1
0.0,0.0,0.0,19325,23800,10221,11012,14021,1
0.0,0.0,0.0,19306,23800,10209,10987,14050,1
0.0,0.0,0.0,19306,23847,10221,11012,14064,1
0.0,0.0,0.0,19325,23777,10232,10975,14079,1
0.0,0.0,0.0,19344,23824,10209,11012,14079,1
0.0,0.0,0.0,19306,23800,10209,11012,14064,1
0.0,0.0,0.0,19325,23800,10209,10987,14050,1
0.0,0.0,0.0,19268,23847,10186,10987,14079,1
0.0,0.0,0.0,19306,23847,10209,10999,14064,1
0.0,0.0,0.0,19249,23847,10186,10999,14079,1
0.0,0.0,0.0,19306,23847,10174,10999,14079,1
0.0,0.0,0.0,19212,23847,10174,11012,14079,1
0.0,0.0,0.0,19306,23847,10186,11012,14050,1
0.0,0.0,0.0,19249,23800,10174,10999,14050,1
0.0,0.0,0.0,19249,23800,10174,10987,14064,1
0.0,0.0,0.0,19287,23800,10163,10975,14079,1
0.0,0.0,0.0,19268,23800,10174,10987,14036,1
0.0,0.0,0.0,19306,23800,10174,10975,14050,1
0.0,0.0,0.0,19306,23800,10163,10987,14079,1
0.0,0.0,0.0,19306,23777,10186,10987,14137,1
0.0,0.0,0.0,19268,23777,10186,10975,14108,1
0.0,0.0,0.0,19249,23847,10163,10975,14108,1
0.0,0.0,0.0,19306,23847,10174,10975,14122,1
0.0,0.0,0.0,19287,23800,10186,10987,14108,1
0.0,0.0,0.0,19231,23777,10209,10999,14079,1
0.0,0.0,0.0,19268,23754,10186,10999,14064,1
0.0,0.0,0.0,19268,23754,10209,11012,14036,1
0.0,0.0,0.0,19231,23964,10301,11012,14021,1
0.0,0.0,0.0,19249,24034,10301,11012,13863,1
0.0,0.0,0.0,19231,23987,10313,10975,13863,1
0.0,0.0,0.0,19155,23964,10313,10987,13821,1
0.0,0.0,0.0,19231,23964,10313,10987,13906,1
0.0,0.0,0.0,19174,23964,10301,10975,13906,1
0.0,0.0,0.0,19212,23987,10301,10987,13964,1
0.0,0.0,0.0,19193,23987,10313,10975,13964,1
0.0,0.0,0.0,19155,23940,10301,10999,14050,1
0.0,0.0,0.0,19099,23964,10301,10987,13964,1
0.0,0.0,0.0,19193,24176,10348,10963,13735,1
0.0,0.0,0.0,19193,24366,10406,10963,13608,1
0.0,0.0,0.0,19043,24534,10464,10939,13384,1
0.0,0.0,0.0,18857,24414,10511,10963,13260,1
0.0,0.0,0.0,18672,24342,10546,11060,13068,1
0.0,0.0,0.0,18635,24223,10535,11096,13013,1
0.0,0.0,0.0,18617,24176,10535,11060,12972,1
0.0,0.0,0.0,18599,24223,10558,11072,12932,1
0.0,0.0,0.0,18727,24366,10605,11084,12932,1
0.0,0.0,0.0,18691,24414,10676,11096,12932,1
0.0,0.0,0.0,18635,24510,10688,11157,12905,1
0.0,0.0,0.0,18562,24414,10712,11157,12918,1
0.0,0.0,0.0,18562,24462,10724,11157,12905,1
0.0,0.0,0.0,18489,24414,10688,11157,12864,1
0.0,0.0,0.0,18489,24318,10688,11157,12905,1
0.0,0.0,0.0,18489,24294,10676,11157,12864,1
0.0,0.0,0.0,18508,24414,10676,11145,12878,1
0.0,0.0,0.0,18489,24318,10676,11133,12905,1
0.0,0.0,0.0,18489,24318,10641,11109,12932,1
0.0,0.0,0.0,18489,24318,10641,11109,12918,1
0.0,0.0,0.0,18453,24176,10653,11109,12999,1
0.0,0.0,0.0,18453,24176,10629,11109,12918,1
0.0,0.0,0.0,18526,24176,10629,11109,12986,1
0.0,0.0,0.0,18562,24271,10629,11084,12959,1
0.0,0.0,0.0,18654,24223,10629,11072,12918,1
0.0,0.0,0.0,18746,24129,10629,11060,12945,1
0.0,0.0,0.0,18783,24058,10617,11060,12972,1
0.0,0.0,0.0,18801,24105,10594,11060,12959,1
0.0,0.0,0.0,18931,24176,10558,11060,13013,1
0.0,0.0,0.0,19231,24271,10582,11060,12972,1
0.0,0.0,0.0,20039,24654,10582,11060,13013,1
0.0,0.0,0.0,20395,24727,10582,11060,13013,1
0.0,0.0,0.0,20961,24995,10582,11060,13013,1
0.0,0.0,0.0,20899,24946,10535,11060,13027,1
0.0,0.0,0.0,21125,25142,10546,11060,13068,1
0.0,0.0,0.0,20899,24995,10535,11060,13013,1
0.0,0.0,0.0,20636,24751,10535,11060,13013,1
0.0,0.0,0.0,20716,24727,10535,11060,13068,1
0.0,0.0,0.0,20737,24702,10535,11060,13027,1
0.0,0.0,0.0,21146,25093,10535,11036,13027,1
0.0,0.0,0.0,21796,25390,10511,11060,13027,1
0.0,0.0,0.0,22313,25843,10523,11060,13040,1
0.0,0.0,0.0,22010,25540,10511,11060,13068,1
0.0,0.0,0.0,21775,25341,10511,11060,13068,1
0.0,0.0,0.0,21818,25415,10488,11036,13081,1
0.0,0.0,0.0,21754,25341,10488,11036,13068,1
0.0,0.0,0.0,21733,25316,10488,11036,13081,1
0.0,0.0,0.0,21754,25415,10511,11060,13109,1
0.0,0.0,0.0,21648,25341,10499,11060,13122,1
0.0,0.0,0.0,21627,25291,10499,11036,13095,1
0.0,0.0,0.0,21648,25341,10488,11036,13081,1
0.0,0.0,0.0,21648,25341,10511,11024,13068,1
0.0,0.0,0.0,21648,25341,10488,11024,13081,1
0.0,0.0,0.0,21584,25316,10511,11036,13095,1
0.0,0.0,0.0,21479,25266,10499,11060,13081,1
0.0,0.0,0.0,21416,25291,10488,11036,13122,1
0.0,0.0,0.0,21375,25216,10488,11060,13122,1
0.0,0.0,0.0,21312,25216,10511,11024,13081,1
0.0,0.0,0.0,21375,25192,10499,11060,13150,1
0.0,0.0,0.0,21333,25192,10488,11060,13122,1
0.0,0.0,0.0,21333,25142,10488,11036,13136,1
0.0,0.0,0.0,21312,25192,10464,11060,13177,1
0.0,0.0,0.0,21291,25192,10499,11060,13136,1
0.0,0.0,0.0,21312,25192,10488,11036,13122,1
0.0,0.0,0.0,21333,25093,10511,11036,13122,1
0.0,0.0,0.0,21291,25142,10488,11048,13122,1
0.0,0.0,0.0,21291,25068,10488,11060,13136,1
0.0,0.0,0.0,21291,25093,10488,11060,13150,1
0.0,0.0,0.0,21229,25093,10499,11060,13150,1
0.0,0.0,0.0,21208,25044,10488,11024,13163,1
0.0,0.0,0.0,21208,25093,10488,11036,13150,1
0.0,0.0,0.0,21229,25044,10488,11084,13136,1
0.0,0.0,0.0,21146,25093,10488,11036,13191,1
0.0,0.0,0.0,21146,25093,10488,11060,13177,1
0.0,0.0,0.0,21125,25019,10488,11024,13177,1
0.0,0.0,0.0,21146,24995,10488,11036,13232,1
0.0,0.0,0.0,21125,24995,10488,11024,13246,1
0.0,0.0,0.0,21125,24995,10488,11036,13287,1
0.0,0.0,0.0,20981,24946,10488,11036,13287,1
0.0,0.0,0.0,21022,24946,10476,11024,13329,1
0.0,0.0,0.0,20920,24946,10488,11024,13343,1
0.0,0.0,0.0,20899,24946,10464,11024,13398,1
0.0,0.0,0.0,20818,24946,10464,11060,13454,1
0.0,0.0,0.0,20757,24946,10453,11060,13735,1
0.0,0.0,0.0,20838,24946,10476,11133,14137,1
0.0,0.0,0.0,20798,24970,10488,11182,14137,1
0.0,0.0,0.0,20757,25019,10488,11170,13964,1
0.0,0.0,0.0,20716,24946,10464,11182,14021,1
0.0,0.0,0.0,20716,24946,10464,11219,14209,1
0.0,0.0,0.0,20676,24897,10464,11255,14399,1
0.0,0.0,0.0,20636,24824,10464,11317,14547,1
0.0,0.0,0.0,20636,24775,10441,11354,14666,1
0.0,0.0,0.0,20575,24702,10441,11354,14518,1
0.0,0.0,0.0,20636,24630,10464,11329,14399,1
0.0,0.0,0.0,20555,24654,10453,11304,14311,1
0.0,0.0,0.0,20495,24606,10441,11304,14224,1
0.0,0.0,0.0,20495,24630,10441,11304,14282,1
0.0,0.0,0.0,20475,24534,10418,11304,14268,1
0.0,0.0,0.0,20495,24582,10394,11280,14341,1
0.0,0.0,0.0,20575,24558,10383,11268,14370,1
0.0,0.0,0.0,20676,24630,10371,11268,14370,1
0.0,0.0,0.0,20716,24606,10348,11255,14341,1
0.0,0.0,0.0,20716,24630,10348,11231,14370,1
0.0,0.0,0.0,20656,24702,10325,11219,14444,1
0.0,0.0,0.0,20555,24558,10278,11206,14547,1
0.0,0.0,0.0,20555,24606,10255,11231,14607,1
0.0,0.0,0.0,20555,24510,10255,11231,14607,1
0.0,0.0,0.0,20415,24486,10232,11219,14681,1
0.0,0.0,0.0,20415,24510,10221,11231,14741,1
0.0,0.0,0.0,20395,24534,10232,11231,14876,1
0.0,0.0,0.0,20355,24462,10209,11243,14846,1
0.0,0.0,0.0,20375,24510,10209,11219,14846,1
0.0,0.0,0.0,20395,24462,10209,11219,14876,1
0.0,0.0,0.0,20395,24438,10186,11219,14891,1
0.0,0.0,0.0,20395,24414,10174,11231,14907,1
0.0,0.0,0.0,20395,24462,10186,11231,14937,1
0.0,0.0,0.0,20395,24462,10197,11231,14922,1
0.0,0.0,0.0,20335,24414,10186,11231,14907,1
0.0,0.0,0.0,20335,24390,10174,11231,14967,1
0.0,0.0,0.0,20395,24462,10174,11219,14907,1
0.0,0.0,0.0,20335,24438,10197,11206,14907,1
0.0,0.0,0.0,20395,24390,10174,11219,14967,1
0.0,0.0,0.0,20335,24414,10163,11231,14937,1
0.0,0.0,0.0,20315,24390,10174,11219,14967,1
0.0,0.0,0.0,20315,24366,10163,11219,14967,1
0.0,0.0,0.0,20315,24366,10163,11206,14952,1
0.0,0.0,0.0,20315,24366,10163,11206,14952,1
0.0,0.0,0.0,20315,24414,10186,11206,14922,1
0.0,0.0,0.0,20315,24462,10209,11182,14907,1
0.0,0.0,0.0,20275,24366,10209,11182,14907,1
0.0,0.0,0.0,20196,24366,10174,11182,15181,1
0.0,0.0,0.0,20236,24366,10186,11206,15288,1
0.0,0.0,0.0,20236,24318,10186,11206,15273,1
0.0,0.0,0.0,20157,24438,10174,11206,15227,1
0.0,0.0,0.0,20256,24414,10174,11219,15242,1
0.0,0.0,0.0,20395,24510,10163,11206,15211,1
0.0,0.0,0.0,20475,24510,10174,11219,15181,1
0.0,0.0,0.0,20737,24630,10174,11206,15211,1
0.0,0.0,0.0,20879,24654,10174,11206,15150,1
0.0,0.0,0.0,20716,24582,10163,11206,15165,1
0.0,0.0,0.0,20716,24606,10163,11219,15150,1
0.0,0.0,0.0,20656,24534,10174,11206,15150,1
0.0,0.0,0.0,20716,24558,10163,11194,15150,1
0.0,0.0,0.0,20696,24654,10174,11231,15150,1
0.0,0.0,0.0,20737,24799,10174,11206,15135,1
0.0,0.0,0.0,21500,25316,10163,11194,15119,1
0.0,0.0,0.0,21333,25540,10163,11206,15150,1
0.0,0.0,0.0,21146,25415,10163,11206,15119,1
0.0,0.0,0.0,21208,25291,10163,11182,15104,1
0.0,0.0,0.0,21229,25241,10152,11182,15119,1
0.0,0.0,0.0,21839,25540,10163,11182,15104,1
0.0,0.0,0.0,22140,25742,10163,11182,15119,1
0.0,0.0,0.0,22248,25616,10163,11170,15119,1
0.0,0.0,0.0,22075,25591,10140,11170,15165,1
0.0,0.0,0.0,21584,25192,10140,11206,15211,1
0.0,0.0,0.0,21291,25142,10129,11182,15165,1
0.0,0.0,0.0,21375,25142,10129,11170,15181,1
0.0,0.0,0.0,21627,25316,10140,11170,15165,1
0.0,0.0,0.0,21754,25341,10117,11157,15242,1
0.0,0.0,0.0,21690,25390,10140,11170,15242,1
0.0,0.0,0.0,21542,25241,10140,11182,15242,1
0.0,0.0,0.0,21375,25093,10129,11157,15227,1
0.0,0.0,0.0,21187,25093,10129,11157,15242,1
0.0,0.0,0.0,21208,25093,10140,11157,15211,1
0.0,0.0,0.0,21479,25266,10117,11157,15165,1
0.0,0.0,0.0,21542,25241,10117,11170,15135,1
0.0,0.0,0.0,21648,25316,10140,11182,15165,1
0.0,0.0,0.0,21754,25291,10163,11157,15119,1
0.0,0.0,0.0,21669,25291,10129,11157,15150,1
0.0,0.0,0.0,21648,25216,10140,11170,15150,1
0.0,0.0,0.0,21584,25216,10129,11157,15028,1
0.0,0.0,0.0,21458,25118,10129,11157,15028,1
0.0,0.0,0.0,21542,25291,10140,11157,15089,1
0.0,0.0,0.0,21458,25192,10163,11170,14937,1
0.0,0.0,0.0,21584,25291,10163,11170,14801,1
0.0,0.0,0.0,21458,25241,10140,11170,14607,1
0.0,0.0,0.0,21563,25390,10174,11157,14341,1
0.0,0.0,0.0,21563,25440,10267,11182,14166,1
0.0,0.0,0.0,21606,25490,10301,11182,14050,1
0.0,0.0,0.0,21542,25440,10290,11157,13921,1
0.0,0.0,0.0,21563,25515,10278,11133,13935,1
0.0,0.0,0.0,21500,25390,10301,11109,13921,1
0.0,0.0,0.0,21375,25341,10278,11109,13921,1
0.0,0.0,0.0,21375,25390,10255,11072,13964,1
0.0,0.0,0.0,21270,25415,10267,11109,13935,1
0.0,0.0,0.0,21291,25365,10255,11084,13906,1
0.0,0.0,0.0,21291,25440,10348,11109,13892,1
0.0,0.0,0.0,21333,25641,10453,11170,13878,1
0.0,0.0,0.0,21312,25869,10511,11206,13693,1
0.0,0.0,0.0,21627,26150,10582,11403,13566,1
0.0,0.0,0.0,21711,26150,10594,11528,13510,1
0.0,0.0,0.0,22161,26099,10546,11503,13636,1
0.0,0.0,0.0,22401,25945,10511,11453,13665,1
0.0,0.0,0.0,22488,25818,10488,11428,13863,1
0.0,0.0,0.0,22621,25591,10511,11354,13906,1
0.0,0.0,0.0,22488,25515,10488,11354,13863,1
0.0,0.0,0.0,22532,25490,10488,11354,13764,1
0.0,0.0,0.0,22488,25440,10488,11366,13749,1
0.0,0.0,0.0,22466,25440,10441,11354,13707,1
0.0,0.0,0.0,22357,25440,10406,11403,13650,1
0.0,0.0,0.0,22313,25515,10418,11379,13580,1
0.0,0.0,0.0,22335,25515,10394,11403,13594,1
0.0,0.0,0.0,22335,25591,10394,11354,13566,1
0.0,0.0,0.0,22248,25540,10394,11366,13566,1
0.0,0.0,0.0,22313,25591,10383,11366,13566,1
0.0,0.0,0.0,22292,25390,10394,11366,13566,1
0.0,0.0,0.0,22270,25390,10394,11366,13566,1
0.0,0.0,0.0,22183,25390,10348,11403,13650,1
0.0,0.0,0.0,22053,25316,10348,11465,13806,1
0.0,0.0,0.0,22075,25241,10313,11465,13764,1
0.0,0.0,0.0,22140,25216,10290,11465,13650,1
0.0,0.0,0.0,22096,25291,10301,11440,13566,1
0.0,0.0,0.0,22053,25490,10348,11416,13454,1
0.0,0.0,0.0,22010,25390,10301,11379,13412,1
0.0,0.0,0.0,22096,25365,10255,11341,13426,1
0.0,0.0,0.0,22053,25390,10255,11354,13426,1
0.0,0.0,0.0,21967,25390,10255,11354,13426,1
0.0,0.0,0.0,21796,25241,10221,11379,13371,1
0.0,0.0,0.0,21733,25093,10209,11354,13412,1
0.0,0.0,0.0,21775,25241,10232,11354,13398,1
0.0,0.0,0.0,21733,25142,10197,11354,13398,1
0.0,0.0,0.0,21796,25216,10209,11329,13398,1
0.0,0.0,0.0,21733,25118,10186,11329,13426,1
0.0,0.0,0.0,21754,25118,10174,11304,13398,1
0.0,0.0,0.0,21711,25093,10174,11317,13454,1
0.0,0.0,0.0,21733,25093,10174,11292,13454,1
0.0,0.0,0.0,21711,25044,10174,11280,13482,1
0.0,0.0,0.0,21711,25093,10232,11304,13468,1
0.0,0.0,0.0,21627,25093,10267,11304,13454,1
0.0,0.0,0.0,21711,25142,10255,11280,13440,1
0.0,0.0,0.0,21690,25142,10244,11255,13426,1
0.0,0.0,0.0,21690,25118,10255,11280,13412,1
0.0,0.0,0.0,21627,25044,10255,11280,13412,1
0.0,0.0,0.0,21648,25093,10255,11268,13454,1
0.0,0.0,0.0,21563,25093,10255,11268,13454,1
0.0,0.0,0.0,21627,25019,10255,11255,13412,1
0.0,0.0,0.0,21648,25044,10244,11255,13412,1
0.0,0.0,0.0,21648,25019,10255,11255,13398,1
0.0,0.0,0.0,21627,25093,10255,11255,13371,1
0.0,0.0,0.0,21627,25044,10278,11255,13412,1
0.0,0.0,0.0,21606,24970,10267,11280,13412,1
0.0,0.0,0.0,21627,24995,10267,11280,13398,1
0.0,0.0,0.0,21627,24995,10255,11255,13398,1
0.0,0.0,0.0,21627,24921,10255,11268,13398,1
0.0,0.0,0.0,21627,24946,10267,11255,13426,1
0.0,0.0,0.0,21627,24946,10255,11255,13412,1
0.0,0.0,0.0,21584,24946,10255,11255,13398,1
0.0,0.0,0.0,21542,24946,10255,11255,13398,1
0.0,0.0,0.0,21584,24897,10232,11255,13426,1
0.0,0.0,0.0,21584,24897,10232,11255,13454,1
0.0,0.0,0.0,21563,24897,10232,11255,13426,1
0.0,0.0,0.0,21563,24897,10244,11231,13454,1
0.0,0.0,0.0,21563,24848,10232,11255,13468,1
0.0,0.0,0.0,21542,24848,10232,11255,13510,1
0.0,0.0,0.0,21500,24848,10255,11231,13482,1
0.0,0.0,0.0,21500,24824,10232,11219,13454,1
0.0,0.0,0.0,21542,24848,10221,11231,13482,1
0.0,0.0,0.0,21521,24824,10209,11219,13454,1
0.0,0.0,0.0,21479,24799,10221,11206,13482,1
0.0,0.0,0.0,21479,24824,10221,11231,13510,1
0.0,0.0,0.0,21458,24799,10221,11255,13510,1
0.0,0.0,0.0,21479,24799,10232,11255,13510,1
0.0,0.0,0.0,21458,24824,10209,11206,13566,1
0.0,0.0,0.0,21479,24799,10209,11219,13594,1
0.0,0.0,0.0,21458,24824,10209,11206,13566,1
0.0,0.0,0.0,21458,24799,10209,11231,13524,1
0.0,0.0,0.0,21479,24799,10197,11206,13510,1
0.0,0.0,0.0,21458,24751,10209,11219,13580,1
0.0,0.0,0.0,21500,24799,10186,11206,13524,1
0.0,0.0,0.0,21458,24824,10209,11219,13538,1
0.0,0.0,0.0,21416,24799,10186,11219,13566,1
0.0,0.0,0.0,21375,24799,10209,11219,13524,1
0.0,0.0,0.0,21416,24799,10174,11206,13580,1
0.0,0.0,0.0,21375,24702,10174,11219,13538,1
0.0,0.0,0.0,21333,24702,10174,11219,13580,1
0.0,0.0,0.0,21250,24702,10163,11231,13580,1
0.0,0.0,0.0,21084,24751,10174,11206,13580,1
0.0,0.0,0.0,21043,24678,10163,11219,13580,1
0.0,0.0,0.0,21043,24630,10163,11206,13566,1
0.0,0.0,0.0,20981,24606,10163,11219,13594,1
0.0,0.0,0.0,20475,24414,10129,11206,13650,1
0.0,0.0,0.0,20275,24318,10140,11206,13650,1
0.0,0.0,0.0,20435,24294,10140,11206,13622,1
0.0,0.0,0.0,20595,24414,10140,11219,13622,1
0.0,0.0,0.0,20676,24366,10140,11206,13665,1
0.0,0.0,0.0,20676,24294,10140,11206,13650,1
0.0,0.0,0.0,20636,24318,10152,11219,13679,1
0.0,0.0,0.0,20636,24318,10129,11206,13735,1
0.0,0.0,0.0,20615,24342,10129,11206,13707,1
0.0,0.0,0.0,20595,24318,10140,11219,13679,1
0.0,0.0,0.0,20595,24318,10117,11219,13735,1
0.0,0.0,0.0,20636,24318,10117,11219,13693,1
0.0,0.0,0.0,20575,24318,10117,11219,13721,1
0.0,0.0,0.0,20595,24247,10117,11206,13735,1
0.0,0.0,0.0,20595,24294,10117,11206,13679,1
0.0,0.0,0.0,20757,24438,10117,11206,13679,1
0.0,0.0,0.0,20798,24414,10140,11219,13735,1
0.0,0.0,0.0,20798,24606,10209,11268,13735,1
0.0,0.0,0.0,20981,24702,10301,11280,13693,1
0.0,0.0,0.0,20981,24702,10301,11304,13636,1
0.0,0.0,0.0,21064,24702,10313,11304,13594,1
0.0,0.0,0.0,21084,24824,10325,11304,13594,1
0.0,0.0,0.0,21312,24995,10394,11304,13580,1
0.0,0.0,0.0,21375,24897,10383,11317,13510,1
0.0,0.0,0.0,21542,24995,10394,11354,13482,1
0.0,0.0,0.0,21542,24946,10429,11341,13468,1
0.0,0.0,0.0,21458,24897,10418,11366,13454,1
0.0,0.0,0.0,21416,24848,10418,11354,13496,1
0.0,0.0,0.0,21458,24751,10418,11403,13524,1
0.0,0.0,0.0,21711,24824,10394,11379,13566,1
0.0,0.0,0.0,21648,24702,10348,11403,13636,1
0.0,0.0,0.0,21627,24606,10348,11453,13707,1
0.0,0.0,0.0,21563,24510,10325,11453,13735,1
0.0,0.0,0.0,21839,24462,10348,11453,13735,1
0.0,0.0,0.0,21754,24414,10371,11403,13792,1
0.0,0.0,0.0,21839,24318,10523,11416,13821,1
0.0,0.0,0.0,21711,24271,10511,11403,13806,1
0.0,0.0,0.0,21584,24390,10488,11403,13778,1
0.0,0.0,0.0,21458,24390,10464,11403,13849,1
0.0,0.0,0.0,21458,24318,10476,11428,14021,1
0.0,0.0,0.0,21375,24318,10724,11553,14195,1
0.0,0.0,0.0,21584,24199,10771,11553,14253,1
0.0,0.0,0.0,21479,24152,10819,11515,14209,1
0.0,0.0,0.0,21333,24129,10987,11503,14311,1
0.0,0.0,0.0,21375,24058,11219,11503,14488,1
0.0,0.0,0.0,21416,24081,11157,11503,14253,1
0.0,0.0,0.0,21375,24176,10987,11490,14195,1
0.0,0.0,0.0,21354,24223,10819,11465,14137,1
0.0,0.0,0.0,21270,24199,10819,11453,14137,1
0.0,0.0,0.0,21146,24129,10831,11416,14079,1
0.0,0.0,0.0,21125,24105,10759,11428,14137,1
0.0,0.0,0.0,20920,24034,10724,11391,14079,1
0.0,0.0,0.0,20879,23894,10724,11391,14108,1
0.0,0.0,0.0,20879,23894,10724,11416,14108,1
0.0,0.0,0.0,20737,23894,10676,11403,14195,1
0.0,0.0,0.0,20515,23917,10418,11403,14846,1
0.0,0.0,0.0,20435,23940,10301,11354,15028,1
0.0,0.0,0.0,20315,23987,10371,11379,15537,1
0.0,0.0,0.0,20295,23964,10348,11391,15412,1
0.0,0.0,0.0,20335,23940,10406,11379,15600,1
0.0,0.0,0.0,20315,23894,10418,11354,15537,1
0.0,0.0,0.0,20335,23894,10441,11354,15537,1
0.0,0.0,0.0,20315,23870,10418,11354,15647,1
0.0,0.0,0.0,20335,23847,10418,11354,15647,1
0.0,0.0,0.0,20335,23754,10441,11379,15710,1
0.0,0.0,0.0,20375,23754,10418,11379,15900,1
0.0,0.0,0.0,20395,23777,10348,11416,16157,1
0.0,0.0,0.0,20315,23800,10325,11416,16157,1
0.0,0.0,0.0,20157,23661,10301,11416,16028,1
0.0,0.0,0.0,20256,23615,10301,11416,16060,1
0.0,0.0,0.0,20236,23546,10371,11453,16516,1
0.0,0.0,0.0,20315,23569,10394,11540,16815,1
0.0,0.0,0.0,20315,23522,10348,11603,17084,1
0.0,0.0,0.0,20236,23522,10348,11578,16882,1
0.0,0.0,0.0,20275,23431,10313,11553,16681,1
0.0,0.0,0.0,20236,23477,10348,11503,16499,1
0.0,0.0,0.0,20196,23499,10406,11465,16238,1
0.0,0.0,0.0,20236,23477,10371,11453,16173,1
0.0,0.0,0.0,20176,23431,10394,11453,16125,1
0.0,0.0,0.0,20137,23477,10394,11465,16125,1
0.0,0.0,0.0,20098,23431,10394,11453,15996,1
0.0,0.0,0.0,20157,23477,10394,11428,15996,1
0.0,0.0,0.0,20098,23431,10394,11416,15964,1
0.0,0.0,0.0,20117,23477,10406,11416,15852,1
0.0,0.0,0.0,20117,23431,10418,11416,15837,1
0.0,0.0,0.0,20196,23431,10418,11416,15647,1
0.0,0.0,0.0,20098,23431,10418,11403,15584,1
0.0,0.0,0.0,20078,23385,10394,11416,15600,1
0.0,0.0,0.0,20157,23431,10418,11416,15600,1
0.0,0.0,0.0,20078,23431,10394,11403,15584,1
0.0,0.0,0.0,20078,23431,10418,11379,15553,1
0.0,0.0,0.0,20098,23385,10394,11354,15568,1
0.0,0.0,0.0,20078,23431,10406,11379,15521,1
0.0,0.0,0.0,20078,23431,10394,11366,15537,1
0.0,0.0,0.0,20176,23477,10406,11354,15553,1
0.0,0.0,0.0,20117,23499,10394,11354,15521,1
0.0,0.0,0.0,20157,23431,10394,11379,15475,1
0.0,0.0,0.0,20157,23431,10394,11366,15490,1
0.0,0.0,0.0,20078,23431,10371,11354,15521,1
0.0,0.0,0.0,20098,23431,10371,11354,15490,1
0.0,0.0,0.0,20157,23431,10348,11366,15459,1
0.0,0.0,0.0,20117,23431,10348,11354,15475,1
0.0,0.0,0.0,20117,23431,10325,11354,15475,1
0.0,0.0,0.0,20117,23431,10313,11366,15475,1
0.0,0.0,0.0,20117,23454,10336,11366,15490,1
0.0,0.0,0.0,20098,23431,10348,11354,15459,1
0.0,0.0,0.0,20098,23431,10313,11329,15521,1
0.0,0.0,0.0,20157,23454,10301,11366,15521,1
0.0,0.0,0.0,20176,23431,10278,11354,15521,1
0.0,0.0,0.0,20176,23477,10301,11354,15475,1
0.0,0.0,0.0,20256,23477,10301,11354,15521,1
0.0,0.0,0.0,20275,23546,10301,11354,15490,1
0.0,0.0,0.0,20375,23499,10267,11354,15459,1
0.0,0.0,0.0,20475,23569,10278,11366,15459,1
0.0,0.0,0.0,20395,23569,10301,11354,15428,1
0.0,0.0,0.0,20435,23569,10301,11354,15428,1
0.0,0.0,0.0,20475,23615,10301,11354,15459,1
0.0,0.0,0.0,20415,23569,10290,11354,15412,1
0.0,0.0,0.0,20395,23477,10301,11329,15428,1
0.0,0.0,0.0,20395,23569,10278,11354,15459,1
0.0,0.0,0.0,20395,23522,10267,11354,15412,1
0.0,0.0,0.0,20415,23592,10301,11329,15397,1
0.0,0.0,0.0,20415,23615,10278,11354,15428,1
0.0,0.0,0.0,20275,23569,10255,11304,15475,1
0.0,0.0,0.0,20256,23569,10255,11304,15490,1
0.0,0.0,0.0,20275,23522,10232,11304,15490,1
0.0,0.0,0.0,20236,23477,10209,11317,15615,1
0.0,0.0,0.0,20236,23569,10117,11403,15837,1
0.0,0.0,0.0,20256,23615,10255,11703,16352,1
0.0,0.0,0.0,20275,23638,10348,12009,16615,1
0.0,0.0,0.0,20335,23615,10371,12099,16665,1
0.0,0.0,0.0,20315,23638,10488,12464,16999,1
0.0,0.0,0.0,20315,23615,10476,12451,17220,1
0.0,0.0,0.0,20355,23477,10464,12477,17513,1
0.0,0.0,0.0,20395,23499,10441,12398,17634,1
0.0,0.0,0.0,20375,23499,10418,12320,18057,1
0.0,0.0,0.0,20435,23499,10418,12241,18272,1
0.0,0.0,0.0,20535,23477,10406,12215,18709,1
0.0,0.0,0.0,20555,23522,10394,12163,19043,1
0.0,0.0,0.0,20535,23522,10394,12112,18931,1
0.0,0.0,0.0,20535,23522,10371,12112,18746,1
0.0,0.0,0.0,20515,23499,10394,12009,18562,1
0.0,0.0,0.0,20636,23431,10371,12034,18526,1
0.0,0.0,0.0,20716,23499,10359,12009,18508,1
0.0,0.0,0.0,20636,23385,10371,12009,18489,1
0.0,0.0,0.0,20716,23431,10348,11970,18435,1
0.0,0.0,0.0,20737,23385,10359,12021,18489,1
0.0,0.0,0.0,20737,23385,10348,11996,18417,1
0.0,0.0,0.0,20737,23385,10348,11983,18362,1
0.0,0.0,0.0,20716,23362,10371,12021,18308,1
0.0,0.0,0.0,20636,23385,10325,11957,18326,1
0.0,0.0,0.0,20676,23362,10325,11957,18218,1
0.0,0.0,0.0,20656,23339,10348,11970,18200,1
0.0,0.0,0.0,20595,23362,10325,11983,18164,1
0.0,0.0,0.0,20615,23362,10325,11957,18147,1
0.0,0.0,0.0,20636,23316,10348,11970,18200,1
0.0,0.0,0.0,20615,23339,10325,11983,18164,1
0.0,0.0,0.0,20555,23339,10313,11957,18129,1
0.0,0.0,0.0,20495,23339,10313,11957,18022,1
0.0,0.0,0.0,20555,23385,10301,11957,17968,1
0.0,0.0,0.0,20495,23316,10313,11932,17986,1
0.0,0.0,0.0,20555,23294,10325,11932,17933,1
0.0,0.0,0.0,20495,23431,10348,11881,17634,1
0.0,0.0,0.0,20495,23385,10325,11855,17565,1
0.0,0.0,0.0,20575,23316,10325,11881,17634,1
0.0,0.0,0.0,20595,23385,10325,11868,17634,1
0.0,0.0,0.0,20636,23294,10325,11881,17634,1
0.0,0.0,0.0,20555,23294,10301,11881,17600,1
0.0,0.0,0.0,20555,23316,10313,11868,17495,1
0.0,0.0,0.0,20535,23294,10301,11881,17426,1
0.0,0.0,0.0,20475,23316,10301,11855,17392,1
0.0,0.0,0.0,20475,23316,10313,11868,17392,1
0.0,0.0,0.0,20475,23316,10325,11855,17357,1
0.0,0.0,0.0,20495,23294,10301,11855,17357,1
0.0,0.0,0.0,20555,23294,10301,11830,17357,1
0.0,0.0,0.0,20475,23316,10301,11855,17357,1
0.0,0.0,0.0,20475,23294,10301,11830,17357,1
0.0,0.0,0.0,20475,23294,10301,11830,17392,1
0.0,0.0,0.0,20535,23316,10301,11855,17357,1
0.0,0.0,0.0,20495,23248,10301,11855,17357,1
0.0,0.0,0.0,20475,23294,10301,11868,17357,1
0.0,0.0,0.0,20475,23316,10301,11855,17374,1
0.0,0.0,0.0,20475,23316,10301,11830,17357,1
0.0,0.0,0.0,20515,23248,10301,11830,17426,1
0.0,0.0,0.0,20475,23248,10278,11855,17426,1
0.0,0.0,0.0,20455,23248,10301,11855,17357,1
0.0,0.0,0.0,20575,23431,10313,11842,17323,1
0.0,0.0,0.0,20595,23339,10301,11855,17374,1
0.0,0.0,0.0,20575,23339,10313,11830,17357,1
0.0,0.0,0.0,20535,23339,10313,11855,17323,1
0.0,0.0,0.0,20495,23294,10301,11804,17357,1
0.0,0.0,0.0,20535,23294,10301,11830,17357,1
0.0,0.0,0.0,20495,23294,10301,11830,17409,1
0.0,0.0,0.0,20475,23294,10301,11855,17374,1
0.0,0.0,0.0,20475,23203,10301,11855,17357,1
0.0,0.0,0.0,20475,23294,10290,11855,17374,1
0.0,0.0,0.0,20455,23225,10301,11830,17323,1
0.0,0.0,0.0,20415,23225,10301,11855,17357,1
0.0,0.0,0.0,20395,23203,10301,11830,17323,1
0.0,0.0,0.0,20475,23225,10301,11855,17357,1
0.0,0.0,0.0,20435,23294,10301,11842,17374,1
0.0,0.0,0.0,20435,23248,10313,11842,17392,1
0.0,0.0,0.0,20415,23225,10301,11830,17426,1
0.0,0.0,0.0,20395,23225,10301,11817,17426,1
0.0,0.0,0.0,20395,23225,10301,11830,17426,1
0.0,0.0,0.0,20395,23225,10301,11842,17426,1
0.0,0.0,0.0,20395,23248,10301,11830,17409,1
0.0,0.0,0.0,20375,23225,10301,11830,17443,1
0.0,0.0,0.0,20355,23157,10301,11868,17495,1
0.0,0.0,0.0,20415,23248,10301,11830,17426,1
0.0,0.0,0.0,20335,23157,10301,11855,17426,1
0.0,0.0,0.0,20335,23157,10301,11855,17426,1
0.0,0.0,0.0,20315,23180,10290,11817,17443,1
0.0,0.0,0.0,20315,23225,10301,11842,17478,1
0.0,0.0,0.0,20315,23157,10278,11830,17426,1
0.0,0.0,0.0,20315,23203,10301,11855,17495,1
0.0,0.0,0.0,20335,23203,10301,11855,17495,1
0.0,0.0,0.0,20295,23203,10301,11868,17495,1
0.0,0.0,0.0,20315,23225,10301,11881,17461,1
0.0,0.0,0.0,20295,23203,10301,11855,17530,1
0.0,0.0,0.0,20256,23157,10301,11881,17513,1
0.0,0.0,0.0,20315,23203,10301,11881,17565,1
0.0,0.0,0.0,20275,23157,10301,11906,17530,1
0.0,0.0,0.0,20315,23203,10301,11893,17565,1
0.0,0.0,0.0,20236,23112,10301,11881,17565,1
0.0,0.0,0.0,20275,23157,10313,11906,17547,1
0.0,0.0,0.0,20256,23157,10313,11893,17513,1
0.0,0.0,0.0,20275,23157,10325,11881,17495,1
0.0,0.0,0.0,20295,23135,10301,11906,17513,1
0.0,0.0,0.0,20275,23203,10313,11881,17495,1
0.0,0.0,0.0,20315,23203,10301,11881,17495,1
0.0,0.0,0.0,20315,23203,10290,11855,17461,1
0.0,0.0,0.0,20315,23203,10301,11881,17443,1
0.0,0.0,0.0,20315,23203,10301,11868,17426,1
0.0,0.0,0.0,20256,23180,10301,11881,17426,1
0.0,0.0,0.0,20236,23157,10290,11855,17426,1
0.0,0.0,0.0,20196,23203,10301,11881,17461,1
0.0,0.0,0.0,20275,23135,10301,11855,17443,1
0.0,0.0,0.0,20236,23203,10278,11855,17409,1
0.0,0.0,0.0,20236,23225,10267,11855,17374,1
0.0,0.0,0.0,20275,23203,10301,11881,17461,1
0.0,0.0,0.0,20275,23135,10301,11855,17426,1
0.0,0.0,0.0,20275,23248,10301,11855,17426,1
0.0,0.0,0.0,20236,23271,10278,11868,17392,1
0.0,0.0,0.0,20236,23362,10278,11855,17374,1
0.0,0.0,0.0,20256,23294,10301,11855,17426,1
0.0,0.0,0.0,20256,23339,10278,11855,17426,1
0.0,0.0,0.0,20196,23316,10301,11855,17374,1
0.0,0.0,0.0,20256,23294,10278,11855,17426,1
0.0,0.0,0.0,20256,23316,10278,11855,17357,1
0.0,0.0,0.0,20256,23339,10278,11868,17426,1
0.0,0.0,0.0,20256,23339,10267,11881,17426,1
0.0,0.0,0.0,20256,23431,10290,11855,17426,1
0.0,0.0,0.0,20335,23431,10301,11855,17357,1
0.0,0.0,0.0,20315,23454,10278,11842,17374,1
0.0,0.0,0.0,20355,23431,10301,11855,17392,1
0.0,0.0,0.0,20335,23477,10301,11855,17374,1
0.0,0.0,0.0,20315,23431,10278,11855,17357,1
0.0,0.0,0.0,20335,23454,10290,11855,17374,1
0.0,0.0,0.0,20395,23431,10290,11855,17374,1
0.0,0.0,0.0,20375,23431,10267,11855,17323,1
0.0,0.0,0.0,20375,23431,10278,11855,17374,1
0.0,0.0,0.0,20395,23431,10325,11855,17374,1
0.0,0.0,0.0,20355,23431,10301,11855,17357,1
0.0,0.0,0.0,20395,23431,10278,11855,17374,1
0.0,0.0,0.0,20395,23431,10301,11855,17392,1
0.0,0.0,0.0,20395,23431,10290,11830,17374,1
0.0,0.0,0.0,20335,23431,10301,11855,17357,1
0.0,0.0,0.0,20355,23431,10301,11868,17357,1
0.0,0.0,0.0,20355,23385,10301,11855,17426,1
0.0,0.0,0.0,20355,23385,10278,11855,17426,1
0.0,0.0,0.0,20335,23385,10301,11855,17323,1
0.0,0.0,0.0,20395,23431,10278,11855,17374,1
0.0,0.0,0.0,20335,23362,10267,11855,17357,1
0.0,0.0,0.0,20395,23385,10301,11855,17357,1
0.0,0.0,0.0,20415,23385,10301,11855,17357,1
0.0,0.0,0.0,20395,23385,10278,11855,17357,1
0.0,0.0,0.0,20435,23316,10290,11855,17374,1
0.0,0.0,0.0,20395,23339,10301,11855,17357,1
0.0,0.0,0.0,20475,23385,10301,11855,17357,1
0.0,0.0,0.0,20415,23316,10301,11855,17323,1
0.0,0.0,0.0,20515,23431,10301,11855,17357,1
0.0,0.0,0.0,20555,23385,10301,11855,17323,1
0.0,0.0,0.0,20515,23431,10301,11855,17306,1
0.0,0.0,0.0,20515,23385,10301,11855,17392,1
0.0,0.0,0.0,20475,23431,10278,11868,17357,1
0.0,0.0,0.0,20395,23339,10301,11855,17357,1
0.0,0.0,0.0,20415,23385,10255,11868,17323,1
0.0,0.0,0.0,20335,23385,10290,11855,17306,1
0.0,0.0,0.0,20355,23385,10278,11855,17289,1
0.0,0.0,0.0,20335,23431,10278,11855,17220,1
0.0,0.0,0.0,20355,23431,10290,11855,17237,1
0.0,0.0,0.0,20315,23431,10278,11855,17237,1
0.0,0.0,0.0,20335,23385,10278,11855,17220,1
0.0,0.0,0.0,20295,23385,10267,11868,17186,1
0.0,0.0,0.0,20315,23431,10267,11868,17220,1
0.0,0.0,0.0,20315,23362,10267,11868,17220,1
0.0,0.0,0.0,20315,23385,10267,11868,17186,1
0.0,0.0,0.0,20315,23339,10267,11868,17220,1
0.0,0.0,0.0,20335,23316,10278,11881,17186,1
0.0,0.0,0.0,20315,23362,10267,11868,17169,1
0.0,0.0,0.0,20335,23385,10267,11855,17152,1
0.0,0.0,0.0,20315,23385,10267,11855,17186,1
0.0,0.0,0.0,20335,23316,10278,11868,17220,1
0.0,0.0,0.0,20315,23362,10278,11855,17169,1
0.0,0.0,0.0,20315,23385,10267,11881,17186,1
0.0,0.0,0.0,20335,23385,10267,11855,17186,1
0.0,0.0,0.0,20335,23385,10278,11855,17186,1
