GyroX,GyroY,GyroZ,Thumb,Index,Middle,Ring,Pinky,Gesture
0.0,0.0,0.0,19268,25390,26305,36614,39036,0
0.0,0.0,0.0,19268,25341,26305,36652,38995,0
0.0,0.0,0.0,19306,25341,26253,36576,38912,0
0.0,0.0,0.0,19363,25291,26253,36538,38912,0
0.0,0.0,0.0,19401,25241,26305,36576,38912,0
0.0,0.0,0.0,19420,25216,26305,36614,38666,0
0.0,0.0,0.0,19554,25192,26409,36690,38748,0
0.0,0.0,0.0,19980,25167,26409,36690,38830,0
0.0,0.0,0.0,20515,25241,26331,36614,38422,0
0.0,0.0,0.0,20137,25216,26331,36499,38463,0
0.0,0.0,0.0,19824,25192,26409,36499,38422,0
0.0,0.0,0.0,19592,25192,26513,36690,38422,0
0.0,0.0,0.0,19497,25093,26566,36614,38341,0
0.0,0.0,0.0,19458,25093,26487,36614,38220,0
0.0,0.0,0.0,19382,25167,26435,36538,38180,0
0.0,0.0,0.0,19382,25093,26409,36538,38100,0
0.0,0.0,0.0,19306,25142,26435,36538,38019,0
0.0,0.0,0.0,19287,25044,26461,36614,38100,0
0.0,0.0,0.0,19193,25093,26409,36499,38059,0
0.0,0.0,0.0,19080,25044,26357,36614,37940,0
0.0,0.0,0.0,18875,25044,26383,36462,38100,0
0.0,0.0,0.0,18820,24995,26331,36499,38059,0
0.0,0.0,0.0,18783,25093,26331,36424,38019,0
0.0,0.0,0.0,18931,25019,26305,36462,38019,0
0.0,0.0,0.0,19099,25093,26409,36538,37940,0
0.0,0.0,0.0,19231,25142,26383,36462,38019,0
0.0,0.0,0.0,19212,25093,26383,36538,37860,0
0.0,0.0,0.0,19231,24946,26435,36538,37820,0
0.0,0.0,0.0,19249,25019,26409,36499,37860,0
0.0,0.0,0.0,19193,24995,26409,36462,37900,0
0.0,0.0,0.0,19363,24946,26409,36538,37820,0
0.0,0.0,0.0,19363,24897,26566,36538,37860,0
0.0,0.0,0.0,19535,24873,26487,36614,37781,0
0.0,0.0,0.0,19535,24678,26461,36920,38019,0
0.0,0.0,0.0,19043,24486,26305,36959,37900,0
0.0,0.0,0.0,18617,24630,26073,37036,37701,0
0.0,0.0,0.0,18182,24654,26099,36998,37543,0
0.0,0.0,0.0,17495,24824,26124,36920,37230,0
0.0,0.0,0.0,17016,25291,26305,36920,36843,0
0.0,0.0,0.0,16615,25565,26461,36959,36690,0
0.0,0.0,0.0,16748,25793,26566,36920,36767,0
0.0,0.0,0.0,18129,25591,26461,36959,36843,0
0.0,0.0,0.0,19650,25490,26592,37386,37152,0
0.0,0.0,0.0,20899,25793,26723,37504,37426,0
0.0,0.0,0.0,21043,25869,26723,37543,37622,0
0.0,0.0,0.0,21375,25920,26776,37583,37622,0
0.0,0.0,0.0,21648,25945,26776,37543,37543,0
0.0,0.0,0.0,21882,25996,26749,37504,37465,0
0.0,0.0,0.0,21882,25945,26670,37504,37543,0
0.0,0.0,0.0,21882,25920,26644,37465,37543,0
0.0,0.0,0.0,21882,25894,26618,37504,37543,0
0.0,0.0,0.0,21796,25818,26618,37543,37386,0
0.0,0.0,0.0,21754,25793,26618,37465,37386,0
0.0,0.0,0.0,21796,25742,26566,37465,37308,0
0.0,0.0,0.0,21754,25793,26566,37426,37426,0
0.0,0.0,0.0,21711,25767,26566,37465,37230,0
0.0,0.0,0.0,21733,25717,26513,37426,37308,0
0.0,0.0,0.0,21669,25691,26513,37347,37269,0
0.0,0.0,0.0,21563,25591,26487,37386,37114,0
0.0,0.0,0.0,21542,25616,26435,37308,37191,0
0.0,0.0,0.0,21500,25591,26487,37308,37230,0
0.0,0.0,0.0,21542,25540,26409,37308,37230,0
0.0,0.0,0.0,21669,25540,26409,37386,37269,0
0.0,0.0,0.0,21796,25515,26357,37386,37426,0
0.0,0.0,0.0,21796,25490,26357,37504,37465,0
0.0,0.0,0.0,21648,25515,26409,37465,37543,0
0.0,0.0,0.0,21458,25540,26409,37543,37426,0
0.0,0.0,0.0,21229,25415,26409,37465,37465,0
0.0,0.0,0.0,21043,25440,26409,37504,37308,0
0.0,0.0,0.0,21002,25440,26409,37465,37426,0
0.0,0.0,0.0,20818,25440,26357,37386,37465,0
0.0,0.0,0.0,20818,25341,26331,37308,37347,0
0.0,0.0,0.0,20838,25390,26357,37230,37426,0
0.0,0.0,0.0,21043,25490,26357,37308,37465,0
0.0,0.0,0.0,21818,25717,26409,37308,37583,0
0.0,0.0,0.0,22932,26047,26383,37386,37504,0
0.0,0.0,0.0,23203,26228,26228,36998,37543,0
0.0,0.0,0.0,23157,26228,26047,36805,37543,0
0.0,0.0,0.0,23477,26513,26047,36767,37781,0
0.0,0.0,0.0,23157,26513,26022,36538,37701,0
0.0,0.0,0.0,22731,26513,26124,36310,38301,0
0.0,0.0,0.0,23022,26409,26124,36310,38382,0
0.0,0.0,0.0,23546,26618,26150,36197,38503,0
0.0,0.0,0.0,23800,26697,26279,36386,38830,0
0.0,0.0,0.0,23777,26749,26305,36462,39077,0
0.0,0.0,0.0,23777,26882,26409,36614,39747,0
0.0,0.0,0.0,23777,27122,26566,36767,40259,0
0.0,0.0,0.0,23987,27095,26566,36767,40346,0
0.0,0.0,0.0,24271,27229,26513,36728,40475,0
0.0,0.0,0.0,24058,27068,26409,36690,40173,0
0.0,0.0,0.0,23940,26935,26357,36499,39874,0
0.0,0.0,0.0,23894,26855,26331,36462,39832,0
0.0,0.0,0.0,23754,26908,26305,36462,39874,0
0.0,0.0,0.0,23824,26935,26279,36462,39832,0
0.0,0.0,0.0,23847,26961,26253,36462,39832,0
0.0,0.0,0.0,24011,26988,26305,36462,39917,0
0.0,0.0,0.0,24176,27068,26305,36576,40002,0
0.0,0.0,0.0,24247,27068,26331,36614,39960,0
0.0,0.0,0.0,24294,26935,26331,36538,39832,0
0.0,0.0,0.0,24390,26908,26357,36576,39663,0
0.0,0.0,0.0,24414,26829,26331,36499,39663,0
0.0,0.0,0.0,24414,26829,26305,36462,39536,0
0.0,0.0,0.0,24318,26829,26305,36462,39494,0
0.0,0.0,0.0,24271,26776,26253,36424,39494,0
0.0,0.0,0.0,24247,26749,26228,36386,39536,0
0.0,0.0,0.0,24199,26829,26176,36348,39244,0
0.0,0.0,0.0,23894,26882,26124,36310,39244,0
0.0,0.0,0.0,23754,26829,26099,36235,39327,0
0.0,0.0,0.0,23477,26749,26047,36235,39244,0
0.0,0.0,0.0,23385,26829,26099,36047,39160,0
0.0,0.0,0.0,23112,26723,26047,36197,39036,0
0.0,0.0,0.0,22887,26723,26099,36160,39036,0
0.0,0.0,0.0,22665,26723,26047,36160,38995,0
0.0,0.0,0.0,22599,26802,26099,36160,39119,0
0.0,0.0,0.0,22576,26855,26099,36160,39077,0
0.0,0.0,0.0,22709,26776,26099,36085,39160,0
0.0,0.0,0.0,22798,26829,26099,36047,38995,0
0.0,0.0,0.0,22843,26670,26047,36010,38953,0
0.0,0.0,0.0,22865,26723,26099,35935,38995,0
0.0,0.0,0.0,22709,26618,25996,35898,38953,0
0.0,0.0,0.0,22444,26566,25996,35861,38912,0
0.0,0.0,0.0,22226,26566,25996,35898,38953,0
0.0,0.0,0.0,22096,26513,25996,35861,38912,0
0.0,0.0,0.0,22010,26461,25945,35861,38789,0
0.0,0.0,0.0,21903,26461,25945,35861,38871,0
0.0,0.0,0.0,21818,26513,25894,35861,38666,0
0.0,0.0,0.0,21754,26461,25894,35824,38748,0
0.0,0.0,0.0,21711,26409,25894,35712,38748,0
0.0,0.0,0.0,21648,26409,25843,35639,38666,0
0.0,0.0,0.0,21395,26409,25843,35712,38830,0
0.0,0.0,0.0,21375,26279,25843,35639,38830,0
0.0,0.0,0.0,21291,26253,25843,35712,38748,0
0.0,0.0,0.0,21291,26202,25818,35712,38789,0
0.0,0.0,0.0,21291,26150,25818,35712,38666,0
0.0,0.0,0.0,21291,26099,25793,35824,38666,0
0.0,0.0,0.0,21375,25996,25793,35861,38748,0
0.0,0.0,0.0,21458,25996,25869,35861,38707,0
0.0,0.0,0.0,21479,25945,25869,35824,38789,0
0.0,0.0,0.0,21542,25894,25793,36010,38830,0
0.0,0.0,0.0,21542,25818,25818,36235,38871,0
0.0,0.0,0.0,21542,25818,25793,36310,38912,0
0.0,0.0,0.0,21458,25742,25818,36235,38748,0
0.0,0.0,0.0,21375,25742,25793,36235,38666,0
0.0,0.0,0.0,21229,25691,25793,36160,38666,0
0.0,0.0,0.0,21043,25641,25843,36085,38748,0
0.0,0.0,0.0,20737,25641,25843,36085,38666,0
0.0,0.0,0.0,20555,25440,25843,36085,38666,0
0.0,0.0,0.0,20395,25415,25793,36122,38585,0
0.0,0.0,0.0,20395,25390,25793,36085,38503,0
0.0,0.0,0.0,20355,25390,25793,36010,38544,0
0.0,0.0,0.0,20256,25390,25793,35935,38503,0
0.0,0.0,0.0,20196,25341,25793,36010,38544,0
0.0,0.0,0.0,20078,25291,25767,35935,38503,0
0.0,0.0,0.0,20039,25266,25717,36010,38382,0
0.0,0.0,0.0,19941,25316,25666,36010,38463,0
0.0,0.0,0.0,19941,25216,25691,35898,38382,0
0.0,0.0,0.0,19960,25216,25717,35861,38382,0
0.0,0.0,0.0,19921,25266,25691,35712,38422,0
0.0,0.0,0.0,19843,25192,25691,35749,38301,0
0.0,0.0,0.0,19843,25192,25641,35676,38301,0
0.0,0.0,0.0,19766,25167,25641,35676,38180,0
0.0,0.0,0.0,19708,25118,25591,35565,38260,0
0.0,0.0,0.0,19631,25068,25591,35639,38140,0
0.0,0.0,0.0,19650,25118,25616,35565,38260,0
0.0,0.0,0.0,19497,25093,25641,35602,38100,0
0.0,0.0,0.0,19497,25068,25591,35602,38100,0
0.0,0.0,0.0,19477,25044,25591,35492,38100,0
0.0,0.0,0.0,19592,25093,25540,35418,38180,0
0.0,0.0,0.0,19843,24995,25591,35565,38059,0
0.0,0.0,0.0,20575,25019,25515,35528,38019,0
0.0,0.0,0.0,21375,25142,25591,35418,38019,0
0.0,0.0,0.0,22401,25291,25691,35565,38019,0
0.0,0.0,0.0,23067,25390,25717,35565,37940,0
0.0,0.0,0.0,23180,25490,25894,35787,38019,0
0.0,0.0,0.0,23112,25440,25996,35861,37940,0
0.0,0.0,0.0,23180,25465,26099,36085,37622,0
0.0,0.0,0.0,23431,25440,26099,36160,37622,0
0.0,0.0,0.0,23661,25465,26073,36160,37543,0
0.0,0.0,0.0,23800,25490,26150,36235,37465,0
0.0,0.0,0.0,23964,25440,26073,36160,37583,0
0.0,0.0,0.0,24034,25415,25996,36197,37426,0
0.0,0.0,0.0,24223,25291,25996,36010,37386,0
0.0,0.0,0.0,24129,25216,26022,36047,37230,0
0.0,0.0,0.0,24176,25291,25996,36160,37191,0
0.0,0.0,0.0,24294,25316,26022,36160,37308,0
0.0,0.0,0.0,24606,25316,25945,36160,37308,0
0.0,0.0,0.0,24630,25291,26022,36160,37230,0
0.0,0.0,0.0,24702,25291,25920,36010,36998,0
0.0,0.0,0.0,24654,25465,25843,36010,37308,0
0.0,0.0,0.0,24462,25616,25843,36122,37543,0
0.0,0.0,0.0,24366,25793,25869,36160,37543,0
0.0,0.0,0.0,24271,25843,25920,36386,37662,0
0.0,0.0,0.0,24034,26176,26022,36690,37781,0
0.0,0.0,0.0,23847,26150,26022,36690,38059,0
0.0,0.0,0.0,23777,26253,25996,36690,38019,0
0.0,0.0,0.0,23824,26409,25971,36767,37940,0
0.0,0.0,0.0,23847,26461,25996,36959,37860,0
0.0,0.0,0.0,23777,26487,25945,36920,37940,0
0.0,0.0,0.0,23707,26566,25996,37075,38220,0
0.0,0.0,0.0,23661,26670,25996,37075,38260,0
0.0,0.0,0.0,23499,26592,25818,37308,38180,0
0.0,0.0,0.0,23522,26461,25540,37465,38220,0
0.0,0.0,0.0,23431,26409,25341,37701,38260,0
0.0,0.0,0.0,23294,26435,25316,37940,38220,0
0.0,0.0,0.0,23431,26357,25241,38019,38019,0
0.0,0.0,0.0,23499,26331,25192,37900,38100,0
0.0,0.0,0.0,23546,26305,25118,37701,37781,0
0.0,0.0,0.0,23477,26253,25192,37781,37980,0
0.0,0.0,0.0,23477,26331,25044,37662,37701,0
0.0,0.0,0.0,23431,26253,25044,37583,37622,0
0.0,0.0,0.0,23454,26253,25044,37543,37583,0
0.0,0.0,0.0,23431,26253,24995,37465,37662,0
0.0,0.0,0.0,23431,26228,24995,37386,37701,0
0.0,0.0,0.0,23431,26202,24921,37308,37543,0
0.0,0.0,0.0,23477,26305,24897,37230,37583,0
0.0,0.0,0.0,23477,26331,24946,37114,37543,0
0.0,0.0,0.0,23592,26357,24970,37075,37504,0
0.0,0.0,0.0,23615,26409,24946,36843,37583,0
0.0,0.0,0.0,23707,26409,24946,36767,37622,0
0.0,0.0,0.0,23684,26409,24897,36690,37701,0
0.0,0.0,0.0,23754,26409,24946,36690,37662,0
0.0,0.0,0.0,23707,26409,24897,36576,37543,0
0.0,0.0,0.0,23870,26409,24946,36499,37662,0
0.0,0.0,0.0,23987,26253,24946,36462,37583,0
0.0,0.0,0.0,24034,26202,24995,36424,37622,0
0.0,0.0,0.0,23870,26124,24946,36348,37543,0
0.0,0.0,0.0,23777,26099,24946,36310,37662,0
0.0,0.0,0.0,23754,26073,24946,36235,37701,0
0.0,0.0,0.0,23707,26073,24946,36085,37781,0
0.0,0.0,0.0,23824,25971,24946,36122,37662,0
0.0,0.0,0.0,23800,25843,24897,36047,37701,0
0.0,0.0,0.0,23870,25742,24897,36010,37701,0
0.0,0.0,0.0,23800,25641,24848,36085,37622,0
0.0,0.0,0.0,23847,25565,24824,35972,37543,0
0.0,0.0,0.0,23847,25490,24799,36010,37583,0
0.0,0.0,0.0,23661,25390,24848,36010,37426,0
0.0,0.0,0.0,23294,25241,24848,35898,37465,0
0.0,0.0,0.0,23067,25167,24799,35935,37504,0
0.0,0.0,0.0,23044,25192,24799,35898,37386,0
0.0,0.0,0.0,22955,25167,24751,35787,37426,0
0.0,0.0,0.0,22887,25167,24727,35861,37386,0
0.0,0.0,0.0,22798,25241,24799,35861,37347,0
0.0,0.0,0.0,22754,25192,24848,35787,37426,0
0.0,0.0,0.0,22709,25142,24848,35861,37426,0
0.0,0.0,0.0,22709,25167,24799,35749,37426,0
0.0,0.0,0.0,22357,25044,24727,35712,37269,0
0.0,0.0,0.0,22161,25044,24751,35787,37308,0
0.0,0.0,0.0,22096,24946,24751,35787,37426,0
0.0,0.0,0.0,22075,24970,24848,35787,37465,0
0.0,0.0,0.0,21967,24897,24799,35749,37269,0
0.0,0.0,0.0,22010,24946,24799,35712,37308,0
0.0,0.0,0.0,22010,24897,24727,35787,37347,0
0.0,0.0,0.0,22010,24897,24727,35712,37230,0
0.0,0.0,0.0,21924,24897,24775,35787,37269,0
0.0,0.0,0.0,21903,24848,24751,35639,37308,0
0.0,0.0,0.0,21967,24824,24751,35712,37075,0
0.0,0.0,0.0,21924,24897,24799,35712,37230,0
0.0,0.0,0.0,21967,24824,24751,35676,37308,0
0.0,0.0,0.0,21882,24848,24702,35639,37191,0
0.0,0.0,0.0,21903,24799,24727,35749,37230,0
0.0,0.0,0.0,21903,24799,24751,35712,37269,0
0.0,0.0,0.0,21924,24799,24727,35565,37230,0
0.0,0.0,0.0,21882,24824,24702,35639,37230,0
0.0,0.0,0.0,21924,24799,24678,35639,37230,0
0.0,0.0,0.0,21967,24727,24702,35712,37308,0
0.0,0.0,0.0,22010,24751,24751,35861,37152,0
0.0,0.0,0.0,22010,24702,24727,35787,37230,0
0.0,0.0,0.0,22010,24702,24702,35787,37308,0
0.0,0.0,0.0,22010,24678,24702,35749,37426,0
0.0,0.0,0.0,22053,24678,24678,35787,37386,0
0.0,0.0,0.0,22010,24678,24727,35787,37465,0
0.0,0.0,0.0,22010,24654,24751,35824,37386,0
0.0,0.0,0.0,22053,24678,24727,35861,37308,0
0.0,0.0,0.0,22096,24606,24702,35787,37386,0
0.0,0.0,0.0,22096,24606,24702,35712,37386,0
0.0,0.0,0.0,22053,24534,24678,35712,37426,0
0.0,0.0,0.0,22032,24606,24606,35676,37386,0
0.0,0.0,0.0,22032,24558,24678,35639,37426,0
0.0,0.0,0.0,22053,24558,24654,35639,37426,0
0.0,0.0,0.0,22053,24510,24702,35712,37386,0
0.0,0.0,0.0,22010,24534,24654,35565,37308,0
0.0,0.0,0.0,22053,24606,24678,35639,37347,0
0.0,0.0,0.0,22053,24510,24654,35602,37230,0
0.0,0.0,0.0,22010,24486,24630,35639,37386,0
0.0,0.0,0.0,22053,24510,24630,35639,37386,0
0.0,0.0,0.0,22010,24510,24654,35712,37347,0
0.0,0.0,0.0,22010,24510,24630,35639,37465,0
0.0,0.0,0.0,22010,24414,24630,35639,37386,0
0.0,0.0,0.0,22010,24462,24606,35639,37269,0
0.0,0.0,0.0,22010,24414,24630,35565,37230,0
0.0,0.0,0.0,22010,24462,24606,35565,37308,0
0.0,0.0,0.0,21967,24390,24582,35565,37114,0
0.0,0.0,0.0,22010,24414,24558,35492,37075,0
0.0,0.0,0.0,22010,24390,24606,35492,37152,0
0.0,0.0,0.0,22010,24414,24534,35455,37114,0
0.0,0.0,0.0,22010,24390,24558,35528,37075,0
0.0,0.0,0.0,21882,24390,24510,35492,36998,0
0.0,0.0,0.0,21924,24342,24534,35565,37075,0
0.0,0.0,0.0,22010,24342,24534,35639,36920,0
0.0,0.0,0.0,21924,24342,24534,35676,36998,0
0.0,0.0,0.0,21903,24414,24534,35639,36920,0
0.0,0.0,0.0,21903,24366,24534,35565,36882,0
0.0,0.0,0.0,21839,24414,24510,35602,36920,0
0.0,0.0,0.0,21860,24414,24510,35639,36767,0
0.0,0.0,0.0,21754,24414,24438,35639,36767,0
0.0,0.0,0.0,21711,24366,24438,35639,36690,0
0.0,0.0,0.0,21563,24438,24414,35565,36614,0
0.0,0.0,0.0,21416,24414,24414,35528,36614,0
0.0,0.0,0.0,21291,24462,24414,35418,36614,0
0.0,0.0,0.0,21229,24510,24414,35455,36576,0
0.0,0.0,0.0,21146,24510,24390,35418,36576,0
0.0,0.0,0.0,21125,24510,24342,35345,36690,0
0.0,0.0,0.0,20920,24534,24390,35418,36614,0
0.0,0.0,0.0,20757,24534,24366,35345,36614,0
0.0,0.0,0.0,20636,24510,24342,35345,36614,0
0.0,0.0,0.0,20555,24510,24318,35382,36614,0
0.0,0.0,0.0,20335,24438,24366,35382,36499,0
0.0,0.0,0.0,20196,24510,24318,35199,36614,0
0.0,0.0,0.0,20117,24414,24318,35272,36538,0
0.0,0.0,0.0,20117,24414,24366,35272,36462,0
0.0,0.0,0.0,20019,24414,24318,35199,36462,0
0.0,0.0,0.0,20039,24366,24342,35199,36386,0
0.0,0.0,0.0,19999,24366,24318,35199,36499,0
0.0,0.0,0.0,19999,24366,24318,35163,36462,0
0.0,0.0,0.0,19921,24366,24294,35163,36386,0
0.0,0.0,0.0,19785,24414,24271,35127,36386,0
0.0,0.0,0.0,19573,24390,24271,35127,36462,0
0.0,0.0,0.0,19382,24318,24342,35091,36386,0
0.0,0.0,0.0,19401,24390,24318,35163,36348,0
0.0,0.0,0.0,19401,24318,24271,35091,36386,0
0.0,0.0,0.0,19477,24271,24271,35127,36386,0
0.0,0.0,0.0,19573,24342,24271,35127,36386,0
0.0,0.0,0.0,19805,24271,24294,35127,36348,0
0.0,0.0,0.0,20117,24342,24271,35091,36348,0
0.0,0.0,0.0,20798,24438,24271,35091,36272,0
0.0,0.0,0.0,21043,24438,24318,35163,36085,0
0.0,0.0,0.0,21458,24558,24342,35055,36235,0
0.0,0.0,0.0,21796,24654,24462,35091,36047,0
0.0,0.0,0.0,21711,24606,24462,35127,36047,0
0.0,0.0,0.0,21333,24486,24414,35127,35935,0
0.0,0.0,0.0,21479,24414,24414,35127,35935,0
0.0,0.0,0.0,21796,24438,24414,35163,35861,0
0.0,0.0,0.0,22096,24462,24366,35055,35898,0
0.0,0.0,0.0,22621,24534,24414,35163,35935,0
0.0,0.0,0.0,23294,24873,24462,35127,35861,0
0.0,0.0,0.0,23638,25093,24414,35127,35749,0
0.0,0.0,0.0,23707,25216,24462,35055,35861,0
0.0,0.0,0.0,23777,25241,24462,35055,35861,0
0.0,0.0,0.0,23847,25390,24438,35018,35861,0
0.0,0.0,0.0,23754,25390,24438,35018,35749,0
0.0,0.0,0.0,23592,25440,24462,34982,35749,0
0.0,0.0,0.0,23569,25465,24414,35018,35749,0
0.0,0.0,0.0,23431,25390,24462,34982,35712,0
0.0,0.0,0.0,23385,25341,24390,34839,35639,0
0.0,0.0,0.0,23294,25316,24414,34874,35639,0
0.0,0.0,0.0,23339,25266,24414,34839,35639,0
0.0,0.0,0.0,23248,25291,24390,34731,35639,0
0.0,0.0,0.0,23294,25216,24414,34767,35639,0
0.0,0.0,0.0,23271,25291,24414,34839,35602,0
0.0,0.0,0.0,23294,25241,24366,34767,35639,0
0.0,0.0,0.0,23316,25241,24342,34731,35565,0
0.0,0.0,0.0,23271,25192,24366,34767,35565,0
0.0,0.0,0.0,23339,25142,24342,34839,35492,0
0.0,0.0,0.0,23316,25192,24366,34803,35492,0
0.0,0.0,0.0,23385,25118,24271,34839,35639,0
0.0,0.0,0.0,23431,25118,24342,34731,35639,0
0.0,0.0,0.0,23431,25142,24342,34731,35565,0
0.0,0.0,0.0,23431,25093,24318,34839,35565,0
0.0,0.0,0.0,23477,25118,24366,34839,35492,0
0.0,0.0,0.0,23477,25167,24318,34803,35528,0
0.0,0.0,0.0,23477,25142,24342,34874,35639,0
0.0,0.0,0.0,23431,25142,24366,34874,35418,0
0.0,0.0,0.0,23477,25093,24366,34946,35565,0
0.0,0.0,0.0,23477,25093,24366,34874,35602,0
0.0,0.0,0.0,23431,25118,24342,34874,35492,0
0.0,0.0,0.0,23477,25118,24294,34910,35528,0
0.0,0.0,0.0,23431,25093,24366,34910,35418,0
0.0,0.0,0.0,23477,25118,24271,34874,35565,0
0.0,0.0,0.0,23477,25093,24318,34910,35455,0
0.0,0.0,0.0,23477,25093,24294,34982,35492,0
0.0,0.0,0.0,23454,25093,24318,34910,35492,0
0.0,0.0,0.0,23546,25142,24342,34910,35639,0
0.0,0.0,0.0,23661,25118,24342,35018,35565,0
0.0,0.0,0.0,23522,25093,24318,34946,35418,0
0.0,0.0,0.0,23477,25093,24271,34910,35492,0
0.0,0.0,0.0,23385,25093,24271,34839,35492,0
0.0,0.0,0.0,23385,25044,24318,34767,35418,0
0.0,0.0,0.0,23385,25019,24318,34839,35345,0
0.0,0.0,0.0,23339,25093,24176,34803,35528,0
0.0,0.0,0.0,23339,25044,24318,34839,35455,0
0.0,0.0,0.0,23316,25118,24271,34767,35345,0
0.0,0.0,0.0,23385,25093,24223,34731,35418,0
0.0,0.0,0.0,23339,25093,24271,34803,35345,0
0.0,0.0,0.0,23294,24995,24271,34839,35345,0
0.0,0.0,0.0,23294,24995,24271,34839,35345,0
0.0,0.0,0.0,23294,25019,24223,34767,35309,0
0.0,0.0,0.0,23248,25044,24247,34731,35345,0
0.0,0.0,0.0,23271,24970,24223,34767,35345,0
0.0,0.0,0.0,23294,24995,24247,34731,35345,0
0.0,0.0,0.0,23294,25019,24152,34767,35418,0
0.0,0.0,0.0,23203,24995,24223,34696,35345,0
0.0,0.0,0.0,23203,25044,24247,34731,35272,0
0.0,0.0,0.0,23203,24995,24247,34696,35382,0
0.0,0.0,0.0,23157,25118,24247,34553,35455,0
0.0,0.0,0.0,23044,25192,24271,34624,35272,0
0.0,0.0,0.0,23090,25291,24223,34518,35345,0
0.0,0.0,0.0,23112,25241,24176,34696,35492,0
0.0,0.0,0.0,23112,25390,24271,34624,35418,0
0.0,0.0,0.0,23112,25591,24318,34982,35639,0
0.0,0.0,0.0,23203,25666,24366,35163,35639,0
0.0,0.0,0.0,23271,25691,24366,35418,36462,0
0.0,0.0,0.0,23294,25843,24438,35639,37075,0
0.0,0.0,0.0,23225,25793,24438,35602,36998,0
0.0,0.0,0.0,23203,25793,24438,35309,36767,0
0.0,0.0,0.0,23225,25666,24438,35345,36728,0
0.0,0.0,0.0,23316,25616,24390,35272,36690,0
0.0,0.0,0.0,23248,25490,24414,35345,36538,0
0.0,0.0,0.0,23294,25490,24438,35345,36614,0
0.0,0.0,0.0,23431,25440,24438,35345,36690,0
0.0,0.0,0.0,23339,25490,24414,35272,36652,0
0.0,0.0,0.0,23294,25540,24414,35309,36462,0
0.0,0.0,0.0,23431,25515,24366,35236,36424,0
0.0,0.0,0.0,23454,25465,24366,35309,36348,0
0.0,0.0,0.0,23431,25415,24414,35163,36348,0
0.0,0.0,0.0,23385,25440,24414,35199,36310,0
0.0,0.0,0.0,23431,25415,24366,35272,36235,0
0.0,0.0,0.0,23385,25440,24342,35199,36235,0
0.0,0.0,0.0,23385,25390,24342,35055,36235,0
0.0,0.0,0.0,23385,25440,24342,35127,36160,0
0.0,0.0,0.0,23385,25390,24318,35055,36085,0
0.0,0.0,0.0,23339,25415,24271,35055,36197,0
0.0,0.0,0.0,23385,25341,24318,35127,36047,0
0.0,0.0,0.0,23294,25341,24342,35127,36085,0
0.0,0.0,0.0,23271,25390,24271,35055,36047,0
0.0,0.0,0.0,23203,25616,24342,36047,36920,0
0.0,0.0,0.0,23112,25742,24318,36197,37036,0
0.0,0.0,0.0,23044,25717,24462,36348,37230,0
0.0,0.0,0.0,23022,25691,24438,36235,37075,0
0.0,0.0,0.0,23044,25666,24438,36197,37230,0
0.0,0.0,0.0,22999,25616,24438,36160,37075,0
0.0,0.0,0.0,22977,25742,24462,36010,37114,0
0.0,0.0,0.0,22932,25742,24438,36085,37152,0
0.0,0.0,0.0,22932,25767,24438,36010,37114,0
0.0,0.0,0.0,23044,25691,24510,35861,36959,0
0.0,0.0,0.0,23112,25691,24438,35712,36767,0
0.0,0.0,0.0,23203,25591,24414,35787,36538,0
0.0,0.0,0.0,23339,25540,24366,35528,36499,0
0.0,0.0,0.0,23477,25490,24318,35272,36386,0
0.0,0.0,0.0,23522,25490,24318,35455,36235,0
0.0,0.0,0.0,23546,25440,24271,35309,36197,0
0.0,0.0,0.0,23522,25440,24247,35309,36160,0
0.0,0.0,0.0,23522,25440,24247,35309,36197,0
0.0,0.0,0.0,23477,25465,24271,35199,36085,0
0.0,0.0,0.0,23431,25440,24247,35236,36122,0
0.0,0.0,0.0,23477,25440,24247,35199,36010,0
0.0,0.0,0.0,23431,25415,24223,35163,36010,0
0.0,0.0,0.0,23431,25365,24247,35127,36010,0
0.0,0.0,0.0,23431,25341,24271,35163,36010,0
0.0,0.0,0.0,23408,25341,24247,35163,36010,0
0.0,0.0,0.0,23385,25341,24247,35163,35972,0
0.0,0.0,0.0,23431,25266,24223,35127,35935,0
0.0,0.0,0.0,23431,25390,24223,35055,35935,0
0.0,0.0,0.0,23385,25316,24294,35127,35898,0
0.0,0.0,0.0,23431,25365,24318,35091,35861,0
0.0,0.0,0.0,23431,25241,24318,35055,35787,0
0.0,0.0,0.0,23385,25341,24271,35055,35749,0
0.0,0.0,0.0,23362,25291,24223,34982,35861,0
0.0,0.0,0.0,23339,25241,24271,35055,35712,0
0.0,0.0,0.0,23316,25291,24294,34982,35712,0
0.0,0.0,0.0,23431,25291,24318,34982,35712,0
0.0,0.0,0.0,23385,25241,24294,35018,35712,0
0.0,0.0,0.0,23316,25291,24318,34982,35749,0
0.0,0.0,0.0,23294,25216,24318,34982,35676,0
0.0,0.0,0.0,23294,25266,24318,34982,35639,0
0.0,0.0,0.0,23294,25216,24223,34910,35712,0
0.0,0.0,0.0,23294,25192,24271,35018,35602,0
0.0,0.0,0.0,23294,25241,24318,34982,35602,0
0.0,0.0,0.0,23248,25241,24271,34910,35639,0
0.0,0.0,0.0,23248,25216,24294,34982,35639,0
0.0,0.0,0.0,23225,25241,24223,34982,35676,0
0.0,0.0,0.0,23225,25216,24271,34982,35712,0
0.0,0.0,0.0,23203,25216,24271,34982,35639,0
0.0,0.0,0.0,23203,25167,24271,34982,35639,0
0.0,0.0,0.0,23203,25142,24247,34946,35712,0
0.0,0.0,0.0,23294,25241,24223,34910,35676,0
0.0,0.0,0.0,23203,25241,24223,34910,35712,0
0.0,0.0,0.0,23135,25192,24223,34910,35712,0
0.0,0.0,0.0,22977,25241,24223,34910,35712,0
0.0,0.0,0.0,22843,25216,24223,34910,35712,0
0.0,0.0,0.0,22621,25241,24223,34839,35712,0
0.0,0.0,0.0,22444,25192,24223,34874,35676,0
0.0,0.0,0.0,22313,25192,24199,34839,35602,0
0.0,0.0,0.0,22357,25142,24176,34731,35639,0
0.0,0.0,0.0,22140,25192,24129,34767,35639,0
0.0,0.0,0.0,22010,25167,24129,34767,35565,0
0.0,0.0,0.0,21291,25044,24152,34696,35565,0
0.0,0.0,0.0,20475,25019,24129,34696,35676,0
0.0,0.0,0.0,20295,24873,24152,34696,35565,0
0.0,0.0,0.0,20236,24873,24034,34624,35639,0
0.0,0.0,0.0,20098,24799,24058,34553,35565,0
0.0,0.0,0.0,19980,24799,24105,34589,35565,0
0.0,0.0,0.0,19727,24751,24129,34518,35565,0
0.0,0.0,0.0,19554,24702,24081,34553,35565,0
0.0,0.0,0.0,19535,24727,24058,34553,35602,0
0.0,0.0,0.0,19401,24702,24034,34518,35676,0
0.0,0.0,0.0,19401,24654,24011,34412,35712,0
0.0,0.0,0.0,19344,24654,24058,34447,35565,0
0.0,0.0,0.0,19325,24654,24105,34447,35492,0
0.0,0.0,0.0,19193,24606,23964,34412,35492,0
0.0,0.0,0.0,19118,24606,24034,34447,35639,0
0.0,0.0,0.0,19043,24630,23987,34412,35565,0
0.0,0.0,0.0,19080,24558,24034,34412,35602,0
0.0,0.0,0.0,18968,24582,24058,34482,35676,0
0.0,0.0,0.0,18931,24606,24034,34341,35602,0
0.0,0.0,0.0,18931,24582,23987,34412,35712,0
0.0,0.0,0.0,18801,24534,24011,34341,35676,0
0.0,0.0,0.0,18820,24534,24034,34412,35639,0
0.0,0.0,0.0,18709,24510,23987,34341,35602,0
0.0,0.0,0.0,18727,24510,23940,34341,35676,0
0.0,0.0,0.0,18672,24510,23964,34341,35639,0
0.0,0.0,0.0,18581,24486,23987,34271,35492,0
0.0,0.0,0.0,18654,24510,23964,34271,35492,0
0.0,0.0,0.0,18562,24510,23964,34341,35492,0
0.0,0.0,0.0,18599,24558,23940,34200,35565,0
0.0,0.0,0.0,18526,24510,23894,34235,35602,0
0.0,0.0,0.0,18508,24486,23940,34200,35602,0
0.0,0.0,0.0,18453,24462,23940,34271,35418,0
0.0,0.0,0.0,18435,24414,23940,34200,35418,0
0.0,0.0,0.0,18508,24462,23894,34271,35565,0
0.0,0.0,0.0,18508,24558,23917,34235,35528,0
0.0,0.0,0.0,18562,24534,23894,34200,35455,0
0.0,0.0,0.0,18435,24534,23940,34165,35455,0
0.0,0.0,0.0,18489,24510,23940,34130,35418,0
0.0,0.0,0.0,18489,24414,23917,34165,35382,0
0.0,0.0,0.0,18417,24414,23847,34130,35492,0
0.0,0.0,0.0,18489,24414,23870,34130,35492,0
0.0,0.0,0.0,18417,24414,23894,34200,35418,0
0.0,0.0,0.0,18453,24438,23894,34130,35418,0
0.0,0.0,0.0,18672,24438,23940,34130,35492,0
0.0,0.0,0.0,19005,24438,23940,34130,35418,0
0.0,0.0,0.0,19155,24438,23964,34130,35345,0
0.0,0.0,0.0,19689,24438,23987,34130,35455,0
0.0,0.0,0.0,20176,24414,24034,34130,35382,0
0.0,0.0,0.0,20656,24414,23987,34376,35236,0
0.0,0.0,0.0,20879,24438,24034,34130,35382,0
0.0,0.0,0.0,21250,24438,24058,34200,35272,0
0.0,0.0,0.0,21563,24462,24034,34200,35382,0
0.0,0.0,0.0,21711,24510,24081,34235,35345,0
0.0,0.0,0.0,21648,24462,24129,34200,35309,0
0.0,0.0,0.0,21627,24510,24129,34235,35345,0
0.0,0.0,0.0,21648,24534,24129,34200,35272,0
0.0,0.0,0.0,21563,24510,24081,34235,35309,0
0.0,0.0,0.0,21711,24510,24081,34130,35309,0
0.0,0.0,0.0,21669,24606,24081,34200,35309,0
0.0,0.0,0.0,21563,24510,23987,34271,35382,0
0.0,0.0,0.0,21542,24510,23964,34026,35272,0
0.0,0.0,0.0,21333,24414,23987,34165,35199,0
0.0,0.0,0.0,21146,24414,23964,34130,35018,0
0.0,0.0,0.0,21208,24342,23940,34130,35091,0
0.0,0.0,0.0,21146,24294,23964,34165,35091,0
0.0,0.0,0.0,21354,24318,23917,34130,35018,0
0.0,0.0,0.0,21500,24438,23870,34130,34874,0
0.0,0.0,0.0,21711,24630,23894,34026,34982,0
0.0,0.0,0.0,21775,24799,23894,34060,34910,0
0.0,0.0,0.0,21796,24799,23870,33991,34910,0
0.0,0.0,0.0,21733,24799,23847,33991,34946,0
0.0,0.0,0.0,21648,24702,23847,33921,34982,0
0.0,0.0,0.0,21542,24678,23870,33921,34874,0
0.0,0.0,0.0,21458,24678,23847,33817,34874,0
0.0,0.0,0.0,21458,24654,23894,33887,34839,0
0.0,0.0,0.0,21395,24654,23847,33887,34874,0
0.0,0.0,0.0,21375,24654,23847,33921,34839,0
0.0,0.0,0.0,21375,24702,23894,33921,34839,0
0.0,0.0,0.0,21291,24606,23870,33921,34874,0
0.0,0.0,0.0,21229,24582,23894,33991,34803,0
0.0,0.0,0.0,21291,24606,23894,33956,34803,0
0.0,0.0,0.0,21250,24606,23847,33956,34803,0
0.0,0.0,0.0,21167,24606,23824,33921,34767,0
0.0,0.0,0.0,21187,24630,23870,33887,34839,0
0.0,0.0,0.0,21208,24606,23847,33921,34839,0
0.0,0.0,0.0,21146,24558,23870,33921,34910,0
0.0,0.0,0.0,21187,24582,23847,33956,34767,0
0.0,0.0,0.0,21125,24606,23917,33852,34803,0
0.0,0.0,0.0,21125,24606,23847,33921,34839,0
0.0,0.0,0.0,21125,24606,23870,33956,34839,0
0.0,0.0,0.0,21084,24582,23847,33852,34910,0
0.0,0.0,0.0,21084,24606,23870,33887,34839,0
0.0,0.0,0.0,21084,24558,23847,33991,34874,0
0.0,0.0,0.0,21084,24558,23870,33956,34767,0
0.0,0.0,0.0,21043,24606,23847,33921,34839,0
0.0,0.0,0.0,21043,24558,23870,33921,34874,0
0.0,0.0,0.0,21043,24534,23777,33887,34839,0
0.0,0.0,0.0,20961,24510,23847,33991,34803,0
0.0,0.0,0.0,21043,24534,23847,33921,34910,0
0.0,0.0,0.0,21043,24582,23870,33921,34731,0
0.0,0.0,0.0,21084,24558,23894,34026,34839,0
0.0,0.0,0.0,21043,24606,23847,33921,34696,0
0.0,0.0,0.0,20981,24558,23847,33887,34731,0
0.0,0.0,0.0,20961,24534,23800,33991,34731,0
0.0,0.0,0.0,21064,24558,23894,33921,34767,0
0.0,0.0,0.0,21043,24558,23870,33887,34803,0
0.0,0.0,0.0,21043,24510,23847,33852,34731,0
0.0,0.0,0.0,21043,24582,23847,33887,34767,0
0.0,0.0,0.0,21043,24606,23847,33921,34839,0
0.0,0.0,0.0,21043,24486,23847,33887,34839,0
0.0,0.0,0.0,21043,24534,23800,33921,34839,0
0.0,0.0,0.0,20981,24510,23824,33991,34731,0
0.0,0.0,0.0,20981,24534,23847,33887,34767,0
0.0,0.0,0.0,20961,24534,23847,33852,34767,0
0.0,0.0,0.0,20920,24558,23870,33887,34696,0
0.0,0.0,0.0,20961,24510,23894,34026,34731,0
0.0,0.0,0.0,20940,24606,23847,33921,34660,0
0.0,0.0,0.0,20981,24462,23940,33991,34696,0
0.0,0.0,0.0,20920,24534,23847,33887,34767,0
0.0,0.0,0.0,20899,24462,23870,34026,34589,0
0.0,0.0,0.0,20920,24510,23940,33921,34624,0
0.0,0.0,0.0,20920,24534,23894,33921,34696,0
0.0,0.0,0.0,20961,24462,23870,33991,34696,0
0.0,0.0,0.0,20961,24510,23940,33991,34624,0
0.0,0.0,0.0,20961,24510,23870,33991,34696,0
0.0,0.0,0.0,20961,24414,23894,33991,34553,0
0.0,0.0,0.0,21022,24414,23847,33991,34589,0
0.0,0.0,0.0,20981,24414,23894,34026,34696,0
0.0,0.0,0.0,20920,24534,23894,33921,34518,0
0.0,0.0,0.0,20961,24510,23894,33921,34696,0
0.0,0.0,0.0,20961,24462,23917,34026,34624,0
0.0,0.0,0.0,20961,24510,23917,33991,34589,0
0.0,0.0,0.0,20961,24438,23894,33921,34696,0
0.0,0.0,0.0,20920,24462,23870,33921,34553,0
0.0,0.0,0.0,20899,24486,23894,33887,34518,0
0.0,0.0,0.0,20920,24438,23870,33921,34589,0
0.0,0.0,0.0,20899,24462,23940,33921,34553,0
0.0,0.0,0.0,20879,24486,23847,33921,34589,0
0.0,0.0,0.0,20940,24486,23894,33921,34624,0
0.0,0.0,0.0,20920,24462,23870,33956,34553,0
0.0,0.0,0.0,20818,24414,23870,33991,34553,0
0.0,0.0,0.0,20859,24462,23894,33887,34589,0
0.0,0.0,0.0,20899,24414,23894,33991,34624,0
0.0,0.0,0.0,20920,24486,23940,33991,34553,0
0.0,0.0,0.0,21125,24510,23987,34026,34696,0
0.0,0.0,0.0,21354,24462,24105,34165,34624,0
0.0,0.0,0.0,21521,24510,24129,34130,34839,0
0.0,0.0,0.0,21542,24414,24152,34200,34874,0
0.0,0.0,0.0,21627,24438,23987,34130,34910,0
0.0,0.0,0.0,21437,24438,23964,34130,35163,0
0.0,0.0,0.0,21229,24414,23964,34130,35163,0
0.0,0.0,0.0,21064,24486,23940,34165,35163,0
0.0,0.0,0.0,20899,24510,23847,34130,35127,0
0.0,0.0,0.0,20920,24366,23894,33991,34946,0
0.0,0.0,0.0,20961,24414,23964,33991,34982,0
0.0,0.0,0.0,20961,24390,23894,34200,35055,0
0.0,0.0,0.0,20961,24414,23940,34412,35127,0
0.0,0.0,0.0,20899,24390,23847,34624,35272,0
0.0,0.0,0.0,20879,24414,23940,34696,35382,0
0.0,0.0,0.0,20838,24366,23847,34589,35272,0
0.0,0.0,0.0,20920,24462,23870,34518,35199,0
0.0,0.0,0.0,20981,24606,23940,34376,35127,0
0.0,0.0,0.0,20961,24606,23870,34271,35127,0
0.0,0.0,0.0,20879,24510,23847,34271,35055,0
0.0,0.0,0.0,20899,24534,23940,34235,35163,0
0.0,0.0,0.0,20838,24486,23870,34412,35272,0
0.0,0.0,0.0,20798,24534,23894,34839,35492,0
0.0,0.0,0.0,20859,24775,23894,34982,35935,0
0.0,0.0,0.0,21084,24946,24176,35272,36386,0
0.0,0.0,0.0,21064,25093,24152,35127,36499,0
0.0,0.0,0.0,21064,24995,24176,35055,36462,0
0.0,0.0,0.0,21125,25044,24176,34839,36462,0
0.0,0.0,0.0,21250,25093,24176,34696,36197,0
0.0,0.0,0.0,21333,25142,24152,34624,36122,0
0.0,0.0,0.0,21375,25167,24176,34447,35972,0
0.0,0.0,0.0,21312,25142,24129,34412,35861,0
0.0,0.0,0.0,21375,25192,24129,34412,35935,0
0.0,0.0,0.0,21458,25291,24129,34341,35898,0
0.0,0.0,0.0,21333,25241,24081,34482,35824,0
0.0,0.0,0.0,21291,25241,24129,34518,35676,0
0.0,0.0,0.0,21333,25291,24129,34518,35676,0
0.0,0.0,0.0,21312,25216,24176,34518,35639,0
0.0,0.0,0.0,21291,25341,24129,34518,35565,0
0.0,0.0,0.0,21291,25216,24129,34447,35565,0
0.0,0.0,0.0,21250,25216,24129,34447,35418,0
0.0,0.0,0.0,21375,25142,24129,34412,35418,0
0.0,0.0,0.0,21458,25044,24129,34412,35455,0
0.0,0.0,0.0,21479,25093,24058,34341,35528,0
0.0,0.0,0.0,21416,25019,24081,34412,35528,0
0.0,0.0,0.0,21479,25093,24034,34412,35824,0
0.0,0.0,0.0,21479,25093,23964,34341,35712,0
0.0,0.0,0.0,21458,25093,24034,34553,35749,0
0.0,0.0,0.0,21333,25142,23987,34447,35749,0
0.0,0.0,0.0,21312,25093,24034,34341,35676,0
0.0,0.0,0.0,21354,25019,23987,34341,35712,0
0.0,0.0,0.0,21291,25044,23964,34341,35639,0
0.0,0.0,0.0,21291,25044,23987,34271,35565,0
0.0,0.0,0.0,21354,25093,23964,34306,35528,0
0.0,0.0,0.0,21312,25093,23964,34235,35565,0
0.0,0.0,0.0,21291,25142,23987,34200,35565,0
0.0,0.0,0.0,21291,25093,24034,34235,35492,0
0.0,0.0,0.0,21312,25044,24034,34271,35345,0
0.0,0.0,0.0,21270,25044,23964,34235,35455,0
0.0,0.0,0.0,21312,24995,24034,34341,35345,0
0.0,0.0,0.0,21291,24995,24034,34165,35345,0
0.0,0.0,0.0,21208,24995,24034,34200,35382,0
0.0,0.0,0.0,21250,24995,24034,34200,35309,0
0.0,0.0,0.0,21291,24995,24034,34235,35345,0
0.0,0.0,0.0,21250,24995,24034,34165,35418,0
0.0,0.0,0.0,21229,24946,23987,34165,35309,0
0.0,0.0,0.0,21250,24970,24034,34200,35345,0
0.0,0.0,0.0,21208,24946,24034,34271,35272,0
0.0,0.0,0.0,21229,24970,23987,34200,35345,0
0.0,0.0,0.0,21250,24946,24011,34341,35309,0
0.0,0.0,0.0,21270,24970,24034,34235,35272,0
0.0,0.0,0.0,21250,24995,24081,34271,35345,0
0.0,0.0,0.0,21208,24995,24058,34271,35272,0
0.0,0.0,0.0,21291,24946,24034,34271,35199,0
0.0,0.0,0.0,21250,24946,24058,34271,35199,0
0.0,0.0,0.0,21250,24995,24034,34271,35236,0
0.0,0.0,0.0,21208,24995,24034,34341,35163,0
0.0,0.0,0.0,21291,24970,24081,34341,35163,0
0.0,0.0,0.0,21229,24897,24058,34271,35091,0
0.0,0.0,0.0,21291,24946,24011,34271,35272,0
0.0,0.0,0.0,21291,24897,24034,34271,35199,0
0.0,0.0,0.0,21229,24897,24034,34200,35199,0
0.0,0.0,0.0,21291,24946,23987,34130,35199,0
0.0,0.0,0.0,21250,24897,24034,34200,35163,0
0.0,0.0,0.0,21208,24873,24034,34235,35127,0
0.0,0.0,0.0,21229,24848,24034,34200,35199,0
0.0,0.0,0.0,21229,24897,23987,34200,35127,0
0.0,0.0,0.0,21208,24897,23987,34200,35127,0
0.0,0.0,0.0,21250,24897,23964,34095,35199,0
0.0,0.0,0.0,21229,24897,24034,34130,35127,0
0.0,0.0,0.0,21229,24897,23964,34165,35055,0
0.0,0.0,0.0,21229,24897,24034,34060,35163,0
0.0,0.0,0.0,21208,24897,24034,34130,35127,0
0.0,0.0,0.0,21208,24897,23987,34130,35055,0
0.0,0.0,0.0,21208,24946,23987,34165,35127,0
0.0,0.0,0.0,21229,24921,23987,34165,35127,0
0.0,0.0,0.0,21167,24873,24034,34200,35055,0
0.0,0.0,0.0,21208,24897,24034,34200,35127,0
0.0,0.0,0.0,21167,24897,23964,34130,35127,0
0.0,0.0,0.0,21208,24921,23987,34165,35127,0
0.0,0.0,0.0,21146,24848,23987,34165,34982,0
0.0,0.0,0.0,21125,24848,23964,34130,35055,0
0.0,0.0,0.0,21125,24848,24034,34130,35127,0
0.0,0.0,0.0,21125,24799,23987,34130,35018,0
0.0,0.0,0.0,21146,24897,23940,34130,35127,0
0.0,0.0,0.0,21125,24873,23940,34306,35345,0
0.0,0.0,0.0,21125,24946,23940,34271,35418,0
0.0,0.0,0.0,21084,25019,23940,34553,35787,0
0.0,0.0,0.0,21084,25093,24034,34624,35861,0
0.0,0.0,0.0,20981,25093,24011,34696,36010,0
0.0,0.0,0.0,20981,25216,24081,34767,35935,0
0.0,0.0,0.0,20920,25291,24081,34696,36010,0
0.0,0.0,0.0,20879,25241,24058,34589,35935,0
0.0,0.0,0.0,20879,25216,24034,34482,36010,0
0.0,0.0,0.0,21002,25142,24081,34341,35861,0
0.0,0.0,0.0,21084,25142,24034,34341,35824,0
0.0,0.0,0.0,21167,25093,24034,34271,35712,0
0.0,0.0,0.0,21167,25093,24105,34235,35639,0
0.0,0.0,0.0,21125,24995,24058,34235,35787,0
0.0,0.0,0.0,21125,25044,24034,34200,35676,0
0.0,0.0,0.0,21125,24995,24034,34165,35676,0
0.0,0.0,0.0,21064,24946,24034,34271,35639,0
0.0,0.0,0.0,21002,24946,23987,34200,35749,0
0.0,0.0,0.0,21064,24897,23940,34095,35565,0
0.0,0.0,0.0,21043,24995,23987,34130,35602,0
0.0,0.0,0.0,21043,24946,24034,34165,35492,0
0.0,0.0,0.0,21125,24921,23964,34200,35492,0
0.0,0.0,0.0,21125,24946,24011,34130,35418,0
0.0,0.0,0.0,21125,24946,23987,34200,35382,0
0.0,0.0,0.0,21125,24946,24034,34130,35382,0
0.0,0.0,0.0,21125,24946,23987,34130,35345,0
0.0,0.0,0.0,21125,24995,23987,34095,35345,0
0.0,0.0,0.0,21084,24970,23940,34060,35418,0
0.0,0.0,0.0,21105,24946,23940,34060,35272,0
0.0,0.0,0.0,21105,24946,23940,34060,35272,0
0.0,0.0,0.0,21125,24897,23987,34060,35272,0
0.0,0.0,0.0,21146,24921,23940,34026,35272,0
0.0,0.0,0.0,21125,24946,23940,34026,35309,0
0.0,0.0,0.0,21125,24995,23894,33991,35272,0
0.0,0.0,0.0,21125,24946,23940,34026,35272,0
0.0,0.0,0.0,21146,24995,23894,33991,35272,0
0.0,0.0,0.0,21146,24970,23940,34026,35163,0
0.0,0.0,0.0,21146,24995,23917,34060,35199,0
0.0,0.0,0.0,21125,24946,23940,33991,35127,0
0.0,0.0,0.0,21146,24995,23940,34026,35091,0
0.0,0.0,0.0,21084,24995,23894,33991,35163,0
0.0,0.0,0.0,21084,24946,23894,33921,35127,0
0.0,0.0,0.0,21084,24995,23894,33991,35127,0
0.0,0.0,0.0,21125,24995,23940,34026,35127,0
0.0,0.0,0.0,21064,25019,23894,33956,35091,0
0.0,0.0,0.0,21084,24995,23940,33991,35055,0
0.0,0.0,0.0,21105,24995,23940,33956,35055,0
0.0,0.0,0.0,21125,24995,23940,34026,34982,0
0.0,0.0,0.0,21064,24946,23894,34026,35055,0
0.0,0.0,0.0,21125,24946,23917,33991,34982,0
0.0,0.0,0.0,21084,24946,23870,34026,35055,0
0.0,0.0,0.0,21084,24995,23870,33991,35091,0
0.0,0.0,0.0,21043,24946,23847,34026,34982,0
0.0,0.0,0.0,21125,24995,23917,34026,35018,0
0.0,0.0,0.0,21084,24946,23894,33991,34982,0
0.0,0.0,0.0,21043,24970,23894,33991,34946,0
0.0,0.0,0.0,21043,24946,23894,34060,34982,0
0.0,0.0,0.0,21064,24946,23894,34026,34910,0
0.0,0.0,0.0,21022,24946,23940,34060,34946,0
0.0,0.0,0.0,21043,24995,23894,34026,34946,0
0.0,0.0,0.0,21043,24946,23894,33991,34874,0
0.0,0.0,0.0,21002,24995,23847,34060,34910,0
0.0,0.0,0.0,21002,24995,23894,34060,34982,0
0.0,0.0,0.0,21064,24995,23894,34060,34982,0
0.0,0.0,0.0,21084,24946,23870,33991,34982,0
0.0,0.0,0.0,21064,25019,23894,33991,34910,0
0.0,0.0,0.0,21002,24995,23870,33956,34910,0
0.0,0.0,0.0,21002,24946,23940,33921,34874,0
0.0,0.0,0.0,20981,24995,23917,33956,34910,0
0.0,0.0,0.0,21002,24995,23894,34026,34910,0
0.0,0.0,0.0,21002,24995,23894,33991,34767,0
0.0,0.0,0.0,21022,24995,23894,33921,34803,0
0.0,0.0,0.0,20961,24995,23894,33956,34767,0
0.0,0.0,0.0,21002,25019,23917,33921,34731,0
0.0,0.0,0.0,20981,24995,23894,33921,34839,0
0.0,0.0,0.0,21043,24946,23870,33887,34767,0
0.0,0.0,0.0,21043,24946,23894,33887,34767,0
0.0,0.0,0.0,21064,24921,23894,33887,34767,0
0.0,0.0,0.0,20981,24946,23894,33887,34839,0
0.0,0.0,0.0,21002,24946,23847,33887,34803,0
0.0,0.0,0.0,21043,24946,23847,33956,34696,0
0.0,0.0,0.0,21064,24946,23894,33991,34731,0
0.0,0.0,0.0,21125,24946,23894,33921,34696,0
0.0,0.0,0.0,21146,24946,23917,33887,34731,0
0.0,0.0,0.0,21146,24921,23894,33991,34839,0
0.0,0.0,0.0,21229,24897,23894,33921,34731,0
0.0,0.0,0.0,21291,24921,23940,33991,34803,0
0.0,0.0,0.0,21375,24824,23940,33991,34696,0
0.0,0.0,0.0,21458,24848,23940,33991,34803,0
0.0,0.0,0.0,21500,24897,23987,33956,34767,0
0.0,0.0,0.0,21563,24824,23940,33921,34696,0
0.0,0.0,0.0,21563,24848,23940,33921,34696,0
0.0,0.0,0.0,21500,24824,23894,33887,34767,0
0.0,0.0,0.0,21500,24799,23940,33921,34696,0
0.0,0.0,0.0,21479,24824,23894,33921,34624,0
0.0,0.0,0.0,21479,24848,23940,33991,34624,0
0.0,0.0,0.0,21542,24799,23917,33921,34696,0
0.0,0.0,0.0,21458,24799,23917,33921,34696,0
0.0,0.0,0.0,21458,24799,23940,33991,34731,0
0.0,0.0,0.0,21479,24824,23894,33991,34696,0
0.0,0.0,0.0,21458,24848,23917,33887,34660,0
0.0,0.0,0.0,21458,24799,23894,33991,34553,0
0.0,0.0,0.0,21395,24848,23894,33852,34696,0
0.0,0.0,0.0,21416,24799,23894,33852,34660,0
0.0,0.0,0.0,21416,24775,23917,33852,34553,0
0.0,0.0,0.0,21416,24727,23870,33956,34660,0
0.0,0.0,0.0,21395,24799,23894,33852,34624,0
0.0,0.0,0.0,21312,24751,23847,33852,34624,0
0.0,0.0,0.0,21375,24824,23847,33852,34589,0
0.0,0.0,0.0,21375,24799,23870,33852,34553,0
0.0,0.0,0.0,21333,24751,23894,33921,34589,0
0.0,0.0,0.0,21333,24775,23847,33887,34624,0
0.0,0.0,0.0,21354,24751,23870,33852,34624,0
0.0,0.0,0.0,21354,24799,23847,33783,34553,0
0.0,0.0,0.0,21291,24824,23847,33887,34553,0
0.0,0.0,0.0,21291,24799,23847,33852,34553,0
0.0,0.0,0.0,21312,24799,23847,33852,34624,0
0.0,0.0,0.0,21291,24751,23800,33852,34553,0
0.0,0.0,0.0,21312,24799,23847,33817,34482,0
0.0,0.0,0.0,21291,24799,23847,33783,34589,0
0.0,0.0,0.0,21291,24799,23800,33748,34482,0
0.0,0.0,0.0,21270,24824,23824,33817,34553,0
0.0,0.0,0.0,21229,24848,23800,33748,34518,0
0.0,0.0,0.0,21250,24799,23824,33852,34553,0
0.0,0.0,0.0,21229,24824,23847,33748,34482,0
0.0,0.0,0.0,21208,24799,23847,33748,34482,0
0.0,0.0,0.0,21146,24799,23847,33748,34553,0
0.0,0.0,0.0,21208,24848,23800,33783,34482,0
0.0,0.0,0.0,21187,24799,23847,33817,34482,0
0.0,0.0,0.0,21187,24799,23847,33783,34553,0
0.0,0.0,0.0,21208,24848,23847,33783,34624,0
0.0,0.0,0.0,21208,24799,23800,33714,34553,0
0.0,0.0,0.0,21333,24848,23800,33748,34589,0
0.0,0.0,0.0,21711,24921,23847,33852,34731,0
0.0,0.0,0.0,22075,25068,23800,33783,34767,0
0.0,0.0,0.0,22140,25142,23777,33714,34696,0
0.0,0.0,0.0,22140,25192,23800,33748,34624,0
0.0,0.0,0.0,22313,25241,23777,33748,34696,0
0.0,0.0,0.0,22313,25291,23754,33748,34696,0
0.0,0.0,0.0,22401,25341,23847,33887,34731,0
0.0,0.0,0.0,22270,25440,23894,34060,34982,0
0.0,0.0,0.0,22335,25540,23917,34130,35055,0
0.0,0.0,0.0,22401,25591,23894,34130,35199,0
0.0,0.0,0.0,22532,25515,23940,34130,35163,0
0.0,0.0,0.0,22621,25490,23870,34060,35127,0
0.0,0.0,0.0,22576,25490,23894,34026,35127,0
0.0,0.0,0.0,22621,25390,23870,33921,35127,0
0.0,0.0,0.0,22643,25291,23894,33887,34982,0
0.0,0.0,0.0,22709,25241,23847,33887,34982,0
0.0,0.0,0.0,22665,25192,23847,33921,34839,0
0.0,0.0,0.0,22576,25044,23824,33921,34910,0
0.0,0.0,0.0,22532,25019,23847,33887,34839,0
0.0,0.0,0.0,22423,24995,23800,33921,34767,0
0.0,0.0,0.0,22292,24995,23824,33921,34767,0
0.0,0.0,0.0,22161,25019,23847,33991,34696,0
0.0,0.0,0.0,22010,24995,23847,34026,34731,0
0.0,0.0,0.0,21839,25044,23847,34060,34696,0
0.0,0.0,0.0,21711,25093,23777,33921,34696,0
0.0,0.0,0.0,21648,24995,23847,34026,34589,0
0.0,0.0,0.0,21648,25044,23777,33991,34696,0
0.0,0.0,0.0,21584,25044,23777,33991,34731,0
0.0,0.0,0.0,21627,24995,23847,33991,34553,0
0.0,0.0,0.0,21584,24995,23754,33991,34624,0
0.0,0.0,0.0,21542,24995,23754,33921,34696,0
0.0,0.0,0.0,21458,24995,23754,33991,34624,0
0.0,0.0,0.0,21416,24995,23754,33991,34624,0
0.0,0.0,0.0,21312,25044,23754,33991,34589,0
0.0,0.0,0.0,21312,24946,23754,33991,34660,0
0.0,0.0,0.0,21167,24995,23754,33921,34624,0
0.0,0.0,0.0,20879,24946,23707,33852,34731,0
0.0,0.0,0.0,20737,24995,23754,33921,34696,0
0.0,0.0,0.0,20555,24946,23754,33956,34624,0
0.0,0.0,0.0,20216,24848,23684,33852,34696,0
0.0,0.0,0.0,19805,24799,23684,33887,34660,0
0.0,0.0,0.0,19689,24727,23707,33921,34589,0
0.0,0.0,0.0,19497,24702,23661,33852,34553,0
0.0,0.0,0.0,19420,24654,23707,33783,34696,0
0.0,0.0,0.0,19231,24606,23661,33852,34624,0
0.0,0.0,0.0,19005,24534,23661,33748,34553,0
0.0,0.0,0.0,18857,24462,23661,33921,34696,0
0.0,0.0,0.0,18783,24510,23661,33783,34624,0
0.0,0.0,0.0,18709,24462,23661,33783,34660,0
0.0,0.0,0.0,18672,24486,23615,33748,34660,0
0.0,0.0,0.0,18635,24414,23661,33817,34660,0
0.0,0.0,0.0,18562,24438,23615,33714,34553,0
0.0,0.0,0.0,18417,24486,23661,33714,34696,0
0.0,0.0,0.0,18362,24510,23569,33679,34553,0
0.0,0.0,0.0,18308,24462,23569,33679,34589,0
0.0,0.0,0.0,18164,24414,23592,33611,34767,0
0.0,0.0,0.0,18147,24438,23569,33645,34696,0
0.0,0.0,0.0,18004,24438,23592,33576,34696,0
0.0,0.0,0.0,18111,24438,23569,33611,34803,0
0.0,0.0,0.0,18057,24462,23592,33611,34767,0
0.0,0.0,0.0,18093,24486,23546,33508,34731,0
0.0,0.0,0.0,17915,24438,23499,33474,34696,0
0.0,0.0,0.0,17880,24414,23569,33542,34803,0
0.0,0.0,0.0,17845,24414,23569,33508,34767,0
0.0,0.0,0.0,17845,24414,23431,33576,34803,0
0.0,0.0,0.0,17845,24366,23522,33439,34767,0
0.0,0.0,0.0,17774,24366,23569,33439,34731,0
0.0,0.0,0.0,17774,24366,23499,33439,34767,0
0.0,0.0,0.0,17792,24414,23522,33439,34767,0
0.0,0.0,0.0,17809,24438,23499,33371,34696,0
0.0,0.0,0.0,17915,24390,23499,33439,34696,0
0.0,0.0,0.0,17898,24342,23522,33371,34731,0
0.0,0.0,0.0,17845,24390,23499,33371,34731,0
0.0,0.0,0.0,17792,24366,23477,33439,34767,0
0.0,0.0,0.0,17722,24318,23477,33371,34660,0
0.0,0.0,0.0,17704,24366,23477,33371,34660,0
0.0,0.0,0.0,17739,24318,23477,33337,34767,0
0.0,0.0,0.0,17669,24318,23431,33303,34767,0
0.0,0.0,0.0,17774,24318,23431,33337,34624,0
0.0,0.0,0.0,17669,24223,23454,33371,34767,0
0.0,0.0,0.0,17739,24223,23431,33303,34589,0
0.0,0.0,0.0,17704,24271,23431,33405,34731,0
0.0,0.0,0.0,17669,24271,23431,33371,34660,0
0.0,0.0,0.0,17634,24223,23431,33303,34660,0
0.0,0.0,0.0,17757,24176,23477,33236,34589,0
0.0,0.0,0.0,17845,24223,23431,33371,34660,0
0.0,0.0,0.0,17933,24176,23477,33236,34660,0
0.0,0.0,0.0,18022,24152,23477,33236,34624,0
0.0,0.0,0.0,18004,24176,23477,33236,34624,0
0.0,0.0,0.0,17986,24129,23477,33303,34696,0
0.0,0.0,0.0,17986,24058,23477,33168,34624,0
0.0,0.0,0.0,17986,24081,23477,33236,34660,0
0.0,0.0,0.0,17933,24034,23477,33168,34696,0
0.0,0.0,0.0,17986,24034,23477,33168,34696,0
0.0,0.0,0.0,18022,24034,23522,33168,34624,0
0.0,0.0,0.0,18093,23987,23569,33168,34589,0
0.0,0.0,0.0,18147,23964,23569,33168,34624,0
0.0,0.0,0.0,18236,23917,23522,33100,34553,0
0.0,0.0,0.0,18362,23847,23569,33100,34624,0
0.0,0.0,0.0,18344,23824,23592,33033,34589,0
0.0,0.0,0.0,18326,23800,23615,33100,34624,0
0.0,0.0,0.0,18236,23707,23592,33100,34553,0
0.0,0.0,0.0,18129,23661,23661,33168,34660,0
0.0,0.0,0.0,18022,23661,23661,33168,34589,0
0.0,0.0,0.0,17915,23546,23684,33236,34696,0
0.0,0.0,0.0,17862,23569,23661,33100,34553,0
0.0,0.0,0.0,17809,23477,23730,33236,34624,0
0.0,0.0,0.0,17915,23499,23661,33202,34553,0
0.0,0.0,0.0,17845,23431,23684,33168,34696,0
0.0,0.0,0.0,17862,23431,23661,33236,34767,0
0.0,0.0,0.0,17827,23431,23661,33202,34589,0
0.0,0.0,0.0,17704,23385,23661,33168,34553,0
0.0,0.0,0.0,17739,23339,23615,33100,34696,0
0.0,0.0,0.0,17722,23248,23592,33134,34696,0
0.0,0.0,0.0,17809,23180,23592,33100,34731,0
0.0,0.0,0.0,17880,23225,23592,33168,34589,0
0.0,0.0,0.0,17933,23203,23615,33168,34731,0
0.0,0.0,0.0,18022,23157,23661,33303,34696,0
0.0,0.0,0.0,18022,23135,23569,33202,34696,0
0.0,0.0,0.0,18129,23203,23615,33269,34731,0
0.0,0.0,0.0,18272,23157,23661,33303,34731,0
0.0,0.0,0.0,18308,23157,23569,33202,34624,0
0.0,0.0,0.0,18399,23203,23592,33236,34589,0
0.0,0.0,0.0,18599,23294,23638,33168,34696,0
0.0,0.0,0.0,19043,23431,23661,33303,34696,0
0.0,0.0,0.0,19344,23454,23684,33371,34839,0
0.0,0.0,0.0,19458,23522,23707,33303,34803,0
0.0,0.0,0.0,19592,23522,23707,33303,34696,0
0.0,0.0,0.0,19824,23569,23754,33303,34767,0
0.0,0.0,0.0,19941,23661,23754,33371,34731,0
0.0,0.0,0.0,19999,23661,23684,33269,34731,0
0.0,0.0,0.0,19960,23592,23684,33303,34589,0
0.0,0.0,0.0,20019,23707,23661,33303,34624,0
0.0,0.0,0.0,19999,23661,23707,33303,34553,0
0.0,0.0,0.0,19999,23661,23707,33303,34624,0
0.0,0.0,0.0,19999,23661,23684,33303,34660,0
0.0,0.0,0.0,20039,23707,23661,33303,34482,0
0.0,0.0,0.0,20078,23684,23684,33303,34589,0
0.0,0.0,0.0,20039,23684,23661,33236,34553,0
0.0,0.0,0.0,19941,23661,23684,33236,34482,0
0.0,0.0,0.0,19921,23684,23661,33303,34553,0
0.0,0.0,0.0,19843,23707,23661,33168,34412,0
0.0,0.0,0.0,19805,23730,23684,33202,34553,0
0.0,0.0,0.0,19766,23707,23684,33202,34447,0
0.0,0.0,0.0,19708,23684,23661,33168,34412,0
0.0,0.0,0.0,19708,23684,23661,33236,34553,0
0.0,0.0,0.0,19631,23638,23707,33236,34412,0
0.0,0.0,0.0,19669,23615,23661,33236,34412,0
0.0,0.0,0.0,19612,23592,23661,33303,34482,0
0.0,0.0,0.0,19631,23638,23661,33303,34518,0
0.0,0.0,0.0,19592,23615,23661,33303,34447,0
0.0,0.0,0.0,19631,23592,23661,33202,34447,0
0.0,0.0,0.0,19612,23615,23684,33236,34447,0
0.0,0.0,0.0,19573,23615,23615,33236,34341,0
0.0,0.0,0.0,19535,23592,23754,33303,34412,0
0.0,0.0,0.0,19420,23661,23847,33371,34482,0
0.0,0.0,0.0,19401,23638,23894,33371,34412,0
0.0,0.0,0.0,19382,23684,23870,33371,34447,0
0.0,0.0,0.0,19306,23661,23894,33371,34553,0
0.0,0.0,0.0,19306,23546,23847,33439,34589,0
0.0,0.0,0.0,19401,23661,23987,33474,34482,0
0.0,0.0,0.0,19344,23730,24129,33576,34482,0
0.0,0.0,0.0,19344,23707,24271,33576,34553,0
0.0,0.0,0.0,19344,23684,24223,33576,34874,0
0.0,0.0,0.0,19344,23754,24199,33576,34767,0
0.0,0.0,0.0,19344,23754,24247,33508,34553,0
0.0,0.0,0.0,19306,23754,24366,33576,34553,0
0.0,0.0,0.0,19325,23800,24414,33508,34447,0
0.0,0.0,0.0,19306,23754,24414,33439,34412,0
0.0,0.0,0.0,19268,23847,24462,33474,34412,0
