GyroX,GyroY,GyroZ,Thumb,Index,Middle,Ring,Pinky,Gesture
0.0,0.0,0.0,16060,11817,9777,39832,38830,3
0.0,0.0,0.0,16028,11817,9777,39790,38830,3
0.0,0.0,0.0,16060,11817,9777,39874,38748,3
0.0,0.0,0.0,15948,11830,9800,39747,38789,3
0.0,0.0,0.0,16060,11830,9777,39790,38748,3
0.0,0.0,0.0,16028,11804,9788,39874,38707,3
0.0,0.0,0.0,15980,11830,9800,39832,38748,3
0.0,0.0,0.0,16028,11804,9788,39747,38707,3
0.0,0.0,0.0,16044,11817,9800,39747,38748,3
0.0,0.0,0.0,16012,11804,9800,39747,38830,3
0.0,0.0,0.0,16028,11855,9800,39663,38748,3
0.0,0.0,0.0,16028,11817,9777,39705,38748,3
0.0,0.0,0.0,16028,11830,9800,39663,38707,3
0.0,0.0,0.0,16028,11830,9800,39621,38748,3
0.0,0.0,0.0,16012,11804,9800,39705,38585,3
0.0,0.0,0.0,15996,11830,9800,39705,38625,3
0.0,0.0,0.0,16044,11817,9811,39578,38666,3
0.0,0.0,0.0,15996,11830,9800,39578,38544,3
0.0,0.0,0.0,15980,11817,9811,39578,38666,3
0.0,0.0,0.0,16028,11817,9811,39621,38666,3
0.0,0.0,0.0,15980,11842,9800,39578,38585,3
0.0,0.0,0.0,15996,11817,9811,39536,38666,3
0.0,0.0,0.0,16028,11804,9800,39621,38666,3
0.0,0.0,0.0,15996,11830,9800,39494,38503,3
0.0,0.0,0.0,15980,11804,9811,39536,38666,3
0.0,0.0,0.0,15980,11830,9800,39578,38544,3
0.0,0.0,0.0,16012,11830,9800,39578,38503,3
0.0,0.0,0.0,15996,11804,9800,39578,38585,3
0.0,0.0,0.0,15996,11804,9811,39536,38585,3
0.0,0.0,0.0,15980,11830,9811,39494,38666,3
0.0,0.0,0.0,16028,11804,9811,39536,38585,3
0.0,0.0,0.0,15964,11804,9811,39411,38544,3
0.0,0.0,0.0,15964,11779,9800,39536,38503,3
0.0,0.0,0.0,15964,11817,9800,39578,38463,3
0.0,0.0,0.0,15980,11817,9822,39494,38585,3
0.0,0.0,0.0,15996,11804,9811,39494,38463,3
0.0,0.0,0.0,15964,11817,9811,39411,38503,3
0.0,0.0,0.0,15996,11804,9811,39452,38544,3
0.0,0.0,0.0,15964,11817,9811,39411,38503,3
0.0,0.0,0.0,15980,11804,9800,39452,38503,3
0.0,0.0,0.0,15964,11804,9811,39494,38503,3
0.0,0.0,0.0,15964,11830,9800,39411,38503,3
0.0,0.0,0.0,15980,11804,9800,39494,38463,3
0.0,0.0,0.0,15964,11830,9800,39411,38503,3
0.0,0.0,0.0,15996,11817,9800,39411,38544,3
0.0,0.0,0.0,15964,11855,9800,39327,38422,3
0.0,0.0,0.0,15932,11817,9800,39327,38503,3
0.0,0.0,0.0,15932,11817,9777,39327,38463,3
0.0,0.0,0.0,15932,11804,9766,39244,38422,3
0.0,0.0,0.0,15932,11804,9755,39244,38382,3
0.0,0.0,0.0,15916,11766,9755,39327,38341,3
0.0,0.0,0.0,15916,11766,9755,39160,38341,3
0.0,0.0,0.0,15932,11766,9755,39160,38341,3
0.0,0.0,0.0,15900,11804,9755,39244,38341,3
0.0,0.0,0.0,15900,11779,9755,39160,38260,3
0.0,0.0,0.0,15900,11804,9755,39160,38180,3
0.0,0.0,0.0,15868,11779,9755,39244,38301,3
0.0,0.0,0.0,15900,11792,9755,39077,38260,3
0.0,0.0,0.0,15868,11779,9755,39119,38180,3
0.0,0.0,0.0,15884,11779,9755,39077,38220,3
0.0,0.0,0.0,15868,11830,9721,39244,38220,3
0.0,0.0,0.0,15837,11830,9721,39077,38059,3
0.0,0.0,0.0,15868,11855,9755,39036,38180,3
0.0,0.0,0.0,15852,11881,9721,38995,38220,3
0.0,0.0,0.0,15837,11855,9721,38995,38180,3
0.0,0.0,0.0,15837,11906,9755,38995,38180,3
0.0,0.0,0.0,15789,11855,9721,39036,38100,3
0.0,0.0,0.0,15805,11881,9733,38995,38220,3
0.0,0.0,0.0,15805,11893,9755,38953,38100,3
0.0,0.0,0.0,15789,11893,9755,38830,38059,3
0.0,0.0,0.0,15789,11868,9744,38871,38260,3
0.0,0.0,0.0,15773,11868,9733,38995,38019,3
0.0,0.0,0.0,15773,11906,9733,38953,38019,3
0.0,0.0,0.0,15773,11919,9733,38830,38180,3
0.0,0.0,0.0,15773,11906,9733,38830,38100,3
0.0,0.0,0.0,15773,11932,9721,38748,38100,3
0.0,0.0,0.0,15741,11932,9721,38789,37980,3
0.0,0.0,0.0,15773,11906,9710,38707,38019,3
0.0,0.0,0.0,15773,11919,9733,38871,37940,3
0.0,0.0,0.0,15773,11919,9721,38748,37940,3
0.0,0.0,0.0,15710,11906,9721,38830,37860,3
0.0,0.0,0.0,15726,11906,9710,38789,37900,3
0.0,0.0,0.0,15710,11893,9733,38830,37860,3
0.0,0.0,0.0,15741,11906,9710,38789,37860,3
0.0,0.0,0.0,15726,11906,9710,38830,37900,3
0.0,0.0,0.0,15741,11906,9733,38666,38019,3
0.0,0.0,0.0,15757,11881,9733,38666,37940,3
0.0,0.0,0.0,15726,11906,9710,38666,38019,3
0.0,0.0,0.0,15710,11893,9721,38666,37900,3
0.0,0.0,0.0,15726,11881,9710,38544,37860,3
0.0,0.0,0.0,15710,11881,9710,38666,37940,3
0.0,0.0,0.0,15726,11855,9710,38666,37781,3
0.0,0.0,0.0,15726,11830,9721,38625,37900,3
0.0,0.0,0.0,15741,11766,9755,38585,37781,3
0.0,0.0,0.0,15726,11766,9710,38544,37781,3
0.0,0.0,0.0,15726,11766,9688,38422,37701,3
0.0,0.0,0.0,15741,11754,9666,38503,37622,3
0.0,0.0,0.0,15710,11779,9643,38341,37701,3
0.0,0.0,0.0,15710,11754,9643,38341,37622,3
0.0,0.0,0.0,15678,11754,9654,38341,37701,3
0.0,0.0,0.0,15726,11754,9643,38341,37701,3
0.0,0.0,0.0,15710,11754,9632,38260,37543,3
0.0,0.0,0.0,15710,11741,9621,38301,37701,3
0.0,0.0,0.0,15647,11754,9621,38341,37426,3
0.0,0.0,0.0,15710,11766,9643,38301,37426,3
0.0,0.0,0.0,15710,11817,9666,38220,37426,3
0.0,0.0,0.0,15710,11957,9632,38341,37426,3
0.0,0.0,0.0,15710,11906,9621,38180,37465,3
0.0,0.0,0.0,15678,11804,9599,38180,37426,3
0.0,0.0,0.0,15678,11653,9599,38341,37543,3
0.0,0.0,0.0,15710,11615,9621,38382,37543,3
0.0,0.0,0.0,15663,11578,9632,38503,37583,3
0.0,0.0,0.0,15663,11528,9710,38585,37741,3
0.0,0.0,0.0,15647,11490,9744,38422,37820,3
0.0,0.0,0.0,15663,11478,9800,38382,37741,3
0.0,0.0,0.0,15600,11503,9845,38382,37622,3
0.0,0.0,0.0,15647,11503,9890,38220,37583,3
0.0,0.0,0.0,15615,11528,9890,38260,37543,3
0.0,0.0,0.0,15584,11515,9890,38220,37583,3
0.0,0.0,0.0,15584,11553,9901,38180,37583,3
0.0,0.0,0.0,15537,11553,9935,38180,37543,3
0.0,0.0,0.0,15584,11553,9935,38220,37386,3
0.0,0.0,0.0,15553,11553,9935,38140,37543,3
0.0,0.0,0.0,15521,11553,9935,38140,37504,3
0.0,0.0,0.0,15521,11490,9935,38180,37465,3
0.0,0.0,0.0,15568,11503,9958,38180,37465,3
0.0,0.0,0.0,15506,11478,9980,38180,37543,3
0.0,0.0,0.0,15506,11453,9969,38180,37504,3
0.0,0.0,0.0,15490,11440,9980,38180,37426,3
0.0,0.0,0.0,15490,11416,10003,38341,37426,3
0.0,0.0,0.0,15553,11403,10049,38585,37426,3
0.0,0.0,0.0,15615,11354,10094,38995,37741,3
0.0,0.0,0.0,15647,11329,10117,39036,38019,3
0.0,0.0,0.0,15647,11329,10117,39036,37980,3
0.0,0.0,0.0,15615,11317,10163,38912,38059,3
0.0,0.0,0.0,15584,11329,10163,38789,38019,3
0.0,0.0,0.0,15553,11317,10163,38912,37940,3
0.0,0.0,0.0,15521,11304,10163,38748,37860,3
0.0,0.0,0.0,15553,11317,10163,38830,37860,3
0.0,0.0,0.0,15490,11304,10163,38789,37781,3
0.0,0.0,0.0,15490,11329,10163,38789,37781,3
0.0,0.0,0.0,15428,11317,10140,38707,37701,3
0.0,0.0,0.0,15459,11329,10140,38707,37662,3
0.0,0.0,0.0,15412,11317,10129,38585,37662,3
0.0,0.0,0.0,15397,11329,10117,38503,37662,3
0.0,0.0,0.0,15397,11304,10094,38503,37543,3
0.0,0.0,0.0,15397,11304,10117,38503,37465,3
0.0,0.0,0.0,15397,11317,10117,38341,37504,3
0.0,0.0,0.0,15366,11304,10094,38422,37465,3
0.0,0.0,0.0,15335,11317,10117,38382,37269,3
0.0,0.0,0.0,15350,11329,10083,38341,37386,3
0.0,0.0,0.0,15381,11304,10094,38382,37465,3
0.0,0.0,0.0,15366,11341,10083,38301,37465,3
0.0,0.0,0.0,15366,11317,10071,38341,37622,3
0.0,0.0,0.0,15335,11304,10071,38341,37504,3
0.0,0.0,0.0,15335,11329,10071,38260,37583,3
0.0,0.0,0.0,15350,11304,10049,38301,37465,3
0.0,0.0,0.0,15335,11304,10049,38341,37426,3
0.0,0.0,0.0,15335,11329,10026,38301,37465,3
0.0,0.0,0.0,15350,11304,10003,38341,37426,3
0.0,0.0,0.0,15335,11317,10026,38260,37386,3
0.0,0.0,0.0,15366,11304,10026,38220,37386,3
0.0,0.0,0.0,15397,11304,10026,38301,37386,3
0.0,0.0,0.0,15397,11329,10026,38260,37308,3
0.0,0.0,0.0,15381,11341,10003,38180,37386,3
0.0,0.0,0.0,15397,11317,9980,38019,37308,3
0.0,0.0,0.0,15381,11329,9969,38100,37465,3
0.0,0.0,0.0,15366,11329,9946,38180,37308,3
0.0,0.0,0.0,15381,11354,9935,38100,37386,3
0.0,0.0,0.0,15335,11354,9912,38100,37308,3
0.0,0.0,0.0,15397,11329,9912,38140,37465,3
0.0,0.0,0.0,15397,11354,9912,38059,37386,3
0.0,0.0,0.0,15366,11354,9901,38019,37465,3
0.0,0.0,0.0,15335,11317,9901,38019,37465,3
0.0,0.0,0.0,15412,11317,9901,38019,37583,3
0.0,0.0,0.0,15397,11354,9901,38019,37543,3
0.0,0.0,0.0,15381,11317,9890,38100,37308,3
0.0,0.0,0.0,15366,11329,9901,38019,37386,3
0.0,0.0,0.0,15366,11317,9890,38059,37386,3
0.0,0.0,0.0,15397,11304,9867,38019,37386,3
0.0,0.0,0.0,15366,11329,9867,38019,37386,3
0.0,0.0,0.0,15350,11304,9867,38059,37230,3
0.0,0.0,0.0,15397,11341,9867,37940,37308,3
0.0,0.0,0.0,15397,11304,9845,37980,37308,3
0.0,0.0,0.0,15397,11329,9867,38059,37269,3
0.0,0.0,0.0,15366,11354,9856,37980,37386,3
0.0,0.0,0.0,15366,11329,9845,37900,37308,3
0.0,0.0,0.0,15335,11354,9845,38019,37269,3
0.0,0.0,0.0,15335,11354,9845,37940,37347,3
0.0,0.0,0.0,15366,11341,9845,37900,37386,3
0.0,0.0,0.0,15366,11354,9845,37900,37386,3
0.0,0.0,0.0,15350,11354,9845,37860,37347,3
0.0,0.0,0.0,15366,11354,9833,37860,37308,3
0.0,0.0,0.0,15350,11354,9811,37940,37230,3
0.0,0.0,0.0,15335,11354,9811,37820,37347,3
0.0,0.0,0.0,15350,11354,9788,37980,37230,3
0.0,0.0,0.0,15335,11366,9800,37900,37230,3
0.0,0.0,0.0,15366,11354,9766,37860,37269,3
0.0,0.0,0.0,15335,11354,9766,37940,37308,3
0.0,0.0,0.0,15350,11366,9755,37900,37152,3
0.0,0.0,0.0,15335,11354,9755,37860,37230,3
0.0,0.0,0.0,15350,11366,9755,37900,37152,3
0.0,0.0,0.0,15335,11366,9755,38059,37269,3
0.0,0.0,0.0,15350,11379,9721,37940,37230,3
0.0,0.0,0.0,15335,11379,9710,37940,37308,3
0.0,0.0,0.0,15288,11379,9710,37860,37230,3
0.0,0.0,0.0,15335,11379,9688,37820,37230,3
0.0,0.0,0.0,15350,11366,9677,37860,37152,3
0.0,0.0,0.0,15335,11403,9666,37820,37269,3
0.0,0.0,0.0,15366,11379,9688,37820,37230,3
0.0,0.0,0.0,15288,11366,9677,37781,37114,3
0.0,0.0,0.0,15304,11379,9688,37741,37075,3
0.0,0.0,0.0,15335,11366,9666,37741,37152,3
0.0,0.0,0.0,15335,11403,9677,37701,37075,3
0.0,0.0,0.0,15350,11379,9688,37622,37075,3
0.0,0.0,0.0,15335,11379,9666,37701,37075,3
0.0,0.0,0.0,15319,11403,9666,37701,37075,3
0.0,0.0,0.0,15335,11379,9688,37701,36998,3
0.0,0.0,0.0,15335,11403,9666,37701,37152,3
0.0,0.0,0.0,15335,11379,9666,37662,36998,3
0.0,0.0,0.0,15335,11379,9666,37701,36959,3
0.0,0.0,0.0,15335,11403,9666,37701,36998,3
0.0,0.0,0.0,15335,11379,9666,37701,36920,3
0.0,0.0,0.0,15288,11391,9666,37622,36998,3
0.0,0.0,0.0,15304,11366,9666,37622,36959,3
0.0,0.0,0.0,15335,11391,9666,37504,37075,3
0.0,0.0,0.0,15288,11366,9632,37543,36920,3
0.0,0.0,0.0,15288,11366,9632,37504,36959,3
0.0,0.0,0.0,15273,11403,9643,37583,36920,3
0.0,0.0,0.0,15288,11366,9643,37543,36920,3
0.0,0.0,0.0,15288,11366,9632,37465,36843,3
0.0,0.0,0.0,15288,11366,9621,37465,36920,3
0.0,0.0,0.0,15288,11379,9643,37465,36920,3
0.0,0.0,0.0,15288,11366,9632,37465,36959,3
0.0,0.0,0.0,15304,11366,9632,37465,36920,3
0.0,0.0,0.0,15288,11379,9621,37386,36920,3
0.0,0.0,0.0,15335,11403,9632,37426,36843,3
0.0,0.0,0.0,15412,11403,9632,37465,36843,3
0.0,0.0,0.0,15459,11403,9632,37230,36843,3
0.0,0.0,0.0,15428,11379,9643,37114,36805,3
0.0,0.0,0.0,15397,11403,9643,37075,36767,3
0.0,0.0,0.0,15397,11440,9621,36998,36728,3
0.0,0.0,0.0,15412,11403,9632,36920,36728,3
0.0,0.0,0.0,15412,11440,9632,36998,36652,3
0.0,0.0,0.0,15459,11453,9666,36959,36690,3
0.0,0.0,0.0,15412,11478,9666,36959,36576,3
0.0,0.0,0.0,15412,11503,9677,36920,36690,3
0.0,0.0,0.0,15350,11528,9710,36959,36576,3
0.0,0.0,0.0,15273,11553,9755,36998,36652,3
0.0,0.0,0.0,15165,11590,9800,36920,36386,3
0.0,0.0,0.0,15135,11565,9800,36767,36462,3
0.0,0.0,0.0,15104,11565,9800,36767,36462,3
0.0,0.0,0.0,15058,11603,9901,36920,36424,3
0.0,0.0,0.0,14876,11665,10071,37114,36424,3
0.0,0.0,0.0,14786,11779,10186,37426,36728,3
0.0,0.0,0.0,14741,11868,10255,37781,36882,3
0.0,0.0,0.0,14607,11983,10301,37543,36767,3
0.0,0.0,0.0,14488,12372,10464,37230,36690,3
0.0,0.0,0.0,14429,12583,10653,37114,36576,3
0.0,0.0,0.0,14458,12690,10724,37152,36538,3
0.0,0.0,0.0,14458,12770,10748,37114,36576,3
0.0,0.0,0.0,14444,12810,10771,37114,36499,3
0.0,0.0,0.0,14473,12878,10771,37152,36499,3
0.0,0.0,0.0,14414,12864,10783,37075,36499,3
0.0,0.0,0.0,14429,12770,10771,36998,36462,3
0.0,0.0,0.0,14429,12690,10748,36998,36462,3
0.0,0.0,0.0,14488,12583,10676,36998,36462,3
0.0,0.0,0.0,14607,12490,10653,37075,36462,3
0.0,0.0,0.0,14488,12504,10688,36767,36576,3
0.0,0.0,0.0,14444,12517,10724,36424,36310,3
0.0,0.0,0.0,14562,12477,10688,36310,36235,3
0.0,0.0,0.0,14741,12438,10700,36348,36235,3
0.0,0.0,0.0,14786,12438,10676,36310,36160,3
0.0,0.0,0.0,14801,12372,10676,36235,36197,3
0.0,0.0,0.0,14861,12398,10641,36310,36122,3
0.0,0.0,0.0,14997,12346,10641,36310,36160,3
0.0,0.0,0.0,15013,12346,10629,36160,36047,3
0.0,0.0,0.0,15058,12320,10629,36010,36160,3
0.0,0.0,0.0,15013,12346,10605,36010,36160,3
0.0,0.0,0.0,14982,12372,10629,36160,35972,3
0.0,0.0,0.0,14967,12385,10629,36010,36010,3
0.0,0.0,0.0,14952,12398,10629,35898,36047,3
0.0,0.0,0.0,14922,12385,10641,35861,35898,3
0.0,0.0,0.0,14952,12385,10629,35935,35935,3
0.0,0.0,0.0,14967,12372,10605,36010,36010,3
0.0,0.0,0.0,14967,12346,10605,36010,35935,3
0.0,0.0,0.0,14967,12320,10629,36010,35787,3
0.0,0.0,0.0,14967,12280,10605,35898,35935,3
0.0,0.0,0.0,14922,12267,10582,35972,35935,3
0.0,0.0,0.0,14922,12293,10605,35861,35898,3
0.0,0.0,0.0,14922,12280,10594,35935,35898,3
0.0,0.0,0.0,14907,12293,10582,35787,35935,3
0.0,0.0,0.0,14907,12280,10582,35787,35861,3
0.0,0.0,0.0,14907,12293,10582,35898,35749,3
0.0,0.0,0.0,14907,12320,10582,35861,35787,3
0.0,0.0,0.0,14876,12280,10582,35861,35712,3
0.0,0.0,0.0,14891,12320,10582,35787,35787,3
0.0,0.0,0.0,14907,12280,10582,35861,35861,3
0.0,0.0,0.0,14876,12280,10594,35861,35787,3
0.0,0.0,0.0,14907,12320,10594,35861,35898,3
0.0,0.0,0.0,14891,12306,10582,35787,35861,3
0.0,0.0,0.0,14861,12320,10582,35749,35861,3
0.0,0.0,0.0,14876,12346,10535,35787,35824,3
0.0,0.0,0.0,14876,12346,10582,35861,35861,3
0.0,0.0,0.0,14876,12320,10582,35749,35824,3
0.0,0.0,0.0,14846,12333,10582,35712,35861,3
0.0,0.0,0.0,14907,12346,10582,35749,35861,3
0.0,0.0,0.0,14876,12346,10582,35749,35712,3
0.0,0.0,0.0,14876,12346,10605,35749,35712,3
0.0,0.0,0.0,14846,12372,10594,35787,35787,3
0.0,0.0,0.0,14801,12346,10582,35749,35787,3
0.0,0.0,0.0,14846,12359,10582,35787,35787,3
0.0,0.0,0.0,14816,12346,10582,35749,35787,3
0.0,0.0,0.0,14846,12320,10582,35712,35861,3
0.0,0.0,0.0,14801,12320,10546,35712,35749,3
0.0,0.0,0.0,14831,12320,10582,35639,35712,3
0.0,0.0,0.0,14816,12320,10605,35639,35824,3
0.0,0.0,0.0,14846,12346,10582,35565,35787,3
0.0,0.0,0.0,14846,12346,10594,35639,35749,3
0.0,0.0,0.0,14846,12320,10582,35565,35787,3
0.0,0.0,0.0,14846,12346,10582,35639,35749,3
0.0,0.0,0.0,14861,12346,10582,35676,35639,3
0.0,0.0,0.0,14861,12346,10582,35565,35749,3
0.0,0.0,0.0,14846,12346,10582,35565,35787,3
0.0,0.0,0.0,14846,12346,10582,35565,35712,3
0.0,0.0,0.0,14846,12320,10582,35492,35712,3
0.0,0.0,0.0,14801,12346,10582,35565,35676,3
0.0,0.0,0.0,14846,12346,10582,35565,35712,3
0.0,0.0,0.0,14846,12346,10582,35528,35639,3
0.0,0.0,0.0,14846,12346,10582,35528,35639,3
0.0,0.0,0.0,14831,12346,10582,35492,35712,3
0.0,0.0,0.0,14801,12346,10546,35492,35639,3
0.0,0.0,0.0,14846,12346,10582,35565,35712,3
0.0,0.0,0.0,14801,12346,10582,35565,35639,3
0.0,0.0,0.0,14846,12372,10582,35455,35602,3
0.0,0.0,0.0,14876,12320,10582,35565,35639,3
0.0,0.0,0.0,14861,12346,10582,35565,35639,3
0.0,0.0,0.0,14876,12320,10582,35565,35676,3
0.0,0.0,0.0,14876,12346,10582,35639,35712,3
0.0,0.0,0.0,14876,12320,10582,35492,35712,3
0.0,0.0,0.0,14907,12320,10594,35455,35676,3
0.0,0.0,0.0,14907,12346,10582,35492,35565,3
0.0,0.0,0.0,14907,12346,10582,35418,35676,3
0.0,0.0,0.0,14891,12346,10582,35565,35639,3
0.0,0.0,0.0,14876,12346,10546,35492,35639,3
0.0,0.0,0.0,14876,12346,10558,35418,35565,3
0.0,0.0,0.0,14876,12372,10582,35492,35602,3
0.0,0.0,0.0,14876,12346,10582,35492,35712,3
0.0,0.0,0.0,14876,12346,10582,35418,35639,3
0.0,0.0,0.0,14907,12372,10582,35418,35565,3
0.0,0.0,0.0,14861,12372,10582,35418,35565,3
0.0,0.0,0.0,14876,12359,10570,35455,35639,3
0.0,0.0,0.0,14876,12346,10582,35418,35565,3
0.0,0.0,0.0,14876,12346,10582,35418,35602,3
0.0,0.0,0.0,14876,12346,10582,35455,35565,3
0.0,0.0,0.0,14891,12346,10570,35418,35712,3
0.0,0.0,0.0,14876,12346,10582,35418,35602,3
0.0,0.0,0.0,14846,12333,10582,35345,35565,3
0.0,0.0,0.0,14876,12320,10594,35455,35639,3
0.0,0.0,0.0,14861,12346,10582,35382,35712,3
0.0,0.0,0.0,14801,12346,10582,35345,35602,3
0.0,0.0,0.0,14891,12346,10582,35492,35676,3
0.0,0.0,0.0,14861,12333,10582,35418,35565,3
0.0,0.0,0.0,14907,12346,10570,35418,35492,3
0.0,0.0,0.0,14907,12346,10594,35455,35602,3
0.0,0.0,0.0,14876,12333,10570,35455,35565,3
0.0,0.0,0.0,14907,12346,10582,35345,35528,3
0.0,0.0,0.0,14891,12346,10582,35418,35602,3
0.0,0.0,0.0,14891,12320,10582,35418,35712,3
0.0,0.0,0.0,14907,12320,10558,35418,35639,3
0.0,0.0,0.0,14876,12346,10582,35418,35602,3
0.0,0.0,0.0,14907,12346,10582,35418,35418,3
0.0,0.0,0.0,14922,12346,10594,35418,35639,3
0.0,0.0,0.0,14937,12320,10546,35418,35565,3
0.0,0.0,0.0,14922,12333,10570,35418,35676,3
0.0,0.0,0.0,14937,12333,10582,35418,35565,3
0.0,0.0,0.0,14922,12346,10582,35418,35602,3
0.0,0.0,0.0,14967,12320,10582,35418,35565,3
0.0,0.0,0.0,14937,12333,10558,35418,35602,3
0.0,0.0,0.0,14967,12372,10582,35418,35565,3
0.0,0.0,0.0,14937,12424,10546,35492,35565,3
0.0,0.0,0.0,14937,12477,10582,35455,35528,3
0.0,0.0,0.0,14937,12504,10582,35418,35455,3
0.0,0.0,0.0,14907,12530,10570,35492,35492,3
0.0,0.0,0.0,14937,12556,10546,35528,35492,3
0.0,0.0,0.0,14922,12583,10558,35382,35492,3
0.0,0.0,0.0,14907,12596,10546,35382,35492,3
0.0,0.0,0.0,14907,12556,10546,35418,35455,3
0.0,0.0,0.0,14907,12556,10546,35565,35418,3
0.0,0.0,0.0,14907,12543,10570,35418,35309,3
0.0,0.0,0.0,14876,12543,10546,35382,35345,3
0.0,0.0,0.0,14816,12490,10582,35309,35565,3
0.0,0.0,0.0,14666,12372,10535,35418,35418,3
0.0,0.0,0.0,14488,12372,10535,35492,35565,3
0.0,0.0,0.0,14385,12346,10546,35455,35455,3
0.0,0.0,0.0,14385,12359,10546,35418,35565,3
0.0,0.0,0.0,14370,12372,10546,35382,35528,3
0.0,0.0,0.0,14429,12372,10546,35382,35455,3
0.0,0.0,0.0,14429,12372,10546,35272,35455,3
0.0,0.0,0.0,14429,12372,10535,35236,35418,3
0.0,0.0,0.0,14458,12372,10535,35272,35418,3
0.0,0.0,0.0,14444,12346,10546,35236,35418,3
0.0,0.0,0.0,14458,12346,10523,35199,35382,3
0.0,0.0,0.0,14429,12346,10535,35163,35455,3
0.0,0.0,0.0,14399,12293,10535,35163,35565,3
0.0,0.0,0.0,14282,12163,10511,35382,35749,3
0.0,0.0,0.0,14079,12009,10488,35345,35528,3
0.0,0.0,0.0,13849,11957,10488,35091,35455,3
0.0,0.0,0.0,13707,11906,10464,34982,35272,3
0.0,0.0,0.0,13594,11855,10441,34839,35272,3
0.0,0.0,0.0,13496,11855,10441,34767,35055,3
0.0,0.0,0.0,13454,11855,10441,34696,35127,3
0.0,0.0,0.0,13343,11804,10429,34553,35127,3
0.0,0.0,0.0,13205,11703,10394,34341,35018,3
0.0,0.0,0.0,13177,11615,10406,34200,34910,3
0.0,0.0,0.0,13081,11528,10348,34095,34982,3
0.0,0.0,0.0,13068,11528,10348,33991,34910,3
0.0,0.0,0.0,12972,11578,10359,34026,34874,3
0.0,0.0,0.0,13040,11578,10371,34095,34839,3
0.0,0.0,0.0,13136,11553,10371,34341,35163,3
0.0,0.0,0.0,13260,11528,10371,34731,35418,3
0.0,0.0,0.0,13580,11503,10394,34839,36085,3
0.0,0.0,0.0,13707,11428,10441,34982,36462,3
0.0,0.0,0.0,13707,11329,10464,36122,36882,3
0.0,0.0,0.0,13693,11268,10464,37152,37152,3
0.0,0.0,0.0,13594,11255,10441,37543,37269,3
0.0,0.0,0.0,13496,11255,10429,37583,37230,3
0.0,0.0,0.0,13343,11255,10418,36998,36805,3
0.0,0.0,0.0,13177,11255,10406,36462,36499,3
0.0,0.0,0.0,13122,11206,10371,35935,36160,3
0.0,0.0,0.0,13013,11206,10313,35492,36010,3
0.0,0.0,0.0,12891,11219,10278,35127,36047,3
0.0,0.0,0.0,12999,11231,10267,35309,36235,3
0.0,0.0,0.0,13343,11231,10301,36047,36652,3
0.0,0.0,0.0,13650,11231,10325,37036,37386,3
0.0,0.0,0.0,13849,11219,10348,37583,37426,3
0.0,0.0,0.0,13863,11280,10371,37622,36959,3
0.0,0.0,0.0,13821,11379,10325,37543,36538,3
0.0,0.0,0.0,13821,11453,10290,37465,36424,3
0.0,0.0,0.0,13792,11428,10278,37308,36310,3
0.0,0.0,0.0,13792,11391,10267,37230,36235,3
0.0,0.0,0.0,13792,11304,10255,37230,36160,3
0.0,0.0,0.0,13764,11255,10267,37622,36197,3
0.0,0.0,0.0,13749,11157,10267,37622,36386,3
0.0,0.0,0.0,13764,11133,10255,37701,36235,3
0.0,0.0,0.0,13735,11109,10255,37622,36160,3
0.0,0.0,0.0,13721,11109,10221,37622,36085,3
0.0,0.0,0.0,13735,11109,10244,37583,36085,3
0.0,0.0,0.0,13679,11109,10232,37426,36197,3
0.0,0.0,0.0,13679,11084,10209,37308,36160,3
0.0,0.0,0.0,13707,11072,10232,37308,36085,3
0.0,0.0,0.0,13679,11084,10221,37230,36160,3
0.0,0.0,0.0,13622,11072,10232,37191,36010,3
0.0,0.0,0.0,13679,11084,10209,37114,36010,3
0.0,0.0,0.0,13622,11060,10174,37191,35898,3
0.0,0.0,0.0,13636,11084,10174,37075,35935,3
0.0,0.0,0.0,13622,11084,10140,37075,36010,3
0.0,0.0,0.0,13622,11084,10117,37036,36010,3
0.0,0.0,0.0,13622,11109,10117,36998,35935,3
0.0,0.0,0.0,13636,11096,10083,36843,36010,3
0.0,0.0,0.0,13622,11109,10071,36882,35861,3
0.0,0.0,0.0,13594,11084,10071,36920,35972,3
0.0,0.0,0.0,13622,11109,10071,36843,36010,3
0.0,0.0,0.0,13636,11109,10071,36843,35935,3
0.0,0.0,0.0,13608,11109,10049,36843,36010,3
0.0,0.0,0.0,13622,11109,10026,36805,35935,3
0.0,0.0,0.0,13594,11109,10026,36843,35861,3
0.0,0.0,0.0,13608,11109,10026,36805,35824,3
0.0,0.0,0.0,13622,11109,10049,36767,35787,3
0.0,0.0,0.0,13580,11096,10026,36728,35787,3
0.0,0.0,0.0,13580,11109,10026,36652,35676,3
0.0,0.0,0.0,13594,11109,10026,36690,35712,3
0.0,0.0,0.0,13580,11109,10014,36690,35787,3
0.0,0.0,0.0,13622,11109,10003,36690,35712,3
0.0,0.0,0.0,13580,11109,10014,36614,35712,3
0.0,0.0,0.0,13622,11109,10026,36614,35676,3
0.0,0.0,0.0,13622,11109,9980,36614,35639,3
0.0,0.0,0.0,13622,11109,10003,36690,35712,3
0.0,0.0,0.0,13580,11109,10003,36690,35676,3
0.0,0.0,0.0,13594,11109,10003,36690,35712,3
0.0,0.0,0.0,13622,11133,10003,36690,35787,3
0.0,0.0,0.0,13594,11109,9980,36690,35749,3
0.0,0.0,0.0,13608,11133,9969,36690,35712,3
0.0,0.0,0.0,13622,11109,10003,36690,35712,3
0.0,0.0,0.0,13622,11121,9980,36690,35676,3
0.0,0.0,0.0,13665,11133,9958,36538,35676,3
0.0,0.0,0.0,13622,11109,9969,36652,35565,3
0.0,0.0,0.0,13622,11145,9946,36538,35565,3
0.0,0.0,0.0,13622,11121,9935,36538,35602,3
0.0,0.0,0.0,13622,11133,9980,36614,35492,3
0.0,0.0,0.0,13650,11133,9958,36538,35492,3
0.0,0.0,0.0,13622,11133,9935,36538,35602,3
0.0,0.0,0.0,13650,11133,9935,36614,35528,3
0.0,0.0,0.0,13622,11109,9935,36576,35565,3
0.0,0.0,0.0,13622,11133,9935,36538,35565,3
0.0,0.0,0.0,13636,11121,9935,36576,35565,3
0.0,0.0,0.0,13650,11133,9935,36538,35492,3
0.0,0.0,0.0,13622,11133,9935,36576,35455,3
0.0,0.0,0.0,13636,11109,9935,36499,35528,3
0.0,0.0,0.0,13679,11133,9935,36538,35492,3
0.0,0.0,0.0,13622,11121,9901,36538,35418,3
0.0,0.0,0.0,13650,11133,9901,36462,35492,3
0.0,0.0,0.0,13650,11109,9935,36462,35565,3
0.0,0.0,0.0,13650,11145,9924,36462,35565,3
0.0,0.0,0.0,13679,11121,9901,36538,35492,3
0.0,0.0,0.0,13679,11133,9901,36424,35492,3
0.0,0.0,0.0,13679,11157,9901,36462,35492,3
0.0,0.0,0.0,13679,11157,9901,36310,35455,3
0.0,0.0,0.0,13679,11157,9901,36386,35565,3
0.0,0.0,0.0,13679,11121,9935,36348,35565,3
0.0,0.0,0.0,13693,11121,9890,36348,35418,3
0.0,0.0,0.0,13693,11133,9901,36348,35455,3
0.0,0.0,0.0,13693,11133,9890,36462,35418,3
0.0,0.0,0.0,13735,11157,9890,36386,35455,3
0.0,0.0,0.0,13749,11157,9867,36462,35565,3
0.0,0.0,0.0,13735,11133,9878,36462,35418,3
0.0,0.0,0.0,13749,11157,9867,36348,35418,3
0.0,0.0,0.0,13821,11157,9890,36462,35418,3
0.0,0.0,0.0,13849,11157,9890,36499,35455,3
0.0,0.0,0.0,13935,11157,9890,36235,35418,3
0.0,0.0,0.0,14050,11157,9890,36386,35492,3
0.0,0.0,0.0,14079,11170,9890,36462,35565,3
0.0,0.0,0.0,14151,11170,9890,36386,35565,3
0.0,0.0,0.0,14195,11182,9867,36462,35565,3
0.0,0.0,0.0,14209,11206,9867,36424,35565,3
0.0,0.0,0.0,14195,11206,9856,36348,35492,3
0.0,0.0,0.0,14209,11206,9856,36386,35492,3
0.0,0.0,0.0,14195,11206,9867,36386,35565,3
0.0,0.0,0.0,14224,11182,9845,36386,35565,3
0.0,0.0,0.0,14209,11182,9856,36386,35492,3
0.0,0.0,0.0,14224,11182,9856,36348,35565,3
0.0,0.0,0.0,14224,11170,9845,36310,35602,3
0.0,0.0,0.0,14224,11206,9845,36310,35492,3
0.0,0.0,0.0,14253,11206,9845,36348,35528,3
0.0,0.0,0.0,14238,11194,9856,36310,35418,3
0.0,0.0,0.0,14253,11219,9867,36310,35418,3
0.0,0.0,0.0,14253,11206,9845,36348,35455,3
0.0,0.0,0.0,14253,11219,9856,36348,35492,3
0.0,0.0,0.0,14253,11219,9845,36348,35418,3
0.0,0.0,0.0,14253,11206,9811,36424,35492,3
0.0,0.0,0.0,14224,11231,9856,36310,35455,3
0.0,0.0,0.0,14253,11231,9800,36348,35492,3
0.0,0.0,0.0,14224,11231,9811,36348,35492,3
0.0,0.0,0.0,14253,11206,9811,36386,35418,3
0.0,0.0,0.0,14209,11231,9800,36386,35455,3
0.0,0.0,0.0,14253,11206,9800,36386,35492,3
0.0,0.0,0.0,14253,11219,9800,36348,35418,3
0.0,0.0,0.0,14224,11219,9766,36348,35418,3
0.0,0.0,0.0,14253,11206,9800,36348,35492,3
0.0,0.0,0.0,14238,11243,9800,36310,35418,3
0.0,0.0,0.0,14224,11231,9845,36310,35492,3
0.0,0.0,0.0,14195,11231,9800,36310,35418,3
0.0,0.0,0.0,14224,11255,9811,36310,35418,3
0.0,0.0,0.0,14253,11231,9800,36310,35492,3
0.0,0.0,0.0,14224,11255,9811,36310,35418,3
0.0,0.0,0.0,14253,11255,9811,36348,35418,3
0.0,0.0,0.0,14253,11231,9811,36348,35418,3
0.0,0.0,0.0,14224,11255,9800,36310,35309,3
0.0,0.0,0.0,14268,11255,9800,36348,35382,3
0.0,0.0,0.0,14253,11255,9800,36348,35382,3
0.0,0.0,0.0,14268,11219,9800,36310,35345,3
0.0,0.0,0.0,14268,11243,9800,36386,35309,3
0.0,0.0,0.0,14253,11231,9800,36310,35382,3
0.0,0.0,0.0,14224,11231,9800,36310,35272,3
0.0,0.0,0.0,14268,11231,9800,36348,35309,3
0.0,0.0,0.0,14297,11255,9800,36348,35309,3
0.0,0.0,0.0,14297,11255,9788,36310,35309,3
0.0,0.0,0.0,14282,11268,9811,36272,35272,3
0.0,0.0,0.0,14282,11255,9811,36160,35272,3
0.0,0.0,0.0,14297,11255,9811,36197,35272,3
0.0,0.0,0.0,14311,11268,9845,36272,35272,3
0.0,0.0,0.0,14311,11255,9822,36310,35199,3
0.0,0.0,0.0,14311,11255,9811,36235,35272,3
0.0,0.0,0.0,14311,11255,9800,36310,35345,3
0.0,0.0,0.0,14326,11255,9811,36235,35272,3
0.0,0.0,0.0,14326,11255,9845,36235,35309,3
0.0,0.0,0.0,14326,11231,9811,36122,35199,3
0.0,0.0,0.0,14311,11219,9845,36160,35309,3
0.0,0.0,0.0,14311,11231,9811,36160,35163,3
0.0,0.0,0.0,14311,11231,9811,36010,35309,3
0.0,0.0,0.0,14311,11255,9800,36160,35163,3
0.0,0.0,0.0,14326,11219,9811,36122,35345,3
0.0,0.0,0.0,14311,11231,9800,36085,35199,3
0.0,0.0,0.0,14311,11231,9800,36085,35199,3
0.0,0.0,0.0,14311,11255,9788,36047,35236,3
0.0,0.0,0.0,14326,11255,9800,36085,35272,3
0.0,0.0,0.0,14326,11243,9811,36085,35272,3
0.0,0.0,0.0,14326,11219,9800,36122,35199,3
0.0,0.0,0.0,14311,11255,9800,36085,35199,3
0.0,0.0,0.0,14326,11255,9800,36197,35163,3
0.0,0.0,0.0,14311,11219,9800,36085,35199,3
0.0,0.0,0.0,14326,11255,9811,36085,35199,3
0.0,0.0,0.0,14326,11255,9800,36160,35163,3
0.0,0.0,0.0,14311,11255,9811,36010,35272,3
0.0,0.0,0.0,14326,11255,9800,36085,35199,3
0.0,0.0,0.0,14282,11255,9811,36085,35163,3
0.0,0.0,0.0,14326,11243,9845,36047,35272,3
0.0,0.0,0.0,14311,11255,9856,36047,35199,3
0.0,0.0,0.0,14326,11243,9845,36122,35272,3
0.0,0.0,0.0,14399,11231,9845,36160,35272,3
0.0,0.0,0.0,14429,11219,9845,36010,35309,3
0.0,0.0,0.0,14429,11255,9845,36085,35272,3
0.0,0.0,0.0,14444,11231,9845,36122,35163,3
0.0,0.0,0.0,14429,11255,9811,35935,35272,3
0.0,0.0,0.0,14370,11243,9845,35972,35199,3
0.0,0.0,0.0,14311,11255,9811,36010,35127,3
0.0,0.0,0.0,14238,11243,9800,35935,35127,3
0.0,0.0,0.0,14151,11255,9800,35935,35127,3
0.0,0.0,0.0,14137,11255,9811,35787,35163,3
0.0,0.0,0.0,14137,11255,9845,36010,35345,3
0.0,0.0,0.0,14209,11255,10049,36010,35639,3
0.0,0.0,0.0,14209,11268,10174,35861,35861,3
0.0,0.0,0.0,14195,11255,10163,35749,35712,3
0.0,0.0,0.0,14079,11255,10140,35565,35639,3
0.0,0.0,0.0,13821,11268,10301,35127,35492,3
0.0,0.0,0.0,13510,11231,10418,34731,35127,3
0.0,0.0,0.0,13454,11255,10394,34553,35163,3
0.0,0.0,0.0,13398,11219,10348,34589,35127,3
0.0,0.0,0.0,13357,11206,10336,34731,35127,3
0.0,0.0,0.0,13357,11231,10301,34874,34982,3
0.0,0.0,0.0,13398,11231,10313,34874,35018,3
0.0,0.0,0.0,13398,11255,10301,34910,35018,3
0.0,0.0,0.0,13426,11231,10301,34982,34946,3
0.0,0.0,0.0,13468,11255,10301,34982,34910,3
0.0,0.0,0.0,13482,11219,10301,35127,34910,3
0.0,0.0,0.0,13566,11231,10267,35236,34946,3
0.0,0.0,0.0,13538,11206,10255,35309,34982,3
0.0,0.0,0.0,13552,11206,10209,35309,34910,3
0.0,0.0,0.0,13594,11206,10186,35272,35055,3
0.0,0.0,0.0,13566,11206,10186,35272,34839,3
0.0,0.0,0.0,13580,11206,10174,35345,34982,3
0.0,0.0,0.0,13566,11206,10174,35163,34910,3
0.0,0.0,0.0,13622,11206,10174,35272,34839,3
0.0,0.0,0.0,13608,11206,10163,35272,34946,3
0.0,0.0,0.0,13594,11206,10129,35199,34910,3
0.0,0.0,0.0,13622,11206,10117,35272,34982,3
0.0,0.0,0.0,13622,11194,10117,35272,34910,3
0.0,0.0,0.0,13594,11206,10117,35199,34982,3
0.0,0.0,0.0,13580,11206,10117,35163,34874,3
0.0,0.0,0.0,13566,11206,10094,35163,34839,3
0.0,0.0,0.0,13580,11206,10094,35163,34803,3
0.0,0.0,0.0,13594,11206,10083,35199,34910,3
0.0,0.0,0.0,13580,11206,10094,35127,34910,3
0.0,0.0,0.0,13608,11219,10094,35127,34839,3
0.0,0.0,0.0,13594,11206,10094,35127,34982,3
0.0,0.0,0.0,13622,11206,10117,35163,34910,3
0.0,0.0,0.0,13594,11206,10083,35199,34874,3
0.0,0.0,0.0,13622,11206,10083,35127,34839,3
0.0,0.0,0.0,13622,11206,10094,35163,34839,3
0.0,0.0,0.0,13594,11206,10083,35127,34982,3
0.0,0.0,0.0,13594,11206,10071,34982,34839,3
0.0,0.0,0.0,13679,11219,10071,35127,35127,3
0.0,0.0,0.0,13735,11231,10163,34910,35127,3
0.0,0.0,0.0,13764,11219,10140,34910,35018,3
0.0,0.0,0.0,13792,11219,10117,34910,34982,3
0.0,0.0,0.0,13778,11219,10117,35091,34982,3
0.0,0.0,0.0,13821,11219,10106,34982,34982,3
0.0,0.0,0.0,13863,11231,10094,34982,34910,3
0.0,0.0,0.0,13964,11231,10117,34982,35055,3
0.0,0.0,0.0,14007,11219,10163,34910,35236,3
0.0,0.0,0.0,14036,11231,10209,34803,35127,3
0.0,0.0,0.0,13992,11255,10221,34696,35199,3
0.0,0.0,0.0,13978,11268,10232,34624,35163,3
0.0,0.0,0.0,13978,11292,10232,34553,35127,3
0.0,0.0,0.0,14050,11366,10221,34839,34982,3
0.0,0.0,0.0,14050,11453,10197,34874,34982,3
0.0,0.0,0.0,14079,11503,10140,34946,34982,3
0.0,0.0,0.0,14050,11553,10163,34946,34839,3
0.0,0.0,0.0,14079,11528,10117,34874,34874,3
0.0,0.0,0.0,14079,11490,10163,34839,34910,3
0.0,0.0,0.0,14137,11515,10140,34946,34982,3
0.0,0.0,0.0,14151,11578,10117,34982,34946,3
0.0,0.0,0.0,14429,11678,10117,34982,34982,3
0.0,0.0,0.0,14967,11779,10117,35127,35018,3
0.0,0.0,0.0,15043,11792,10152,35018,34910,3
0.0,0.0,0.0,15104,11779,10163,34982,34910,3
0.0,0.0,0.0,15211,11754,10163,34982,34946,3
0.0,0.0,0.0,15335,11766,10140,35018,34982,3
0.0,0.0,0.0,15288,11779,10140,34982,34874,3
0.0,0.0,0.0,15288,11766,10140,34982,34874,3
0.0,0.0,0.0,15288,11957,10140,35091,34910,3
0.0,0.0,0.0,15304,12228,10140,34982,34839,3
0.0,0.0,0.0,15288,12215,10117,35055,34767,3
0.0,0.0,0.0,15335,12215,10140,34874,34874,3
0.0,0.0,0.0,15288,12241,10140,35018,34839,3
0.0,0.0,0.0,15335,12228,10197,35055,34839,3
0.0,0.0,0.0,15288,12320,10267,35127,34910,3
0.0,0.0,0.0,15319,12398,10313,35055,34946,3
0.0,0.0,0.0,15335,12346,10348,35018,34839,3
0.0,0.0,0.0,15335,12346,10348,35055,34839,3
0.0,0.0,0.0,15335,12346,10348,34982,34839,3
0.0,0.0,0.0,15335,12346,10325,34982,34874,3
0.0,0.0,0.0,15335,12346,10348,35018,34982,3
0.0,0.0,0.0,15273,12320,10348,34910,34839,3
0.0,0.0,0.0,15288,12372,10359,34982,34839,3
0.0,0.0,0.0,15273,12504,10476,34910,35127,3
0.0,0.0,0.0,15258,12703,10535,34589,35345,3
0.0,0.0,0.0,15165,12797,10629,34271,35565,3
0.0,0.0,0.0,15104,12756,10688,34060,35749,3
0.0,0.0,0.0,15089,12810,10700,33714,36047,3
0.0,0.0,0.0,15043,12797,10688,33508,35787,3
0.0,0.0,0.0,14967,12743,10676,33439,35602,3
0.0,0.0,0.0,14922,12756,10688,33303,35824,3
0.0,0.0,0.0,14891,12810,10688,33303,35898,3
0.0,0.0,0.0,14801,12905,10688,33236,36010,3
0.0,0.0,0.0,14756,12918,10688,33236,35935,3
0.0,0.0,0.0,14681,12932,10700,33439,36085,3
0.0,0.0,0.0,14666,12905,10676,33439,35972,3
0.0,0.0,0.0,14666,12797,10676,33611,35861,3
0.0,0.0,0.0,14666,12770,10641,33817,35712,3
0.0,0.0,0.0,14666,12743,10641,33887,35602,3
0.0,0.0,0.0,14681,12797,10629,33852,35639,3
0.0,0.0,0.0,14726,12864,10629,33852,35565,3
0.0,0.0,0.0,14726,12905,10629,33921,35492,3
0.0,0.0,0.0,14756,12878,10641,33852,35565,3
0.0,0.0,0.0,14741,12864,10641,33921,35418,3
0.0,0.0,0.0,14786,12851,10629,34026,35418,3
0.0,0.0,0.0,14786,12810,10605,34306,35492,3
0.0,0.0,0.0,14771,12743,10629,34341,35602,3
0.0,0.0,0.0,14726,12743,10605,34412,35749,3
0.0,0.0,0.0,14726,12716,10605,34341,35861,3
0.0,0.0,0.0,14741,12743,10617,34271,35639,3
0.0,0.0,0.0,14696,12743,10605,34271,35492,3
0.0,0.0,0.0,14756,12703,10605,34200,35565,3
0.0,0.0,0.0,14756,12690,10617,34271,35382,3
0.0,0.0,0.0,14741,12716,10605,34200,35418,3
0.0,0.0,0.0,14741,12690,10605,34341,35382,3
0.0,0.0,0.0,14741,12703,10605,34271,35345,3
0.0,0.0,0.0,14771,12716,10605,34271,35309,3
0.0,0.0,0.0,14786,12690,10582,34200,35309,3
0.0,0.0,0.0,14801,12690,10594,34271,35236,3
0.0,0.0,0.0,14786,12676,10582,34235,35163,3
0.0,0.0,0.0,14786,12690,10594,34271,35272,3
0.0,0.0,0.0,14801,12649,10582,34341,35272,3
0.0,0.0,0.0,14801,12636,10582,34271,35272,3
0.0,0.0,0.0,14846,12649,10582,34271,35236,3
0.0,0.0,0.0,14786,12636,10582,34341,35272,3
0.0,0.0,0.0,14801,12623,10546,34271,35236,3
0.0,0.0,0.0,14801,12596,10582,34341,35163,3
0.0,0.0,0.0,14801,12610,10582,34412,35127,3
0.0,0.0,0.0,14801,12610,10546,34306,35163,3
0.0,0.0,0.0,14801,12596,10570,34341,35055,3
0.0,0.0,0.0,14846,12583,10546,34341,35163,3
0.0,0.0,0.0,14861,12583,10558,34341,35199,3
0.0,0.0,0.0,14846,12583,10546,34376,35163,3
0.0,0.0,0.0,14801,12583,10546,34341,35127,3
0.0,0.0,0.0,14786,12583,10546,34341,35127,3
0.0,0.0,0.0,14801,12583,10546,34341,35127,3
0.0,0.0,0.0,14801,12583,10546,34412,35055,3
0.0,0.0,0.0,14831,12583,10546,34412,35055,3
0.0,0.0,0.0,14801,12543,10558,34412,35018,3
0.0,0.0,0.0,14816,12596,10546,34341,35127,3
0.0,0.0,0.0,14786,12543,10546,34412,35091,3
0.0,0.0,0.0,14846,12583,10546,34341,35127,3
0.0,0.0,0.0,14801,12583,10546,34306,34982,3
0.0,0.0,0.0,14816,12583,10546,34341,35055,3
0.0,0.0,0.0,14801,12556,10546,34376,34982,3
0.0,0.0,0.0,14801,12543,10546,34341,34982,3
0.0,0.0,0.0,14831,12556,10546,34271,34910,3
0.0,0.0,0.0,14846,12556,10546,34341,34910,3
0.0,0.0,0.0,14861,12530,10535,34271,34910,3
0.0,0.0,0.0,14846,12543,10546,34306,34982,3
0.0,0.0,0.0,14861,12543,10546,34341,35055,3
0.0,0.0,0.0,14846,12583,10558,34306,35055,3
0.0,0.0,0.0,14846,12583,10546,34341,35091,3
0.0,0.0,0.0,14846,12556,10546,34341,35055,3
0.0,0.0,0.0,14846,12530,10546,34341,34982,3
0.0,0.0,0.0,14816,12556,10546,34271,34982,3
0.0,0.0,0.0,14846,12543,10546,34271,34982,3
0.0,0.0,0.0,14861,12556,10546,34271,34982,3
0.0,0.0,0.0,14907,12543,10546,34341,34982,3
0.0,0.0,0.0,14907,12570,10546,34341,34910,3
0.0,0.0,0.0,14861,12570,10535,34341,35018,3
0.0,0.0,0.0,14891,12583,10546,34271,34946,3
0.0,0.0,0.0,14907,12556,10546,34341,34946,3
0.0,0.0,0.0,14907,12543,10535,34271,35018,3
0.0,0.0,0.0,14907,12570,10546,34341,34910,3
0.0,0.0,0.0,14907,12570,10546,34341,35018,3
0.0,0.0,0.0,14922,12556,10546,34341,34982,3
0.0,0.0,0.0,14937,12530,10546,34341,35163,3
0.0,0.0,0.0,14937,12556,10535,34306,34982,3
0.0,0.0,0.0,14907,12583,10546,34271,34910,3
0.0,0.0,0.0,14922,12556,10535,34271,34982,3
0.0,0.0,0.0,14967,12543,10546,34271,34982,3
0.0,0.0,0.0,14937,12570,10546,34200,35018,3
0.0,0.0,0.0,14922,12570,10546,34271,34982,3
0.0,0.0,0.0,14967,12543,10546,34271,34982,3
0.0,0.0,0.0,14937,12543,10535,34271,34910,3
0.0,0.0,0.0,14967,12556,10546,34235,34982,3
0.0,0.0,0.0,14967,12556,10546,34271,34910,3
0.0,0.0,0.0,14967,12556,10546,34235,34910,3
0.0,0.0,0.0,14967,12543,10535,34200,34982,3
0.0,0.0,0.0,14952,12530,10535,34306,34839,3
0.0,0.0,0.0,14967,12570,10546,34200,34982,3
0.0,0.0,0.0,14967,12556,10546,34271,34910,3
0.0,0.0,0.0,14967,12530,10535,34271,34874,3
0.0,0.0,0.0,14967,12543,10535,34271,34910,3
0.0,0.0,0.0,14982,12583,10546,34271,34839,3
0.0,0.0,0.0,14997,12543,10511,34271,34874,3
0.0,0.0,0.0,14997,12583,10546,34200,34910,3
0.0,0.0,0.0,14997,12530,10546,34271,34874,3
0.0,0.0,0.0,15013,12556,10535,34060,34946,3
0.0,0.0,0.0,14907,12556,10546,34235,34767,3
0.0,0.0,0.0,14967,12556,10546,34165,34982,3
0.0,0.0,0.0,14967,12543,10546,34200,34803,3
0.0,0.0,0.0,14982,12583,10511,34200,34910,3
0.0,0.0,0.0,14967,12530,10546,34235,34839,3
0.0,0.0,0.0,14982,12556,10535,34200,34839,3
0.0,0.0,0.0,14937,12543,10535,34165,34803,3
0.0,0.0,0.0,14967,12543,10535,34165,34874,3
0.0,0.0,0.0,14967,12530,10546,34200,34839,3
0.0,0.0,0.0,14922,12543,10546,34200,34839,3
0.0,0.0,0.0,14967,12530,10546,34165,34803,3
0.0,0.0,0.0,14907,12530,10546,34200,34767,3
0.0,0.0,0.0,14967,12530,10535,34165,34839,3
0.0,0.0,0.0,14922,12530,10535,34200,34839,3
0.0,0.0,0.0,14937,12556,10535,34165,34839,3
0.0,0.0,0.0,14967,12583,10535,34165,34874,3
0.0,0.0,0.0,14922,12543,10535,34200,34767,3
0.0,0.0,0.0,14967,12556,10558,34130,34839,3
0.0,0.0,0.0,14982,12543,10546,34165,34910,3
0.0,0.0,0.0,14967,12530,10546,34200,34839,3
0.0,0.0,0.0,14967,12543,10546,34165,34874,3
0.0,0.0,0.0,14967,12504,10546,34235,34839,3
0.0,0.0,0.0,14967,12530,10546,34200,34839,3
0.0,0.0,0.0,14952,12556,10546,34165,34767,3
0.0,0.0,0.0,14967,12530,10535,34165,34767,3
0.0,0.0,0.0,14967,12530,10546,34165,34910,3
0.0,0.0,0.0,14982,12530,10535,34235,34910,3
0.0,0.0,0.0,14967,12530,10546,34165,34839,3
0.0,0.0,0.0,14967,12530,10535,34130,34874,3
0.0,0.0,0.0,14982,12530,10546,34130,34910,3
0.0,0.0,0.0,14997,12530,10582,34165,34839,3
0.0,0.0,0.0,14997,12556,10546,34165,34803,3
0.0,0.0,0.0,14967,12504,10535,34095,34696,3
0.0,0.0,0.0,14967,12583,10546,34130,34767,3
0.0,0.0,0.0,14967,12530,10523,34130,34910,3
0.0,0.0,0.0,14967,12543,10535,34095,34839,3
0.0,0.0,0.0,14967,12530,10535,34200,34839,3
0.0,0.0,0.0,14967,12530,10546,34165,34731,3
0.0,0.0,0.0,14982,12543,10535,34165,34839,3
0.0,0.0,0.0,14967,12530,10546,34165,34803,3
0.0,0.0,0.0,14982,12530,10535,34165,34803,3
0.0,0.0,0.0,14967,12530,10535,34095,34839,3
0.0,0.0,0.0,15028,12530,10535,34165,34910,3
0.0,0.0,0.0,14982,12517,10535,34130,34910,3
0.0,0.0,0.0,14967,12530,10535,34165,34839,3
0.0,0.0,0.0,14982,12504,10535,34200,34731,3
0.0,0.0,0.0,15013,12504,10535,34271,34803,3
0.0,0.0,0.0,14982,12477,10511,34341,34731,3
0.0,0.0,0.0,14967,12490,10535,34200,34874,3
0.0,0.0,0.0,15028,12530,10535,34165,34874,3
0.0,0.0,0.0,14982,12477,10511,34271,34803,3
0.0,0.0,0.0,14997,12517,10511,34271,34803,3
0.0,0.0,0.0,14997,12517,10511,34341,34767,3
0.0,0.0,0.0,15028,12530,10535,34235,34874,3
0.0,0.0,0.0,15028,12530,10499,34235,34910,3
0.0,0.0,0.0,15028,12504,10535,34341,34767,3
0.0,0.0,0.0,15058,12504,10499,34271,34982,3
0.0,0.0,0.0,15058,12504,10523,34271,34839,3
0.0,0.0,0.0,15089,12530,10535,34271,34839,3
0.0,0.0,0.0,15089,12530,10535,34235,34982,3
0.0,0.0,0.0,15089,12530,10535,34271,34874,3
0.0,0.0,0.0,15058,12530,10535,34341,34910,3
0.0,0.0,0.0,15089,12530,10535,34341,34874,3
0.0,0.0,0.0,15089,12530,10535,34235,34839,3
0.0,0.0,0.0,15089,12543,10535,34271,34910,3
0.0,0.0,0.0,15089,12530,10535,34165,34839,3
0.0,0.0,0.0,15089,12490,10523,34271,34839,3
0.0,0.0,0.0,15058,12504,10535,34235,34839,3
0.0,0.0,0.0,15089,12477,10535,34271,34767,3
0.0,0.0,0.0,14982,12464,10499,34200,34767,3
0.0,0.0,0.0,14967,12372,10488,34200,34839,3
0.0,0.0,0.0,14982,12346,10488,34306,34731,3
0.0,0.0,0.0,14982,12293,10488,34271,34767,3
0.0,0.0,0.0,14967,12202,10453,34200,34767,3
0.0,0.0,0.0,14922,12124,10441,34200,34767,3
0.0,0.0,0.0,14907,12112,10429,34130,34767,3
0.0,0.0,0.0,14907,12124,10418,34026,34696,3
0.0,0.0,0.0,14907,12124,10441,33991,34696,3
0.0,0.0,0.0,14907,12124,10418,34060,34660,3
0.0,0.0,0.0,14876,12137,10418,33991,34696,3
0.0,0.0,0.0,14876,12124,10406,33991,34624,3
0.0,0.0,0.0,14876,12112,10418,34026,34731,3
0.0,0.0,0.0,14876,12112,10406,33991,34624,3
0.0,0.0,0.0,14907,12060,10406,34026,34660,3
0.0,0.0,0.0,14907,12060,10406,34026,34589,3
0.0,0.0,0.0,14922,12021,10418,33991,34624,3
0.0,0.0,0.0,14907,12009,10406,34026,34767,3
0.0,0.0,0.0,14907,12009,10418,33991,34624,3
0.0,0.0,0.0,14907,12009,10394,34026,34624,3
0.0,0.0,0.0,14907,11970,10418,34060,34696,3
0.0,0.0,0.0,14907,11983,10418,34095,34696,3
0.0,0.0,0.0,14861,11970,10406,34060,34589,3
0.0,0.0,0.0,14907,11970,10406,33991,34624,3
0.0,0.0,0.0,14907,11983,10394,33991,34660,3
0.0,0.0,0.0,14907,11983,10394,34026,34553,3
0.0,0.0,0.0,14907,11970,10406,33991,34589,3
0.0,0.0,0.0,14907,11957,10394,33921,34660,3
0.0,0.0,0.0,14801,11957,10418,34026,34589,3
0.0,0.0,0.0,14786,11932,10394,33991,34553,3
0.0,0.0,0.0,14756,11906,10394,33991,34696,3
0.0,0.0,0.0,14756,11855,10383,33956,34589,3
0.0,0.0,0.0,14756,11830,10371,34026,34553,3
0.0,0.0,0.0,14756,11754,10371,33991,34624,3
0.0,0.0,0.0,14756,11754,10371,33921,34624,3
0.0,0.0,0.0,14786,11703,10348,33956,34696,3
0.0,0.0,0.0,14801,11653,10371,34026,34660,3
0.0,0.0,0.0,14801,11615,10371,33991,34589,3
0.0,0.0,0.0,14786,11615,10348,33956,34553,3
0.0,0.0,0.0,14786,11628,10359,33921,34624,3
0.0,0.0,0.0,14801,11615,10348,33921,34624,3
0.0,0.0,0.0,14771,11603,10371,33921,34553,3
0.0,0.0,0.0,14741,11603,10371,33921,34518,3
0.0,0.0,0.0,14756,11578,10359,33991,34553,3
0.0,0.0,0.0,14756,11553,10348,33991,34553,3
0.0,0.0,0.0,14741,11578,10336,33991,34447,3
0.0,0.0,0.0,14711,11578,10325,33991,34482,3
0.0,0.0,0.0,14726,11553,10348,33991,34482,3
0.0,0.0,0.0,14726,11528,10336,33991,34518,3
0.0,0.0,0.0,14726,11540,10348,33991,34553,3
0.0,0.0,0.0,14726,11528,10325,33921,34553,3
0.0,0.0,0.0,14696,11528,10325,33956,34518,3
0.0,0.0,0.0,14696,11528,10313,33921,34553,3
0.0,0.0,0.0,14681,11528,10325,33852,34553,3
0.0,0.0,0.0,14681,11528,10313,33852,34589,3
0.0,0.0,0.0,14666,11528,10325,33887,34482,3
0.0,0.0,0.0,14681,11515,10313,33852,34482,3
0.0,0.0,0.0,14666,11528,10313,33852,34447,3
0.0,0.0,0.0,14681,11515,10325,33852,34482,3
0.0,0.0,0.0,14681,11503,10301,33887,34412,3
0.0,0.0,0.0,14681,11515,10301,33783,34482,3
0.0,0.0,0.0,14666,11490,10301,33783,34447,3
0.0,0.0,0.0,14666,11490,10301,33714,34447,3
0.0,0.0,0.0,14621,11465,10301,33714,34447,3
0.0,0.0,0.0,14666,11465,10325,33783,34482,3
0.0,0.0,0.0,14607,11478,10313,33714,34412,3
0.0,0.0,0.0,14636,11465,10325,33714,34447,3
0.0,0.0,0.0,14666,11478,10301,33611,34341,3
0.0,0.0,0.0,14726,11503,10301,33679,34482,3
0.0,0.0,0.0,14801,11503,10301,33748,34482,3
0.0,0.0,0.0,14937,11503,10301,33714,34553,3
0.0,0.0,0.0,15028,11503,10301,33783,34412,3
0.0,0.0,0.0,15089,11503,10290,33852,34412,3
0.0,0.0,0.0,15104,11503,10301,33817,34482,3
0.0,0.0,0.0,15104,11478,10301,33852,34412,3
0.0,0.0,0.0,15104,11465,10301,33852,34412,3
0.0,0.0,0.0,15089,11465,10301,33852,34412,3
0.0,0.0,0.0,15104,11490,10301,33887,34482,3
0.0,0.0,0.0,15089,11453,10348,34026,34553,3
0.0,0.0,0.0,15104,11453,10348,34026,34482,3
0.0,0.0,0.0,15058,11453,10313,34026,34412,3
0.0,0.0,0.0,14982,11465,10301,33921,34341,3
0.0,0.0,0.0,14967,11465,10267,33852,34412,3
0.0,0.0,0.0,14982,11478,10290,33852,34482,3
0.0,0.0,0.0,14967,11465,10255,33783,34412,3
0.0,0.0,0.0,14982,11453,10255,33887,34412,3
0.0,0.0,0.0,14967,11465,10255,33817,34412,3
0.0,0.0,0.0,14952,11453,10267,33748,34341,3
0.0,0.0,0.0,14937,11453,10267,33852,34341,3
0.0,0.0,0.0,14937,11478,10255,33852,34376,3
0.0,0.0,0.0,14922,11453,10255,33783,34341,3
0.0,0.0,0.0,14937,11453,10255,33852,34341,3
0.0,0.0,0.0,14937,11478,10255,33852,34341,3
0.0,0.0,0.0,14907,11465,10232,33783,34306,3
0.0,0.0,0.0,14922,11453,10244,33783,34447,3
0.0,0.0,0.0,14907,11478,10255,33852,34341,3
0.0,0.0,0.0,14922,11465,10232,33714,34341,3
0.0,0.0,0.0,14937,11478,10221,33783,34412,3
0.0,0.0,0.0,14907,11478,10209,33748,34306,3
0.0,0.0,0.0,14907,11478,10209,33679,34447,3
0.0,0.0,0.0,14891,11465,10209,33714,34412,3
0.0,0.0,0.0,14891,11453,10209,33714,34341,3
0.0,0.0,0.0,14876,11478,10209,33714,34341,3
0.0,0.0,0.0,14861,11465,10209,33714,34341,3
0.0,0.0,0.0,14876,11453,10221,33645,34412,3
0.0,0.0,0.0,14876,11478,10209,33645,34412,3
0.0,0.0,0.0,14876,11478,10221,33714,34271,3
0.0,0.0,0.0,14846,11490,10221,33714,34271,3
0.0,0.0,0.0,14861,11490,10209,33679,34271,3
0.0,0.0,0.0,14861,11503,10209,33748,34376,3
0.0,0.0,0.0,14861,11453,10209,33645,34306,3
0.0,0.0,0.0,14861,11478,10209,33645,34271,3
0.0,0.0,0.0,14846,11478,10209,33645,34271,3
0.0,0.0,0.0,14846,11503,10209,33645,34271,3
0.0,0.0,0.0,14876,11503,10197,33645,34271,3
0.0,0.0,0.0,14876,11503,10186,33714,34376,3
0.0,0.0,0.0,14861,11503,10174,33611,34271,3
0.0,0.0,0.0,14846,11503,10197,33679,34235,3
0.0,0.0,0.0,14861,11503,10186,33611,34271,3
0.0,0.0,0.0,14876,11465,10186,33679,34271,3
0.0,0.0,0.0,14846,11503,10209,33679,34271,3
0.0,0.0,0.0,14876,11478,10209,33714,34200,3
0.0,0.0,0.0,14861,11503,10209,33645,34235,3
0.0,0.0,0.0,14846,11478,10186,33714,34271,3
0.0,0.0,0.0,14861,11478,10197,33679,34271,3
