GyroX,GyroY,GyroZ,Thumb,Index,Middle,Ring,Pinky,Gesture
0.0,0.0,0.0,12824,24271,24486,32633,38830,0
0.0,0.0,0.0,12810,24342,24462,32533,38830,0
0.0,0.0,0.0,12851,24342,24438,32500,38830,0
0.0,0.0,0.0,12810,24318,24462,32500,38748,0
0.0,0.0,0.0,12810,24342,24510,32500,38707,0
0.0,0.0,0.0,12837,24366,24414,32533,38871,0
0.0,0.0,0.0,12851,24271,24510,32566,38748,0
0.0,0.0,0.0,12851,24271,24510,32500,38748,0
0.0,0.0,0.0,12824,24271,24534,32533,38748,0
0.0,0.0,0.0,12824,24294,24510,32500,38707,0
0.0,0.0,0.0,12824,24271,24486,32500,38748,0
0.0,0.0,0.0,12824,24271,24510,32566,38830,0
0.0,0.0,0.0,12810,24318,24462,32566,38748,0
0.0,0.0,0.0,12824,24342,24462,32402,38748,0
0.0,0.0,0.0,12810,24247,24510,32533,38830,0
0.0,0.0,0.0,12797,24318,24462,32500,38830,0
0.0,0.0,0.0,12824,24271,24438,32500,38789,0
0.0,0.0,0.0,12810,24223,24462,32500,38748,0
0.0,0.0,0.0,12810,24318,24510,32467,38789,0
0.0,0.0,0.0,12824,24247,24486,32435,38666,0
0.0,0.0,0.0,12824,24271,24462,32566,38830,0
0.0,0.0,0.0,12810,24247,24510,32500,38666,0
0.0,0.0,0.0,12797,24223,24510,32533,38707,0
0.0,0.0,0.0,12797,24247,24462,32435,38707,0
0.0,0.0,0.0,12797,24223,24438,32435,38707,0
0.0,0.0,0.0,12824,24271,24462,32435,38666,0
0.0,0.0,0.0,12810,24294,24462,32435,38666,0
0.0,0.0,0.0,12797,24271,24438,32435,38707,0
0.0,0.0,0.0,12824,24271,24462,32467,38666,0
0.0,0.0,0.0,12797,24247,24438,32500,38666,0
0.0,0.0,0.0,12810,24318,24438,32369,38748,0
0.0,0.0,0.0,12810,24223,24438,32500,38666,0
0.0,0.0,0.0,12797,24223,24438,32500,38748,0
0.0,0.0,0.0,12797,24247,24414,32402,38707,0
0.0,0.0,0.0,12797,24271,24462,32500,38666,0
0.0,0.0,0.0,12797,24199,24414,32500,38625,0
0.0,0.0,0.0,12797,24247,24462,32500,38666,0
0.0,0.0,0.0,12797,24247,24414,32369,38666,0
0.0,0.0,0.0,12770,24247,24438,32435,38707,0
0.0,0.0,0.0,12797,24223,24438,32435,38666,0
0.0,0.0,0.0,12797,24223,24414,32369,38666,0
0.0,0.0,0.0,12797,24223,24414,32500,38585,0
0.0,0.0,0.0,12797,24223,24414,32402,38748,0
0.0,0.0,0.0,12810,24223,24414,32402,38666,0
0.0,0.0,0.0,12797,24223,24414,32369,38666,0
0.0,0.0,0.0,12770,24247,24414,32369,38585,0
0.0,0.0,0.0,12797,24199,24414,32369,38585,0
0.0,0.0,0.0,12797,24223,24366,32402,38585,0
0.0,0.0,0.0,12797,24223,24366,32369,38666,0
0.0,0.0,0.0,12797,24176,24366,32369,38544,0
0.0,0.0,0.0,12770,24223,24342,32303,38666,0
0.0,0.0,0.0,12797,24223,24390,32369,38666,0
0.0,0.0,0.0,12797,24223,24366,32369,38666,0
0.0,0.0,0.0,12797,24176,24366,32369,38666,0
0.0,0.0,0.0,12797,24199,24366,32369,38544,0
0.0,0.0,0.0,12797,24223,24366,32435,38544,0
0.0,0.0,0.0,12797,24223,24342,32303,38666,0
0.0,0.0,0.0,12770,24223,24342,32303,38544,0
0.0,0.0,0.0,12797,24223,24318,32336,38463,0
0.0,0.0,0.0,12797,24223,24342,32303,38585,0
0.0,0.0,0.0,12797,24223,24342,32369,38503,0
0.0,0.0,0.0,12797,24199,24318,32369,38585,0
0.0,0.0,0.0,12797,24152,24318,32336,38544,0
0.0,0.0,0.0,12797,24176,24318,32369,38544,0
0.0,0.0,0.0,12797,24176,24271,32303,38503,0
0.0,0.0,0.0,12770,24199,24342,32303,38544,0
0.0,0.0,0.0,12797,24176,24294,32303,38544,0
0.0,0.0,0.0,12797,24129,24318,32369,38585,0
0.0,0.0,0.0,12797,24129,24318,32369,38463,0
0.0,0.0,0.0,12797,24129,24271,32369,38544,0
0.0,0.0,0.0,12797,24176,24318,32369,38503,0
0.0,0.0,0.0,12797,24176,24318,32303,38503,0
0.0,0.0,0.0,12797,24129,24318,32369,38382,0
0.0,0.0,0.0,12797,24129,24247,32271,38503,0
0.0,0.0,0.0,12824,24129,24271,32303,38585,0
0.0,0.0,0.0,12797,24176,24271,32173,38503,0
0.0,0.0,0.0,12810,24129,24271,32303,38463,0
0.0,0.0,0.0,12797,24129,24271,32303,38544,0
0.0,0.0,0.0,12797,24081,24318,32336,38422,0
0.0,0.0,0.0,12810,24129,24271,32271,38544,0
0.0,0.0,0.0,12810,24176,24318,32303,38382,0
0.0,0.0,0.0,12797,24129,24294,32303,38503,0
0.0,0.0,0.0,12797,24129,24271,32271,38585,0
0.0,0.0,0.0,12770,24129,24247,32238,38503,0
0.0,0.0,0.0,12810,24129,24223,32238,38463,0
0.0,0.0,0.0,12837,24129,24271,32238,38503,0
0.0,0.0,0.0,12797,24176,24247,32238,38503,0
0.0,0.0,0.0,12837,24129,24294,32271,38422,0
0.0,0.0,0.0,12824,24129,24271,32238,38382,0
0.0,0.0,0.0,12797,24152,24247,32238,38422,0
0.0,0.0,0.0,12824,24129,24223,32173,38422,0
0.0,0.0,0.0,12837,24081,24271,32238,38422,0
0.0,0.0,0.0,12824,24081,24271,32303,38422,0
0.0,0.0,0.0,12824,24129,24223,32238,38382,0
0.0,0.0,0.0,12824,24058,24271,32173,38503,0
0.0,0.0,0.0,12824,24105,24223,32238,38341,0
0.0,0.0,0.0,12810,24081,24247,32271,38422,0
0.0,0.0,0.0,12797,24058,24271,32271,38341,0
0.0,0.0,0.0,12837,24081,24223,32303,38422,0
0.0,0.0,0.0,12810,24058,24223,32271,38422,0
0.0,0.0,0.0,12810,24058,24271,32238,38260,0
0.0,0.0,0.0,12810,24081,24271,32238,38422,0
0.0,0.0,0.0,12824,24058,24247,32238,38422,0
0.0,0.0,0.0,12824,24034,24271,32238,38260,0
0.0,0.0,0.0,12797,24081,24223,32173,38301,0
0.0,0.0,0.0,12810,24058,24271,32238,38341,0
0.0,0.0,0.0,12851,24081,24271,32238,38341,0
0.0,0.0,0.0,12851,24081,24223,32173,38422,0
0.0,0.0,0.0,12851,24058,24223,32238,38382,0
0.0,0.0,0.0,12824,24034,24247,32238,38341,0
0.0,0.0,0.0,12810,24081,24223,32140,38260,0
0.0,0.0,0.0,12851,24034,24223,32205,38260,0
0.0,0.0,0.0,12824,24081,24223,32140,38260,0
0.0,0.0,0.0,12864,24058,24223,32173,38341,0
0.0,0.0,0.0,12851,24058,24223,32173,38382,0
0.0,0.0,0.0,12864,24034,24223,32173,38341,0
0.0,0.0,0.0,12851,24034,24199,32173,38301,0
0.0,0.0,0.0,12851,24081,24176,32173,38301,0
0.0,0.0,0.0,12864,24034,24176,32140,38260,0
0.0,0.0,0.0,12851,24034,24199,32173,38341,0
0.0,0.0,0.0,12851,24034,24176,32010,38260,0
0.0,0.0,0.0,12851,24058,24223,32238,38341,0
0.0,0.0,0.0,12851,24058,24152,32108,38301,0
0.0,0.0,0.0,12851,24034,24223,32108,38220,0
0.0,0.0,0.0,12824,24034,24176,32140,38220,0
0.0,0.0,0.0,12905,24034,24176,32238,38382,0
0.0,0.0,0.0,12824,24058,24176,32108,38180,0
0.0,0.0,0.0,12851,24058,24176,32173,38341,0
0.0,0.0,0.0,12824,24034,24129,32140,38180,0
0.0,0.0,0.0,12851,24058,24176,32075,38220,0
0.0,0.0,0.0,12851,24034,24152,32173,38220,0
0.0,0.0,0.0,12851,24034,24152,32043,38220,0
0.0,0.0,0.0,12824,24034,24152,32108,38301,0
0.0,0.0,0.0,12851,24034,24199,32140,38341,0
0.0,0.0,0.0,12837,24034,24152,32075,38180,0
0.0,0.0,0.0,12810,24034,24152,32108,38260,0
0.0,0.0,0.0,12878,23987,24129,32108,38180,0
0.0,0.0,0.0,12837,23987,24129,32075,38260,0
0.0,0.0,0.0,12824,24034,24129,32010,38180,0
0.0,0.0,0.0,12851,24034,24152,32043,38180,0
0.0,0.0,0.0,12824,24034,24129,32108,38180,0
0.0,0.0,0.0,12864,24011,24129,32108,38260,0
0.0,0.0,0.0,12851,23964,24129,32108,38301,0
0.0,0.0,0.0,12824,23987,24129,32043,38100,0
0.0,0.0,0.0,12851,24011,24105,32043,38260,0
0.0,0.0,0.0,12837,24011,24105,32043,38140,0
0.0,0.0,0.0,12810,24034,24129,32108,38140,0
0.0,0.0,0.0,12837,23964,24081,32043,38180,0
0.0,0.0,0.0,12851,23987,24081,32043,38260,0
0.0,0.0,0.0,12851,23964,24081,32010,38220,0
0.0,0.0,0.0,12810,23987,24105,32010,38100,0
0.0,0.0,0.0,12851,23987,24129,32108,38220,0
0.0,0.0,0.0,12851,23940,24129,32010,38100,0
0.0,0.0,0.0,12851,23987,24105,32043,38100,0
0.0,0.0,0.0,12851,24034,24129,32043,38100,0
0.0,0.0,0.0,12851,24034,24105,32010,38220,0
0.0,0.0,0.0,12824,23964,24058,32043,38100,0
0.0,0.0,0.0,12824,23964,24058,31978,38059,0
0.0,0.0,0.0,12851,23987,24058,32043,38100,0
0.0,0.0,0.0,12824,23847,24129,32010,38140,0
0.0,0.0,0.0,12851,24034,24034,32043,38140,0
0.0,0.0,0.0,12851,23940,24081,32075,38180,0
0.0,0.0,0.0,12810,23940,24058,31978,38180,0
0.0,0.0,0.0,12810,23964,23987,32010,38019,0
0.0,0.0,0.0,12810,23964,24081,32010,38019,0
0.0,0.0,0.0,12797,23940,24081,32010,38140,0
0.0,0.0,0.0,12851,23870,24034,32043,38100,0
0.0,0.0,0.0,12824,23964,24034,31978,38059,0
0.0,0.0,0.0,12810,23940,24081,32043,38100,0
0.0,0.0,0.0,12837,23940,24034,31978,38059,0
0.0,0.0,0.0,12824,23940,24034,32010,38100,0
0.0,0.0,0.0,12851,23940,23987,31978,38180,0
0.0,0.0,0.0,12824,23987,24034,32010,38019,0
0.0,0.0,0.0,12851,23940,24034,31946,38019,0
0.0,0.0,0.0,12851,23870,24034,32043,38100,0
0.0,0.0,0.0,12851,23917,24011,31978,38059,0
0.0,0.0,0.0,12824,23964,24034,31913,38019,0
0.0,0.0,0.0,12824,23940,24034,31978,38100,0
0.0,0.0,0.0,12851,23870,24034,31978,38019,0
0.0,0.0,0.0,12851,23940,24034,31978,37940,0
0.0,0.0,0.0,12824,23940,24034,32010,38059,0
0.0,0.0,0.0,12810,23940,24034,31978,37980,0
0.0,0.0,0.0,12824,23917,24034,31978,38019,0
0.0,0.0,0.0,12824,23940,23987,31978,38019,0
0.0,0.0,0.0,12824,23894,24034,31978,37900,0
0.0,0.0,0.0,12810,23870,24034,31978,38019,0
0.0,0.0,0.0,12824,23894,24034,31913,38019,0
0.0,0.0,0.0,12851,23870,24034,31978,38019,0
0.0,0.0,0.0,12797,23894,23987,31913,38059,0
0.0,0.0,0.0,12824,23940,24034,31913,38019,0
0.0,0.0,0.0,12851,23940,24034,31913,37940,0
0.0,0.0,0.0,12824,23894,23987,31978,37940,0
0.0,0.0,0.0,12810,23894,23987,31913,38019,0
0.0,0.0,0.0,12824,23870,24058,31978,37860,0
0.0,0.0,0.0,12837,23917,23987,31913,38019,0
0.0,0.0,0.0,12810,23894,23940,31881,37940,0
0.0,0.0,0.0,12797,23940,23940,31913,37860,0
0.0,0.0,0.0,12851,23894,23987,31913,37860,0
0.0,0.0,0.0,12851,23940,23964,31913,37940,0
0.0,0.0,0.0,12851,23870,23987,31946,38019,0
0.0,0.0,0.0,12824,23870,24011,31881,37940,0
0.0,0.0,0.0,12837,23894,23964,31881,37940,0
0.0,0.0,0.0,12837,23917,23987,31913,37940,0
0.0,0.0,0.0,12851,23917,23987,31913,37940,0
0.0,0.0,0.0,12851,23847,24011,31913,37940,0
0.0,0.0,0.0,12837,23894,23987,31881,37940,0
0.0,0.0,0.0,12824,23894,23987,31881,37860,0
0.0,0.0,0.0,12824,23894,23987,31881,37900,0
0.0,0.0,0.0,12810,23870,23964,31881,37940,0
0.0,0.0,0.0,12851,23847,23987,31849,37940,0
0.0,0.0,0.0,12810,23847,23987,31913,37940,0
0.0,0.0,0.0,12864,23870,23964,31849,38019,0
0.0,0.0,0.0,12851,23894,23940,31881,37940,0
0.0,0.0,0.0,12851,23894,23940,31881,37860,0
0.0,0.0,0.0,12824,23847,24034,31881,37940,0
0.0,0.0,0.0,12810,23847,23987,31881,37940,0
0.0,0.0,0.0,12837,23894,24011,31849,37781,0
0.0,0.0,0.0,12851,23894,23940,31849,37781,0
0.0,0.0,0.0,12824,23847,23987,31849,37900,0
0.0,0.0,0.0,12824,23847,23987,31881,37701,0
0.0,0.0,0.0,12824,23870,23940,31849,37860,0
0.0,0.0,0.0,12797,23894,23940,31849,37741,0
0.0,0.0,0.0,12797,23847,23940,31817,37741,0
0.0,0.0,0.0,12851,23847,23987,31849,37781,0
0.0,0.0,0.0,12824,23847,23940,31785,37701,0
0.0,0.0,0.0,12824,23800,23964,31817,37860,0
0.0,0.0,0.0,12851,23847,23940,31849,37781,0
0.0,0.0,0.0,12824,23824,23940,31785,37741,0
0.0,0.0,0.0,12824,23894,23940,31849,37662,0
0.0,0.0,0.0,12851,23777,23964,31849,37701,0
0.0,0.0,0.0,12851,23847,23940,31785,37820,0
0.0,0.0,0.0,12824,23800,23964,31849,37781,0
0.0,0.0,0.0,12797,23847,23917,31785,37940,0
0.0,0.0,0.0,12851,23847,23940,31817,37860,0
0.0,0.0,0.0,12810,23847,23940,31785,37701,0
0.0,0.0,0.0,12851,23847,23964,31785,37820,0
0.0,0.0,0.0,12851,23824,23964,31785,37543,0
0.0,0.0,0.0,12797,23847,23940,31720,37860,0
0.0,0.0,0.0,12837,23754,23940,31785,37701,0
0.0,0.0,0.0,12824,23800,23987,31785,37741,0
0.0,0.0,0.0,12851,23800,23940,31785,37741,0
0.0,0.0,0.0,12851,23777,23917,31752,37701,0
0.0,0.0,0.0,12851,23777,23940,31785,37741,0
0.0,0.0,0.0,12851,23824,23940,31785,37701,0
0.0,0.0,0.0,12824,23847,23940,31752,37662,0
0.0,0.0,0.0,12837,23824,23940,31752,37622,0
0.0,0.0,0.0,12837,23847,23940,31656,37662,0
0.0,0.0,0.0,12824,23777,23940,31720,37701,0
0.0,0.0,0.0,12851,23800,23940,31720,37701,0
0.0,0.0,0.0,12824,23800,23940,31720,37622,0
0.0,0.0,0.0,12864,23754,23940,31752,37583,0
0.0,0.0,0.0,12851,23754,23894,31656,37741,0
0.0,0.0,0.0,12824,23777,23940,31688,37701,0
0.0,0.0,0.0,12851,23800,23894,31688,37701,0
0.0,0.0,0.0,12837,23754,23940,31720,37662,0
0.0,0.0,0.0,12824,23777,23940,31624,37583,0
0.0,0.0,0.0,12851,23777,23894,31656,37860,0
0.0,0.0,0.0,12837,23777,23870,31688,37701,0
0.0,0.0,0.0,12851,23777,23917,31624,37662,0
0.0,0.0,0.0,12851,23777,23870,31593,37583,0
0.0,0.0,0.0,12851,23777,23940,31688,37701,0
0.0,0.0,0.0,12851,23754,23894,31593,37583,0
0.0,0.0,0.0,12851,23754,23847,31593,37583,0
0.0,0.0,0.0,12864,23730,23870,31593,37543,0
0.0,0.0,0.0,12945,23754,23824,31465,37426,0
0.0,0.0,0.0,13027,23754,23800,31465,37465,0
0.0,0.0,0.0,13122,23684,23777,31465,37465,0
0.0,0.0,0.0,13232,23730,23777,31465,37465,0
0.0,0.0,0.0,13287,23707,23777,31402,37426,0
0.0,0.0,0.0,13371,23730,23754,31529,37504,0
0.0,0.0,0.0,13524,23707,23777,31497,37543,0
0.0,0.0,0.0,13707,23707,23754,31465,37543,0
0.0,0.0,0.0,13863,23707,23777,31465,37583,0
0.0,0.0,0.0,13964,23754,23777,31402,37622,0
0.0,0.0,0.0,14108,23730,23777,31465,37701,0
0.0,0.0,0.0,14137,23730,23754,31370,37543,0
0.0,0.0,0.0,14122,23707,23777,31497,37543,0
0.0,0.0,0.0,14108,23754,23754,31434,37543,0
0.0,0.0,0.0,14108,23684,23777,31497,37543,0
0.0,0.0,0.0,14079,23661,23824,31497,37543,0
0.0,0.0,0.0,14050,23684,23777,31497,37504,0
0.0,0.0,0.0,14036,23684,23777,31434,37504,0
0.0,0.0,0.0,13992,23684,23754,31402,37347,0
0.0,0.0,0.0,13978,23684,23754,31497,37386,0
0.0,0.0,0.0,13921,23684,23754,31434,37308,0
0.0,0.0,0.0,13906,23707,23754,31402,37386,0
0.0,0.0,0.0,13906,23684,23777,31402,37347,0
0.0,0.0,0.0,13906,23661,23754,31465,37386,0
0.0,0.0,0.0,13863,23684,23707,31465,37347,0
0.0,0.0,0.0,13849,23707,23754,31370,37347,0
0.0,0.0,0.0,13849,23684,23730,31339,37308,0
0.0,0.0,0.0,13849,23684,23800,31465,37230,0
0.0,0.0,0.0,13849,23661,23777,31402,37230,0
0.0,0.0,0.0,13849,23661,23800,31434,37230,0
0.0,0.0,0.0,13821,23707,23754,31370,37230,0
0.0,0.0,0.0,13821,23661,23777,31402,37269,0
0.0,0.0,0.0,13806,23661,23777,31465,37152,0
0.0,0.0,0.0,13792,23661,23754,31339,37230,0
0.0,0.0,0.0,13821,23661,23777,31434,37269,0
0.0,0.0,0.0,13806,23661,23777,31402,37269,0
0.0,0.0,0.0,13764,23661,23754,31434,37230,0
0.0,0.0,0.0,13792,23661,23754,31402,37230,0
0.0,0.0,0.0,13792,23730,23754,31402,37152,0
0.0,0.0,0.0,13792,23684,23777,31402,37230,0
0.0,0.0,0.0,13792,23707,23754,31402,37230,0
0.0,0.0,0.0,13792,23684,23800,31402,37230,0
0.0,0.0,0.0,13749,23661,23754,31402,37230,0
0.0,0.0,0.0,13792,23661,23777,31370,37152,0
0.0,0.0,0.0,13749,23661,23777,31434,37230,0
0.0,0.0,0.0,13735,23684,23754,31339,37230,0
0.0,0.0,0.0,13735,23615,23777,31434,37191,0
0.0,0.0,0.0,13735,23661,23754,31402,37114,0
0.0,0.0,0.0,13749,23615,23777,31370,37152,0
0.0,0.0,0.0,13764,23661,23800,31402,37230,0
0.0,0.0,0.0,13749,23661,23800,31402,37230,0
0.0,0.0,0.0,13749,23684,23754,31370,37114,0
0.0,0.0,0.0,13764,23592,23777,31370,37230,0
0.0,0.0,0.0,13735,23661,23754,31370,37152,0
0.0,0.0,0.0,13749,23684,23754,31370,37114,0
0.0,0.0,0.0,13735,23661,23754,31339,37114,0
0.0,0.0,0.0,13735,23661,23754,31339,37230,0
0.0,0.0,0.0,13707,23684,23777,31370,37114,0
0.0,0.0,0.0,13735,23661,23824,31434,37191,0
0.0,0.0,0.0,13707,23661,23730,31370,37114,0
0.0,0.0,0.0,13707,23661,23777,31370,37152,0
0.0,0.0,0.0,13707,23615,23777,31339,37152,0
0.0,0.0,0.0,13679,23661,23754,31307,37191,0
0.0,0.0,0.0,13679,23661,23777,31307,37075,0
0.0,0.0,0.0,13650,23661,23777,31276,37036,0
0.0,0.0,0.0,13650,23569,23777,31402,37152,0
0.0,0.0,0.0,14079,23707,23824,31402,37191,0
0.0,0.0,0.0,14967,23847,23870,31434,37308,0
0.0,0.0,0.0,14967,23777,23847,31339,37308,0
0.0,0.0,0.0,14907,23707,23847,31370,37230,0
0.0,0.0,0.0,14967,23661,23870,31402,37269,0
0.0,0.0,0.0,15043,23684,23847,31370,37386,0
0.0,0.0,0.0,15058,23684,23800,31339,37230,0
0.0,0.0,0.0,14952,23661,23800,31339,37230,0
0.0,0.0,0.0,14666,23661,23847,31339,37230,0
0.0,0.0,0.0,14444,23661,23800,31402,37230,0
0.0,0.0,0.0,14458,23707,23847,31339,37230,0
0.0,0.0,0.0,14636,23754,23800,31370,37269,0
0.0,0.0,0.0,14861,23754,23847,31370,37230,0
0.0,0.0,0.0,15150,23754,23940,31339,37308,0
0.0,0.0,0.0,16125,23707,24081,31465,37386,0
0.0,0.0,0.0,16615,23638,24152,31561,37860,0
0.0,0.0,0.0,16831,23661,24199,31752,38140,0
0.0,0.0,0.0,16748,23592,24176,31817,38100,0
0.0,0.0,0.0,16368,23569,24176,31720,38100,0
0.0,0.0,0.0,15773,23707,24176,31881,37860,0
0.0,0.0,0.0,14370,23754,24176,31849,37980,0
0.0,0.0,0.0,12346,22843,23203,30622,37114,0
0.0,0.0,0.0,11804,22183,22313,29746,36197,0
0.0,0.0,0.0,12241,22010,22140,29627,36538,0
0.0,0.0,0.0,13068,21903,22488,29775,36652,0
0.0,0.0,0.0,13454,21796,22510,29775,36767,0
0.0,0.0,0.0,13792,21839,22488,29865,36767,0
0.0,0.0,0.0,14108,21924,22554,29865,36920,0
0.0,0.0,0.0,14518,22313,22488,30105,36920,0
0.0,0.0,0.0,15058,22754,23044,30591,37622,0
0.0,0.0,0.0,15412,23112,23569,30838,38180,0
0.0,0.0,0.0,15678,23112,23870,30994,38585,0
0.0,0.0,0.0,15678,23067,23894,30994,38707,0
0.0,0.0,0.0,15726,23022,23824,31025,38789,0
0.0,0.0,0.0,15773,23067,23847,31087,38748,0
0.0,0.0,0.0,16012,22977,23917,31213,38707,0
0.0,0.0,0.0,16368,22932,24081,31497,38585,0
0.0,0.0,0.0,16748,22932,24414,31720,38422,0
0.0,0.0,0.0,16815,22798,24438,31881,38422,0
0.0,0.0,0.0,16748,22843,24510,32043,38260,0
0.0,0.0,0.0,16582,22932,24534,32043,38180,0
0.0,0.0,0.0,16499,23022,24486,31978,38019,0
0.0,0.0,0.0,16499,23022,24510,31946,38019,0
0.0,0.0,0.0,16483,23022,24462,31881,37980,0
0.0,0.0,0.0,16434,23044,24462,31785,37860,0
0.0,0.0,0.0,16303,23022,24462,31849,37781,0
0.0,0.0,0.0,16222,23022,24510,31752,37860,0
0.0,0.0,0.0,16173,23090,24462,31720,37860,0
0.0,0.0,0.0,16189,23044,24366,31656,37940,0
0.0,0.0,0.0,16648,23022,24414,31529,37860,0
0.0,0.0,0.0,17357,23022,24414,31465,37860,0
0.0,0.0,0.0,18129,23022,24438,31529,37940,0
0.0,0.0,0.0,18417,23112,24510,31624,37980,0
0.0,0.0,0.0,18508,23180,24510,31593,37940,0
0.0,0.0,0.0,18508,23180,24510,31593,37860,0
0.0,0.0,0.0,18544,23203,24510,31624,37860,0
0.0,0.0,0.0,18489,23294,24510,31593,37820,0
0.0,0.0,0.0,18453,23294,24510,31561,37860,0
0.0,0.0,0.0,18435,23271,24510,31561,37781,0
0.0,0.0,0.0,18399,23294,24438,31593,37860,0
0.0,0.0,0.0,18326,23180,24438,31593,37820,0
0.0,0.0,0.0,18272,23135,24414,31497,37662,0
0.0,0.0,0.0,18147,23112,24414,31465,37701,0
0.0,0.0,0.0,18093,23112,24414,31465,37701,0
0.0,0.0,0.0,18039,23067,24390,31402,37583,0
0.0,0.0,0.0,18022,23067,24366,31497,37583,0
0.0,0.0,0.0,18057,23022,24318,31465,37622,0
0.0,0.0,0.0,18039,23044,24366,31465,37622,0
0.0,0.0,0.0,18022,23022,24414,31434,37543,0
0.0,0.0,0.0,17951,22977,24414,31497,37504,0
0.0,0.0,0.0,17809,22977,24510,31465,37465,0
0.0,0.0,0.0,17652,22999,24462,31593,37543,0
0.0,0.0,0.0,17565,23022,24510,31881,37741,0
0.0,0.0,0.0,17357,23022,24510,32140,37860,0
0.0,0.0,0.0,17152,22999,24534,32238,38019,0
0.0,0.0,0.0,16698,22977,24558,32271,38140,0
0.0,0.0,0.0,15868,22843,24414,32108,38019,0
0.0,0.0,0.0,15227,22665,24318,31913,38019,0
0.0,0.0,0.0,14195,22621,24223,31849,37741,0
0.0,0.0,0.0,13287,22665,24129,31785,37701,0
0.0,0.0,0.0,12112,22709,24058,31688,37741,0
0.0,0.0,0.0,11716,22776,24034,31720,37622,0
0.0,0.0,0.0,11603,22843,24034,31593,37583,0
0.0,0.0,0.0,11503,22932,24034,31593,37701,0
0.0,0.0,0.0,11503,22977,24011,31624,37543,0
0.0,0.0,0.0,11490,22977,23987,31593,37465,0
0.0,0.0,0.0,11453,22910,23940,31656,37386,0
0.0,0.0,0.0,11465,22865,23964,31593,37426,0
0.0,0.0,0.0,11453,22932,23964,31656,37308,0
0.0,0.0,0.0,11465,22932,23940,31593,37230,0
0.0,0.0,0.0,11528,22932,23940,31529,37308,0
0.0,0.0,0.0,12060,23022,23940,31529,37386,0
0.0,0.0,0.0,13468,23022,23940,31561,37583,0
0.0,0.0,0.0,15273,23180,24011,31529,37860,0
0.0,0.0,0.0,16417,23203,24011,31656,38019,0
0.0,0.0,0.0,16949,23203,24152,31656,38019,0
0.0,0.0,0.0,17289,23248,24223,31720,38059,0
0.0,0.0,0.0,17495,23294,24223,31881,38180,0
0.0,0.0,0.0,17774,23225,24342,32108,38260,0
0.0,0.0,0.0,18022,23271,24462,32140,38666,0
0.0,0.0,0.0,18344,23157,24510,32173,38871,0
0.0,0.0,0.0,18581,23067,24534,31785,38019,0
0.0,0.0,0.0,18635,23112,24510,31497,37741,0
0.0,0.0,0.0,18801,23022,24534,31402,37701,0
0.0,0.0,0.0,18931,23067,24462,31465,37662,0
0.0,0.0,0.0,19005,23067,24534,31339,37543,0
0.0,0.0,0.0,19024,23022,24510,31402,37701,0
0.0,0.0,0.0,19080,22977,24510,31370,37701,0
0.0,0.0,0.0,19024,22977,24534,31339,37701,0
0.0,0.0,0.0,19005,22932,24462,31276,37662,0
0.0,0.0,0.0,19080,22932,24462,31276,37543,0
0.0,0.0,0.0,18562,22932,24366,31213,37583,0
0.0,0.0,0.0,17016,23044,24199,31213,37543,0
0.0,0.0,0.0,15459,22932,24129,31244,37622,0
0.0,0.0,0.0,14577,22709,23777,31402,37308,0
0.0,0.0,0.0,13735,22488,23203,31150,37114,0
0.0,0.0,0.0,13287,22183,22599,31150,36843,0
0.0,0.0,0.0,12945,22118,22335,31119,36690,0
0.0,0.0,0.0,13013,22183,22335,31087,36690,0
0.0,0.0,0.0,13343,22444,22754,31213,36843,0
0.0,0.0,0.0,13792,22709,23294,31497,37230,0
0.0,0.0,0.0,14458,22955,23847,31785,37386,0
0.0,0.0,0.0,14726,22932,23870,31752,37426,0
0.0,0.0,0.0,14756,22932,23894,31849,37465,0
0.0,0.0,0.0,14726,22955,23894,31881,37583,0
0.0,0.0,0.0,14726,23022,23940,31881,37622,0
0.0,0.0,0.0,14876,23157,24034,31978,37622,0
0.0,0.0,0.0,15584,23477,24223,32173,38019,0
0.0,0.0,0.0,17118,23847,24606,32303,38180,0
0.0,0.0,0.0,18362,23847,24848,32336,38140,0
0.0,0.0,0.0,18968,23800,24995,32369,38180,0
0.0,0.0,0.0,18783,23569,24995,32303,38100,0
0.0,0.0,0.0,18308,23385,24848,32173,37980,0
0.0,0.0,0.0,18147,23294,24799,31978,37860,0
0.0,0.0,0.0,18272,23316,24751,31913,37701,0
0.0,0.0,0.0,18362,23248,24702,31785,37622,0
0.0,0.0,0.0,18362,23225,24702,31881,37583,0
0.0,0.0,0.0,18344,23225,24702,31720,37543,0
0.0,0.0,0.0,18272,23203,24654,31720,37583,0
0.0,0.0,0.0,18164,23157,24654,31720,37543,0
0.0,0.0,0.0,18093,23157,24654,31752,37543,0
0.0,0.0,0.0,18004,23180,24582,31720,37583,0
0.0,0.0,0.0,17986,23157,24606,31785,37465,0
0.0,0.0,0.0,17933,23157,24558,31720,37504,0
0.0,0.0,0.0,17862,23112,24534,31624,37543,0
0.0,0.0,0.0,17845,23135,24534,31593,37465,0
0.0,0.0,0.0,17845,23135,24558,31624,37347,0
0.0,0.0,0.0,17845,23067,24486,31593,37191,0
0.0,0.0,0.0,17862,23022,24510,31561,37230,0
0.0,0.0,0.0,17774,23044,24414,31497,37230,0
0.0,0.0,0.0,17634,23022,24366,31402,37269,0
0.0,0.0,0.0,17495,22977,24271,31370,37230,0
0.0,0.0,0.0,17237,23022,24129,31213,37465,0
0.0,0.0,0.0,16582,23022,23987,31119,37741,0
0.0,0.0,0.0,15773,22754,23477,30347,37386,0
0.0,0.0,0.0,14997,22313,22599,29042,36998,0
0.0,0.0,0.0,14681,22096,22270,28470,36499,0
0.0,0.0,0.0,14503,22053,22140,28357,36272,0
0.0,0.0,0.0,14488,22075,22118,28357,36310,0
0.0,0.0,0.0,14503,22140,22183,28414,36424,0
0.0,0.0,0.0,14621,22140,22248,28640,36538,0
0.0,0.0,0.0,15165,22313,22488,29158,36920,0
0.0,0.0,0.0,15726,22401,22798,29568,37152,0
0.0,0.0,0.0,15980,22643,23157,30075,37347,0
0.0,0.0,0.0,16060,22709,23477,30469,37269,0
0.0,0.0,0.0,15980,22709,23477,30469,37191,0
0.0,0.0,0.0,15980,22709,23477,30591,37152,0
0.0,0.0,0.0,15996,22754,23546,30745,37230,0
0.0,0.0,0.0,16060,22621,23661,30838,37308,0
0.0,0.0,0.0,16222,22843,23707,30900,37269,0
0.0,0.0,0.0,16254,22932,23777,30962,37386,0
0.0,0.0,0.0,16352,22865,23847,31025,37230,0
0.0,0.0,0.0,16303,22932,23894,31119,37230,0
0.0,0.0,0.0,16109,22999,23940,31087,37308,0
0.0,0.0,0.0,15837,23112,23940,31150,37308,0
0.0,0.0,0.0,15726,23203,23987,31181,37347,0
0.0,0.0,0.0,15647,23203,24011,31276,37269,0
0.0,0.0,0.0,15647,23203,24081,31339,37308,0
0.0,0.0,0.0,15678,23157,24058,31244,37308,0
0.0,0.0,0.0,15773,23044,24105,31213,37114,0
0.0,0.0,0.0,15884,22932,23894,31119,37036,0
0.0,0.0,0.0,15852,22977,23847,31087,36920,0
0.0,0.0,0.0,15837,22932,23847,31087,36728,0
0.0,0.0,0.0,15789,22887,23870,31025,36805,0
0.0,0.0,0.0,15900,22932,23870,31087,36690,0
0.0,0.0,0.0,16157,22887,23800,30962,36690,0
0.0,0.0,0.0,16222,22887,23754,30838,36690,0
0.0,0.0,0.0,16189,22820,23777,30838,36690,0
0.0,0.0,0.0,16157,22776,23754,30776,36690,0
0.0,0.0,0.0,16173,22754,23754,30715,36690,0
0.0,0.0,0.0,16189,22754,23754,30622,36690,0
0.0,0.0,0.0,16287,22754,23684,30591,36767,0
0.0,0.0,0.0,16434,22776,23707,30684,36767,0
0.0,0.0,0.0,16582,22754,23684,30715,36767,0
0.0,0.0,0.0,16483,22754,23661,30591,36920,0
0.0,0.0,0.0,16352,22709,23684,30622,36690,0
0.0,0.0,0.0,16287,22709,23684,30622,36690,0
0.0,0.0,0.0,16206,22665,23615,30591,36614,0
0.0,0.0,0.0,16222,22643,23638,30591,36614,0
0.0,0.0,0.0,16222,22621,23569,30653,36614,0
0.0,0.0,0.0,16238,22599,23615,30653,36690,0
0.0,0.0,0.0,16254,22599,23615,30591,36690,0
0.0,0.0,0.0,16222,22576,23615,30653,36767,0
0.0,0.0,0.0,16157,22576,23569,30653,36690,0
0.0,0.0,0.0,16093,22576,23592,30591,36614,0
0.0,0.0,0.0,16028,22554,23569,30591,36614,0
0.0,0.0,0.0,15996,22576,23592,30591,36538,0
0.0,0.0,0.0,15932,22599,23569,30591,36538,0
0.0,0.0,0.0,15900,22621,23522,30469,36386,0
0.0,0.0,0.0,15868,22621,23522,30561,36462,0
0.0,0.0,0.0,15900,22599,23569,30561,36386,0
0.0,0.0,0.0,15868,22576,23499,30499,36386,0
0.0,0.0,0.0,15900,22576,23546,30530,36499,0
0.0,0.0,0.0,15868,22576,23477,30469,36348,0
0.0,0.0,0.0,15852,22576,23477,30499,36386,0
0.0,0.0,0.0,15837,22576,23499,30469,36386,0
0.0,0.0,0.0,15805,22532,23522,30499,36386,0
0.0,0.0,0.0,15789,22510,23546,30469,36386,0
0.0,0.0,0.0,15773,22576,23522,30469,36310,0
0.0,0.0,0.0,15773,22532,23499,30408,36538,0
0.0,0.0,0.0,15726,22488,23477,30469,36462,0
0.0,0.0,0.0,15710,22532,23477,30408,36462,0
0.0,0.0,0.0,15694,22532,23499,30469,36348,0
0.0,0.0,0.0,15600,22532,23477,30377,36310,0
0.0,0.0,0.0,15584,22554,23431,30347,36386,0
0.0,0.0,0.0,15521,22554,23477,30408,36348,0
0.0,0.0,0.0,15521,22554,23477,30408,36424,0
0.0,0.0,0.0,15490,22554,23477,30438,36462,0
0.0,0.0,0.0,15475,22532,23454,30408,36538,0
0.0,0.0,0.0,15459,22532,23454,30317,36538,0
0.0,0.0,0.0,15412,22532,23454,30347,36499,0
0.0,0.0,0.0,15381,22532,23431,30317,36538,0
0.0,0.0,0.0,15288,22510,23431,30286,36614,0
0.0,0.0,0.0,15273,22532,23431,30377,36499,0
0.0,0.0,0.0,15258,22532,23431,30286,36690,0
0.0,0.0,0.0,15211,22510,23431,30347,36767,0
0.0,0.0,0.0,15181,22488,23431,30347,36690,0
0.0,0.0,0.0,15104,22532,23431,30347,36690,0
0.0,0.0,0.0,15104,22510,23385,30256,36538,0
0.0,0.0,0.0,15074,22510,23431,30286,36614,0
0.0,0.0,0.0,15089,22488,23385,30286,36614,0
0.0,0.0,0.0,15058,22466,23385,30286,36538,0
0.0,0.0,0.0,15058,22488,23385,30317,36614,0
0.0,0.0,0.0,15089,22466,23431,30317,36614,0
0.0,0.0,0.0,15089,22466,23385,30286,36690,0
0.0,0.0,0.0,15058,22488,23339,30256,36538,0
0.0,0.0,0.0,15043,22532,23431,30286,36538,0
0.0,0.0,0.0,15043,22488,23339,30165,36538,0
0.0,0.0,0.0,15043,22444,23385,30226,36538,0
0.0,0.0,0.0,15058,22466,23385,30165,36462,0
0.0,0.0,0.0,15058,22510,23339,30226,36576,0
0.0,0.0,0.0,15074,22488,23385,30226,36576,0
0.0,0.0,0.0,15089,22488,23339,30226,36538,0
0.0,0.0,0.0,15150,22488,23316,30286,36728,0
0.0,0.0,0.0,15135,22401,23362,30256,36690,0
0.0,0.0,0.0,14982,22444,23385,30226,36690,0
0.0,0.0,0.0,14636,22444,23339,30286,36690,0
0.0,0.0,0.0,14166,22401,23294,30286,36614,0
0.0,0.0,0.0,13679,22576,23248,30226,36538,0
0.0,0.0,0.0,13315,22599,23294,30226,36538,0
0.0,0.0,0.0,12972,22621,23203,30165,36499,0
0.0,0.0,0.0,12797,22621,23203,30165,36462,0
0.0,0.0,0.0,12583,22554,23225,30165,36386,0
0.0,0.0,0.0,12878,22488,23225,30165,36538,0
0.0,0.0,0.0,13205,22444,23180,30165,36614,0
0.0,0.0,0.0,13510,22488,23157,30165,36614,0
0.0,0.0,0.0,13707,22444,23112,30105,36538,0
0.0,0.0,0.0,13806,22401,23135,30105,36614,0
0.0,0.0,0.0,13849,22401,23090,30105,36576,0
0.0,0.0,0.0,13992,22401,23067,30015,36538,0
0.0,0.0,0.0,14079,22357,23067,30045,36462,0
0.0,0.0,0.0,14137,22401,23067,30015,36499,0
0.0,0.0,0.0,14195,22357,23067,29984,36462,0
0.0,0.0,0.0,14370,22401,23044,29984,36462,0
0.0,0.0,0.0,14370,22444,23022,29925,36348,0
0.0,0.0,0.0,14326,22423,23022,29925,36386,0
0.0,0.0,0.0,14326,22401,23044,29925,36386,0
0.0,0.0,0.0,14209,22444,23044,29865,36310,0
0.0,0.0,0.0,14093,22488,23112,29925,36272,0
0.0,0.0,0.0,13964,22599,23135,29925,36348,0
0.0,0.0,0.0,13849,22665,23271,29984,36310,0
0.0,0.0,0.0,13636,22798,23248,29984,36310,0
0.0,0.0,0.0,13566,22843,23294,29865,36235,0
0.0,0.0,0.0,13496,22843,23248,29984,36348,0
0.0,0.0,0.0,13454,22843,23248,29984,36310,0
0.0,0.0,0.0,13426,22843,23203,29865,36160,0
0.0,0.0,0.0,13650,22798,23180,29865,36310,0
0.0,0.0,0.0,14137,22843,23157,29895,36386,0
0.0,0.0,0.0,14399,22798,23180,29865,36348,0
0.0,0.0,0.0,14967,22776,23135,29865,36424,0
0.0,0.0,0.0,14982,22709,23112,29895,36462,0
0.0,0.0,0.0,14922,22665,23135,29925,36310,0
0.0,0.0,0.0,14967,22621,23112,29865,36348,0
0.0,0.0,0.0,15242,22754,23112,29925,36462,0
0.0,0.0,0.0,15615,22687,23112,29984,36462,0
0.0,0.0,0.0,15647,22576,23112,29984,36462,0
0.0,0.0,0.0,15506,22532,23090,29865,36386,0
0.0,0.0,0.0,15366,22532,23112,29865,36348,0
0.0,0.0,0.0,15304,22488,23044,29865,36348,0
0.0,0.0,0.0,15459,22488,23067,29865,36348,0
0.0,0.0,0.0,15475,22444,23067,29895,36310,0
0.0,0.0,0.0,15273,22488,23112,29895,36386,0
0.0,0.0,0.0,14997,23022,23022,29895,36348,0
0.0,0.0,0.0,15058,23339,23112,29865,36235,0
0.0,0.0,0.0,14846,23431,23067,29775,36122,0
0.0,0.0,0.0,14681,23477,23112,29865,36310,0
0.0,0.0,0.0,14473,23499,23067,29865,36272,0
0.0,0.0,0.0,14166,23569,23067,29865,36197,0
0.0,0.0,0.0,13749,23569,23135,29865,36160,0
0.0,0.0,0.0,13357,23592,23112,29865,36160,0
0.0,0.0,0.0,13398,23684,23067,29835,36160,0
0.0,0.0,0.0,13454,23707,23157,29805,36235,0
0.0,0.0,0.0,13371,23707,23112,29865,36160,0
0.0,0.0,0.0,12864,23707,23044,29775,36197,0
0.0,0.0,0.0,13122,23684,23044,29775,36160,0
0.0,0.0,0.0,13863,23707,23067,29805,36085,0
0.0,0.0,0.0,14253,23684,23067,29775,36160,0
0.0,0.0,0.0,14399,23707,23022,29775,36010,0
0.0,0.0,0.0,14488,23684,23044,29805,36122,0
0.0,0.0,0.0,14547,23661,23067,29805,36047,0
0.0,0.0,0.0,14562,23638,23044,29805,35972,0
0.0,0.0,0.0,14607,23569,23112,29775,36047,0
0.0,0.0,0.0,14547,23592,23067,29805,36010,0
0.0,0.0,0.0,14518,23569,23090,29775,36047,0
0.0,0.0,0.0,14458,23522,23112,29746,35935,0
0.0,0.0,0.0,14429,23592,23067,29805,35972,0
0.0,0.0,0.0,14370,23569,23067,29775,36010,0
0.0,0.0,0.0,14326,23569,23112,29746,36047,0
0.0,0.0,0.0,14326,23499,23044,29805,35935,0
0.0,0.0,0.0,14311,23522,23044,29775,35935,0
0.0,0.0,0.0,14282,23522,23112,29805,36085,0
0.0,0.0,0.0,14297,23499,23112,29805,36010,0
0.0,0.0,0.0,14326,23499,23135,29775,36122,0
0.0,0.0,0.0,14547,23477,23112,29775,36010,0
0.0,0.0,0.0,14607,23431,23112,29805,36047,0
0.0,0.0,0.0,14741,23431,23067,29805,36197,0
0.0,0.0,0.0,14771,23431,23112,29865,36235,0
0.0,0.0,0.0,14786,23454,23090,29805,36160,0
0.0,0.0,0.0,14861,23339,23044,29805,36160,0
0.0,0.0,0.0,14907,23294,23067,29805,36235,0
0.0,0.0,0.0,15089,23225,23090,29805,36272,0
0.0,0.0,0.0,15350,23203,23067,29805,36310,0
0.0,0.0,0.0,15678,22955,23022,29865,36310,0
0.0,0.0,0.0,15615,23022,22977,29746,36235,0
0.0,0.0,0.0,15428,23022,22999,29805,36235,0
0.0,0.0,0.0,15227,22955,22977,29746,36235,0
0.0,0.0,0.0,15089,22955,22977,29746,36197,0
0.0,0.0,0.0,15028,22932,22955,29746,36160,0
0.0,0.0,0.0,15043,22932,22932,29746,36085,0
0.0,0.0,0.0,15089,22887,22932,29775,36197,0
0.0,0.0,0.0,15104,22910,22932,29775,36272,0
0.0,0.0,0.0,15135,22887,22910,29716,36160,0
0.0,0.0,0.0,15181,22865,22887,29746,36235,0
0.0,0.0,0.0,15288,22887,22865,29805,36272,0
0.0,0.0,0.0,15273,22955,22843,29746,36310,0
0.0,0.0,0.0,15089,22932,22820,29805,36348,0
0.0,0.0,0.0,14997,22887,22798,29746,36310,0
0.0,0.0,0.0,14922,22887,22798,29746,36310,0
0.0,0.0,0.0,14967,22887,22843,29716,36272,0
0.0,0.0,0.0,15104,22843,22798,29686,36386,0
0.0,0.0,0.0,15366,22887,22798,29657,36310,0
0.0,0.0,0.0,15459,22843,22798,29746,36310,0
0.0,0.0,0.0,15521,22843,22798,29657,36235,0
0.0,0.0,0.0,15506,22820,22798,29657,36235,0
0.0,0.0,0.0,15490,22820,22754,29627,36160,0
0.0,0.0,0.0,15521,22843,22776,29746,36235,0
0.0,0.0,0.0,15459,22843,22798,29627,36085,0
0.0,0.0,0.0,15350,22865,22843,29686,36047,0
0.0,0.0,0.0,15211,22955,22887,29657,36010,0
0.0,0.0,0.0,15181,23225,23022,29627,36085,0
0.0,0.0,0.0,15165,23385,23022,29657,36010,0
0.0,0.0,0.0,15150,23499,23112,29686,35898,0
0.0,0.0,0.0,15165,23661,23157,29657,35935,0
0.0,0.0,0.0,15273,23754,23112,29657,35935,0
0.0,0.0,0.0,15506,23847,23112,29686,35898,0
0.0,0.0,0.0,15852,23777,23022,29686,36047,0
0.0,0.0,0.0,16450,23824,23090,29895,36310,0
0.0,0.0,0.0,16949,23777,23316,30469,36386,0
0.0,0.0,0.0,17289,23754,23569,30838,36499,0
0.0,0.0,0.0,17426,23777,23730,30962,36462,0
0.0,0.0,0.0,17565,23754,23707,30869,36424,0
0.0,0.0,0.0,17634,23638,23684,30838,36386,0
0.0,0.0,0.0,17845,23546,23638,30776,36386,0
0.0,0.0,0.0,17933,23385,23569,30653,36462,0
0.0,0.0,0.0,17792,23294,23431,30408,36386,0
0.0,0.0,0.0,17634,23157,23454,30408,36424,0
0.0,0.0,0.0,17426,23203,23339,30286,36310,0
0.0,0.0,0.0,17220,23067,23339,30256,36348,0
0.0,0.0,0.0,17084,22955,23248,30226,36386,0
0.0,0.0,0.0,16882,22932,23225,30226,36348,0
0.0,0.0,0.0,16781,22887,23203,30165,36348,0
0.0,0.0,0.0,16748,22910,23203,30226,36235,0
0.0,0.0,0.0,16681,22955,23157,30135,36160,0
0.0,0.0,0.0,16665,22932,23180,30105,36085,0
0.0,0.0,0.0,16582,22843,23203,30165,36122,0
0.0,0.0,0.0,16565,22887,23112,30105,36085,0
0.0,0.0,0.0,16516,22932,23157,30105,36160,0
0.0,0.0,0.0,16434,22932,23157,30165,36122,0
0.0,0.0,0.0,16385,22977,23135,30165,36235,0
0.0,0.0,0.0,16336,22932,23112,30075,36122,0
0.0,0.0,0.0,16287,22955,23135,30165,36160,0
0.0,0.0,0.0,16222,22977,23112,30045,36085,0
0.0,0.0,0.0,16093,23022,23090,30105,36085,0
0.0,0.0,0.0,15996,22955,23112,30045,36047,0
0.0,0.0,0.0,15996,22955,23090,30045,36085,0
0.0,0.0,0.0,15964,22910,23044,30015,36047,0
0.0,0.0,0.0,15932,22887,23022,30105,36160,0
0.0,0.0,0.0,15932,22932,22977,30015,36047,0
0.0,0.0,0.0,15932,22887,22999,29984,36160,0
0.0,0.0,0.0,15900,22932,22999,29984,36047,0
0.0,0.0,0.0,15868,22932,23022,29984,36160,0
0.0,0.0,0.0,15805,22865,22977,29925,36010,0
0.0,0.0,0.0,15789,22932,22977,29925,36085,0
0.0,0.0,0.0,15726,22910,22977,29984,36010,0
0.0,0.0,0.0,15521,22955,23022,29984,36310,0
0.0,0.0,0.0,15288,22977,23022,29865,36614,0
0.0,0.0,0.0,15211,23044,22977,29805,36690,0
0.0,0.0,0.0,15119,23044,22932,29805,36614,0
0.0,0.0,0.0,15104,23022,22887,29746,36576,0
0.0,0.0,0.0,15104,23022,22798,29657,36197,0
0.0,0.0,0.0,15058,22932,22843,29597,36122,0
0.0,0.0,0.0,15028,22977,22865,29686,36047,0
0.0,0.0,0.0,14982,22999,22932,29746,36047,0
0.0,0.0,0.0,14967,22932,22977,29805,36122,0
0.0,0.0,0.0,14922,23022,22977,29805,36197,0
0.0,0.0,0.0,14997,23022,23022,29835,36160,0
0.0,0.0,0.0,15058,22977,23022,29984,36197,0
0.0,0.0,0.0,15074,22955,23112,30165,36310,0
0.0,0.0,0.0,15150,22955,23225,30286,36348,0
0.0,0.0,0.0,15150,22932,23203,30408,36386,0
0.0,0.0,0.0,15150,22932,23203,30408,36386,0
0.0,0.0,0.0,15181,22932,23203,30408,36348,0
0.0,0.0,0.0,15150,22887,23135,30347,36462,0
0.0,0.0,0.0,15135,22798,23090,30226,36310,0
0.0,0.0,0.0,15135,22865,23044,30195,36310,0
0.0,0.0,0.0,15273,22754,23067,30105,36462,0
0.0,0.0,0.0,15900,22843,23044,30015,36310,0
0.0,0.0,0.0,16499,22776,23044,29925,36386,0
0.0,0.0,0.0,17084,22754,23112,29984,36386,0
0.0,0.0,0.0,17426,22865,23067,29984,36462,0
0.0,0.0,0.0,17582,22932,23112,30015,36538,0
0.0,0.0,0.0,17443,22887,23112,29984,36538,0
0.0,0.0,0.0,17118,22910,23022,29984,36424,0
0.0,0.0,0.0,16949,22798,23022,29895,36386,0
0.0,0.0,0.0,16549,22754,22999,29865,36197,0
0.0,0.0,0.0,16109,22843,22977,29775,36122,0
0.0,0.0,0.0,15773,22843,23022,29746,36010,0
0.0,0.0,0.0,15553,22843,23112,29746,35935,0
0.0,0.0,0.0,15490,22754,23112,29746,35935,0
0.0,0.0,0.0,15459,22776,23044,29746,36010,0
0.0,0.0,0.0,15459,22709,23044,29746,36010,0
0.0,0.0,0.0,15789,22621,22977,29686,36010,0
0.0,0.0,0.0,16093,22665,22955,29627,36010,0
0.0,0.0,0.0,16109,22798,22955,29746,36160,0
0.0,0.0,0.0,15600,23112,22932,29746,36235,0
0.0,0.0,0.0,15028,23339,22977,29686,36160,0
0.0,0.0,0.0,14021,23339,22977,29686,36010,0
0.0,0.0,0.0,13764,23067,22977,29716,36010,0
0.0,0.0,0.0,14297,22932,22932,29686,36085,0
0.0,0.0,0.0,14666,22843,22887,29568,36010,0
0.0,0.0,0.0,14846,22709,22843,29627,35935,0
0.0,0.0,0.0,14967,22576,22843,29627,36047,0
0.0,0.0,0.0,15058,22621,22887,29657,36010,0
0.0,0.0,0.0,15013,22621,22887,29597,35972,0
0.0,0.0,0.0,15028,22576,22865,29597,36047,0
0.0,0.0,0.0,14982,22576,22932,29657,35898,0
0.0,0.0,0.0,14997,22576,22865,29627,35861,0
0.0,0.0,0.0,14967,22576,22865,29627,36010,0
0.0,0.0,0.0,14967,22510,22843,29568,35861,0
0.0,0.0,0.0,14922,22488,22865,29597,35972,0
0.0,0.0,0.0,14997,22488,22887,29568,36010,0
0.0,0.0,0.0,15366,22510,22843,29568,36047,0
0.0,0.0,0.0,15521,22488,22865,29568,36047,0
0.0,0.0,0.0,15678,22510,22887,29568,36085,0
0.0,0.0,0.0,15757,22488,22843,29657,36085,0
0.0,0.0,0.0,15852,22532,22843,29627,36085,0
0.0,0.0,0.0,15789,22532,22843,29627,36160,0
0.0,0.0,0.0,15837,22510,22843,29627,36085,0
0.0,0.0,0.0,15789,22488,22843,29568,36160,0
0.0,0.0,0.0,15773,22488,22843,29568,36085,0
0.0,0.0,0.0,15726,22444,22820,29627,36085,0
0.0,0.0,0.0,15678,22444,22843,29657,36010,0
0.0,0.0,0.0,15678,22401,22887,29568,36010,0
0.0,0.0,0.0,15647,22401,22798,29538,35972,0
0.0,0.0,0.0,15584,22423,22843,29597,35972,0
0.0,0.0,0.0,15584,22423,22798,29627,35972,0
0.0,0.0,0.0,15584,22401,22843,29538,36047,0
0.0,0.0,0.0,15490,22401,22820,29538,36085,0
0.0,0.0,0.0,15584,22401,22820,29479,35935,0
0.0,0.0,0.0,15584,22444,22798,29538,35972,0
0.0,0.0,0.0,15584,22357,22798,29568,36010,0
0.0,0.0,0.0,15584,22444,22754,29479,35972,0
0.0,0.0,0.0,15521,22401,22798,29509,35935,0
0.0,0.0,0.0,15242,22401,22754,29450,35861,0
0.0,0.0,0.0,14922,22532,22798,29421,35861,0
0.0,0.0,0.0,14756,22466,22843,29421,35861,0
0.0,0.0,0.0,14681,22466,22798,29391,35787,0
0.0,0.0,0.0,14666,22488,22754,29421,35749,0
0.0,0.0,0.0,14696,22423,22754,29421,35824,0
0.0,0.0,0.0,14666,22357,22754,29391,35824,0
0.0,0.0,0.0,14621,22444,22754,29421,35712,0
0.0,0.0,0.0,14311,22798,22776,29509,36010,0
0.0,0.0,0.0,14036,23112,22865,29421,35861,0
0.0,0.0,0.0,13679,23225,22887,29421,35898,0
0.0,0.0,0.0,13594,23271,22887,29509,35898,0
0.0,0.0,0.0,13878,23385,22910,29509,35935,0
0.0,0.0,0.0,14370,23431,22887,29509,35749,0
0.0,0.0,0.0,14636,23477,22843,29450,35712,0
0.0,0.0,0.0,14726,23431,22865,29421,35787,0
0.0,0.0,0.0,14967,23385,22843,29421,35712,0
0.0,0.0,0.0,15428,23431,22820,29479,35712,0
0.0,0.0,0.0,16060,23522,22776,29450,35712,0
0.0,0.0,0.0,16319,23592,22798,29391,35639,0
0.0,0.0,0.0,16222,23569,22754,29333,35639,0
0.0,0.0,0.0,16157,23477,22776,29333,35749,0
0.0,0.0,0.0,16483,22843,22932,29421,35935,0
0.0,0.0,0.0,17513,22665,23022,29450,36010,0
0.0,0.0,0.0,18057,22932,23022,29450,36047,0
0.0,0.0,0.0,17880,22843,22955,29391,36047,0
0.0,0.0,0.0,17443,22709,22887,29391,35935,0
0.0,0.0,0.0,17135,22576,22865,29391,35861,0
0.0,0.0,0.0,16882,22576,22843,29362,35824,0
0.0,0.0,0.0,16681,22554,22887,29333,35749,0
0.0,0.0,0.0,16665,22488,22776,29333,35712,0
0.0,0.0,0.0,16582,22488,22798,29333,35712,0
0.0,0.0,0.0,16287,22576,22687,29216,35824,0
0.0,0.0,0.0,15710,23022,22665,29333,35935,0
0.0,0.0,0.0,15381,23067,22643,29333,36010,0
0.0,0.0,0.0,15074,23090,22687,29304,36197,0
0.0,0.0,0.0,14967,23022,22665,29274,36122,0
0.0,0.0,0.0,14846,22955,22665,29245,36160,0
0.0,0.0,0.0,14741,22843,22621,29216,36085,0
0.0,0.0,0.0,14681,22754,22621,29274,36160,0
0.0,0.0,0.0,14726,22709,22643,29274,36047,0
0.0,0.0,0.0,14741,22576,22665,29274,36047,0
0.0,0.0,0.0,14786,22665,22576,29216,36010,0
0.0,0.0,0.0,14756,22621,22621,29274,36085,0
0.0,0.0,0.0,14816,22576,22665,29187,35972,0
0.0,0.0,0.0,14907,22576,22599,29216,36085,0
0.0,0.0,0.0,14967,22665,22599,29216,35935,0
0.0,0.0,0.0,15058,22576,22576,29274,35935,0
0.0,0.0,0.0,15211,22576,22665,29333,35861,0
0.0,0.0,0.0,15428,22643,22621,29274,35861,0
0.0,0.0,0.0,15459,22665,22665,29362,35898,0
0.0,0.0,0.0,15490,22820,22709,29304,35861,0
0.0,0.0,0.0,15490,23022,22932,29391,35898,0
0.0,0.0,0.0,15227,23294,22999,29391,35972,0
0.0,0.0,0.0,15104,23431,23112,29450,36047,0
0.0,0.0,0.0,14967,23615,23135,29509,36160,0
0.0,0.0,0.0,14666,23800,23135,29450,36160,0
0.0,0.0,0.0,14503,24034,23044,29391,36010,0
0.0,0.0,0.0,14503,24034,23022,29391,36047,0
0.0,0.0,0.0,14326,23940,22977,29391,35935,0
0.0,0.0,0.0,14326,23870,22865,29362,35972,0
0.0,0.0,0.0,14429,23847,22932,29391,35935,0
0.0,0.0,0.0,14696,23870,22910,29333,35824,0
0.0,0.0,0.0,15058,23940,22955,29391,35935,0
0.0,0.0,0.0,15459,24058,22932,29333,35749,0
0.0,0.0,0.0,15615,24034,22932,29333,35787,0
0.0,0.0,0.0,15647,24034,22977,29274,35639,0
0.0,0.0,0.0,15710,23964,22887,29304,35712,0
0.0,0.0,0.0,15789,23964,22865,29274,35787,0
0.0,0.0,0.0,15837,23940,22887,29274,35712,0
0.0,0.0,0.0,15884,23894,22865,29274,35712,0
0.0,0.0,0.0,15789,23894,22843,29245,35712,0
0.0,0.0,0.0,15773,23870,22820,29216,35712,0
0.0,0.0,0.0,15726,23870,22798,29187,35712,0
0.0,0.0,0.0,15741,23824,22798,29158,35639,0
0.0,0.0,0.0,15710,23870,22754,29158,35565,0
0.0,0.0,0.0,15773,23870,22754,29100,35565,0
0.0,0.0,0.0,15916,23894,22754,29100,35565,0
0.0,0.0,0.0,15964,23754,22665,29071,35565,0
0.0,0.0,0.0,16028,23592,22687,29071,35712,0
0.0,0.0,0.0,15916,23408,22798,29216,35712,0
0.0,0.0,0.0,15647,23157,22843,29245,35824,0
0.0,0.0,0.0,15150,23022,22798,29216,35824,0
0.0,0.0,0.0,14696,22865,22798,29158,35861,0
0.0,0.0,0.0,14666,22776,22709,29071,35898,0
0.0,0.0,0.0,15028,22621,22776,28984,35861,0
0.0,0.0,0.0,15397,22576,22754,29042,35972,0
0.0,0.0,0.0,15584,22621,22754,29100,35935,0
0.0,0.0,0.0,15600,22576,22709,29042,35972,0
0.0,0.0,0.0,15584,22554,22754,29042,35935,0
0.0,0.0,0.0,15615,22510,22731,29071,36010,0
0.0,0.0,0.0,15584,22532,22665,29100,35935,0
0.0,0.0,0.0,15537,22510,22665,29071,35861,0
0.0,0.0,0.0,15553,22488,22621,29042,35861,0
0.0,0.0,0.0,15521,22510,22665,29042,35787,0
0.0,0.0,0.0,15459,22488,22599,28927,35712,0
0.0,0.0,0.0,15490,22488,22709,29042,35787,0
0.0,0.0,0.0,15475,22488,22621,29042,35861,0
0.0,0.0,0.0,15397,22444,22621,28984,35787,0
0.0,0.0,0.0,15273,22444,22576,28955,35861,0
0.0,0.0,0.0,15165,22423,22576,28984,35824,0
0.0,0.0,0.0,14891,22357,22576,28955,35861,0
0.0,0.0,0.0,14592,22423,22532,28955,35676,0
0.0,0.0,0.0,14518,22488,22532,28955,35787,0
0.0,0.0,0.0,14429,22488,22488,28955,35712,0
0.0,0.0,0.0,14458,22510,22488,28927,35712,0
0.0,0.0,0.0,14518,22444,22510,28955,35787,0
0.0,0.0,0.0,14370,22488,22401,28955,35787,0
0.0,0.0,0.0,14166,22423,22270,29216,36047,0
0.0,0.0,0.0,13778,22183,21903,29775,35972,0
0.0,0.0,0.0,13301,21818,21291,29686,36010,0
0.0,0.0,0.0,13068,21711,21043,29716,36047,0
0.0,0.0,0.0,13013,21733,21125,29716,35749,0
0.0,0.0,0.0,12959,21796,21312,29925,35639,0
0.0,0.0,0.0,13013,21882,21584,30105,35639,0
0.0,0.0,0.0,13150,21903,21796,30165,35712,0
0.0,0.0,0.0,13384,21839,21924,30226,35639,0
0.0,0.0,0.0,13594,21818,22226,29865,35712,0
0.0,0.0,0.0,13679,21796,22313,29835,35639,0
0.0,0.0,0.0,13735,21796,22313,29775,35602,0
0.0,0.0,0.0,13806,21818,22401,29865,35712,0
0.0,0.0,0.0,13863,21882,22466,29925,35787,0
0.0,0.0,0.0,13863,21903,22488,29925,35972,0
0.0,0.0,0.0,13964,21882,22510,29865,35898,0
0.0,0.0,0.0,14079,22010,22270,29805,35787,0
0.0,0.0,0.0,14108,21882,22444,29775,35639,0
0.0,0.0,0.0,14137,21882,22423,29657,35712,0
0.0,0.0,0.0,14166,21882,22357,29657,35528,0
0.0,0.0,0.0,14282,21839,22357,29657,35749,0
0.0,0.0,0.0,14326,21839,22401,29597,35824,0
0.0,0.0,0.0,14253,21903,22313,29657,35898,0
0.0,0.0,0.0,14137,21818,22313,29509,35712,0
0.0,0.0,0.0,13964,21818,22313,29509,35861,0
0.0,0.0,0.0,13906,21775,22313,29450,35898,0
0.0,0.0,0.0,13906,21796,22270,29509,36010,0
0.0,0.0,0.0,13921,21796,22292,29450,36010,0
0.0,0.0,0.0,13949,21796,22270,29509,36047,0
0.0,0.0,0.0,13964,21775,22270,29450,36010,0
0.0,0.0,0.0,13921,21796,22226,29421,35972,0
0.0,0.0,0.0,13863,21711,22226,29421,35972,0
0.0,0.0,0.0,13849,21754,22226,29421,35972,0
0.0,0.0,0.0,13806,21754,22183,29391,35861,0
0.0,0.0,0.0,13792,21754,22226,29391,35898,0
0.0,0.0,0.0,13778,21733,22205,29421,35861,0
0.0,0.0,0.0,13764,21754,22183,29421,35861,0
0.0,0.0,0.0,13749,21733,22183,29391,35749,0
0.0,0.0,0.0,13749,21754,22140,29391,35749,0
0.0,0.0,0.0,13749,21711,22161,29333,35749,0
0.0,0.0,0.0,13749,21733,22183,29362,35787,0
0.0,0.0,0.0,13764,21754,22161,29333,35749,0
0.0,0.0,0.0,13749,21733,22140,29333,35639,0
0.0,0.0,0.0,13735,21754,22140,29304,35639,0
0.0,0.0,0.0,13707,21711,22140,29304,35639,0
0.0,0.0,0.0,13707,21733,22140,29274,35602,0
0.0,0.0,0.0,13735,21754,22096,29333,35749,0
0.0,0.0,0.0,13707,21711,22096,29304,35639,0
0.0,0.0,0.0,13735,21711,22096,29304,35749,0
0.0,0.0,0.0,13735,21711,22096,29304,35639,0
0.0,0.0,0.0,13707,21818,22161,29274,35639,0
0.0,0.0,0.0,13679,21796,22140,29274,35639,0
0.0,0.0,0.0,13622,21775,22118,29245,35565,0
0.0,0.0,0.0,13679,21775,22140,29274,35639,0
0.0,0.0,0.0,13679,21796,22075,29216,35565,0
0.0,0.0,0.0,13650,21796,22053,29216,35565,0
0.0,0.0,0.0,13679,21733,22053,29216,35565,0
0.0,0.0,0.0,13679,21733,22118,29274,35565,0
0.0,0.0,0.0,13707,21711,22096,29216,35639,0
0.0,0.0,0.0,13806,21733,22075,29187,35565,0
0.0,0.0,0.0,13849,21711,22053,29216,35492,0
0.0,0.0,0.0,13806,21754,22053,29187,35565,0
0.0,0.0,0.0,13792,21711,22053,29216,35565,0
0.0,0.0,0.0,13806,21690,22053,29216,35528,0
0.0,0.0,0.0,13792,21711,22010,29158,35528,0
0.0,0.0,0.0,13792,21711,22053,29158,35492,0
0.0,0.0,0.0,13821,21754,22075,29129,35382,0
0.0,0.0,0.0,13863,21733,22053,29216,35492,0
0.0,0.0,0.0,13906,21754,22053,29274,35528,0
0.0,0.0,0.0,14007,21839,22053,29274,35602,0
0.0,0.0,0.0,14195,22118,21882,29716,35492,0
0.0,0.0,0.0,14326,22313,21903,29686,35565,0
0.0,0.0,0.0,14681,22488,22010,29391,35602,0
0.0,0.0,0.0,14922,22576,22053,29509,35492,0
0.0,0.0,0.0,15196,22731,22226,29509,35492,0
0.0,0.0,0.0,15366,22887,22466,29657,35528,0
0.0,0.0,0.0,15490,23112,22798,29865,35492,0
0.0,0.0,0.0,15412,23248,22932,29895,35492,0
0.0,0.0,0.0,15196,23316,22977,29984,35639,0
0.0,0.0,0.0,14967,23294,23022,29984,35712,0
0.0,0.0,0.0,14786,23180,22932,29984,35749,0
0.0,0.0,0.0,14696,22977,22798,29865,35749,0
0.0,0.0,0.0,14681,22865,22665,29775,35528,0
0.0,0.0,0.0,14607,22754,22621,29775,35602,0
0.0,0.0,0.0,14518,22754,22599,29746,35492,0
0.0,0.0,0.0,14518,22709,22576,29686,35565,0
0.0,0.0,0.0,14488,22643,22510,29686,35492,0
0.0,0.0,0.0,14488,22599,22576,29627,35418,0
0.0,0.0,0.0,14503,22599,22510,29627,35418,0
0.0,0.0,0.0,14503,22576,22444,29657,35455,0
0.0,0.0,0.0,14429,22532,22488,29509,35418,0
0.0,0.0,0.0,14429,22510,22488,29509,35418,0
0.0,0.0,0.0,14414,22532,22488,29509,35309,0
0.0,0.0,0.0,14429,22488,22488,29509,35272,0
0.0,0.0,0.0,14385,22488,22444,29509,35309,0
0.0,0.0,0.0,14385,22532,22510,29538,35382,0
0.0,0.0,0.0,14399,22423,22488,29538,35382,0
0.0,0.0,0.0,14399,22444,22532,29627,35418,0
0.0,0.0,0.0,14341,22488,22532,29538,35418,0
0.0,0.0,0.0,14326,22444,22488,29627,35309,0
0.0,0.0,0.0,14341,22401,22510,29538,35345,0
0.0,0.0,0.0,14326,22444,22488,29597,35272,0
0.0,0.0,0.0,14311,22444,22488,29627,35382,0
0.0,0.0,0.0,14311,22444,22444,29568,35345,0
0.0,0.0,0.0,14311,22401,22444,29568,35382,0
0.0,0.0,0.0,14282,22401,22423,29509,35345,0
0.0,0.0,0.0,14268,22444,22444,29538,35309,0
0.0,0.0,0.0,14282,22401,22423,29450,35199,0
0.0,0.0,0.0,14311,22423,22444,29509,35163,0
0.0,0.0,0.0,14429,22488,22401,29568,35199,0
0.0,0.0,0.0,14607,22444,22357,29538,35345,0
0.0,0.0,0.0,14666,22488,22401,29568,35345,0
0.0,0.0,0.0,14696,22444,22401,29509,35309,0
0.0,0.0,0.0,14696,22444,22401,29538,35272,0
0.0,0.0,0.0,14696,22401,22335,29538,35272,0
0.0,0.0,0.0,14666,22401,22401,29509,35272,0
0.0,0.0,0.0,14681,22444,22357,29538,35272,0
0.0,0.0,0.0,14636,22401,22357,29509,35236,0
0.0,0.0,0.0,14607,22444,22335,29421,35345,0
0.0,0.0,0.0,14636,22444,22313,29450,35272,0
0.0,0.0,0.0,14607,22466,22313,29450,35345,0
0.0,0.0,0.0,14577,22532,22313,29421,35345,0
0.0,0.0,0.0,14607,22532,22313,29391,35236,0
0.0,0.0,0.0,14636,22510,22357,29421,35345,0
0.0,0.0,0.0,14666,22510,22335,29450,35309,0
0.0,0.0,0.0,14681,22510,22335,29421,35309,0
0.0,0.0,0.0,14636,22599,22313,29421,35309,0
0.0,0.0,0.0,14562,22687,22335,29421,35492,0
0.0,0.0,0.0,14458,23112,22466,29686,35565,0
0.0,0.0,0.0,14064,23135,22843,29984,35492,0
0.0,0.0,0.0,13863,23067,23022,30015,35309,0
0.0,0.0,0.0,13935,23067,22977,29984,35272,0
0.0,0.0,0.0,14137,23022,22955,29984,35055,0
0.0,0.0,0.0,14907,22887,22843,30105,35127,0
0.0,0.0,0.0,15013,22754,22865,29984,35272,0
0.0,0.0,0.0,14937,22687,22843,29925,35272,0
0.0,0.0,0.0,14907,22599,22955,29984,35345,0
0.0,0.0,0.0,14937,22488,23022,29895,35418,0
0.0,0.0,0.0,14907,22357,22977,29925,35272,0
0.0,0.0,0.0,14786,22357,23022,29895,35199,0
0.0,0.0,0.0,14726,22292,22977,29925,35272,0
0.0,0.0,0.0,14786,22226,22887,29925,35272,0
0.0,0.0,0.0,14876,22183,22910,29865,35272,0
0.0,0.0,0.0,14922,22183,22887,29925,35345,0
0.0,0.0,0.0,14952,22205,22932,29865,35382,0
0.0,0.0,0.0,15028,22205,22955,29895,35272,0
0.0,0.0,0.0,14997,22183,22932,29925,35345,0
0.0,0.0,0.0,14967,22161,22887,29925,35418,0
0.0,0.0,0.0,14846,22161,22932,29895,35272,0
0.0,0.0,0.0,14846,22161,22887,29865,35309,0
0.0,0.0,0.0,14876,22226,22887,29865,35199,0
0.0,0.0,0.0,14846,22226,22865,29865,35382,0
0.0,0.0,0.0,14846,22226,22887,29925,35272,0
0.0,0.0,0.0,14937,22205,22843,29865,35382,0
0.0,0.0,0.0,14997,22313,22843,29865,35345,0
0.0,0.0,0.0,15043,22270,22843,29865,35309,0
0.0,0.0,0.0,15089,22335,22754,29865,35272,0
0.0,0.0,0.0,15089,22248,22776,29865,35309,0
0.0,0.0,0.0,15058,22248,22798,29835,35236,0
0.0,0.0,0.0,15028,22292,22776,29865,35236,0
0.0,0.0,0.0,14967,22248,22754,29775,35127,0
0.0,0.0,0.0,14967,22205,22776,29805,35199,0
0.0,0.0,0.0,14922,22226,22731,29865,35199,0
0.0,0.0,0.0,14922,22226,22754,29775,35199,0
0.0,0.0,0.0,14967,22226,22754,29895,35127,0
0.0,0.0,0.0,14907,22270,22709,29746,35272,0
0.0,0.0,0.0,14907,22226,22709,29805,35127,0
0.0,0.0,0.0,14861,22183,22709,29775,35199,0
0.0,0.0,0.0,14907,22226,22709,29805,35127,0
0.0,0.0,0.0,14907,22226,22665,29746,35055,0
0.0,0.0,0.0,14891,22183,22687,29746,35091,0
0.0,0.0,0.0,14907,22205,22754,29746,35163,0
0.0,0.0,0.0,14876,22161,22687,29775,35163,0
0.0,0.0,0.0,14846,22205,22665,29805,35127,0
0.0,0.0,0.0,14876,22183,22709,29775,35127,0
0.0,0.0,0.0,14846,22183,22709,29746,35163,0
0.0,0.0,0.0,14876,22205,22709,29746,35199,0
0.0,0.0,0.0,14846,22183,22731,29775,35127,0
0.0,0.0,0.0,14846,22226,22665,29775,35163,0
0.0,0.0,0.0,14846,22161,22665,29657,34982,0
0.0,0.0,0.0,14846,22183,22665,29746,35127,0
0.0,0.0,0.0,14876,22140,22665,29746,35091,0
0.0,0.0,0.0,14846,22183,22643,29716,34982,0
0.0,0.0,0.0,14846,22140,22665,29775,35055,0
0.0,0.0,0.0,14816,22161,22510,29746,35163,0
0.0,0.0,0.0,14846,22161,22599,29805,35163,0
0.0,0.0,0.0,14846,22183,22599,29686,35055,0
0.0,0.0,0.0,14846,22183,22621,29746,35127,0
0.0,0.0,0.0,14846,22161,22576,29746,35127,0
0.0,0.0,0.0,14801,22140,22576,29686,35018,0
0.0,0.0,0.0,14711,22226,22576,29775,35091,0
0.0,0.0,0.0,14444,22401,22576,29746,35055,0
0.0,0.0,0.0,13921,22665,22709,29686,35055,0
0.0,0.0,0.0,13608,23022,22843,29746,35055,0
0.0,0.0,0.0,13081,23546,22865,29686,35127,0
0.0,0.0,0.0,12756,23707,22932,29716,35127,0
0.0,0.0,0.0,12918,23800,22865,29627,35055,0
0.0,0.0,0.0,13524,23754,22843,29568,35127,0
0.0,0.0,0.0,14224,23894,22865,29509,35055,0
0.0,0.0,0.0,14488,24129,22887,29538,34982,0
0.0,0.0,0.0,14547,24058,22887,29627,35018,0
0.0,0.0,0.0,14562,24081,22865,29568,35055,0
0.0,0.0,0.0,14666,24081,22865,29568,35018,0
0.0,0.0,0.0,14861,24105,22887,29538,34910,0
0.0,0.0,0.0,14922,24058,22932,29568,34982,0
0.0,0.0,0.0,14846,24129,22887,29568,34910,0
0.0,0.0,0.0,14771,24034,22843,29509,34982,0
0.0,0.0,0.0,14756,24058,22843,29509,34982,0
0.0,0.0,0.0,14711,23987,22798,29450,34839,0
0.0,0.0,0.0,14726,23987,22798,29509,34910,0
0.0,0.0,0.0,14696,23940,22798,29391,34982,0
0.0,0.0,0.0,14696,23940,22798,29479,34910,0
0.0,0.0,0.0,14681,23894,22798,29450,34910,0
0.0,0.0,0.0,14726,23940,22776,29450,34839,0
0.0,0.0,0.0,14726,23940,22776,29509,34982,0
0.0,0.0,0.0,14741,23987,22798,29538,34982,0
0.0,0.0,0.0,14666,23940,22843,29568,35018,0
0.0,0.0,0.0,14696,23964,22843,29597,34910,0
0.0,0.0,0.0,14681,23987,22865,29657,34874,0
0.0,0.0,0.0,14666,23987,22843,29627,34910,0
0.0,0.0,0.0,14681,23940,22843,29568,34874,0
0.0,0.0,0.0,14651,23940,22843,29686,34946,0
0.0,0.0,0.0,14636,23894,22865,29627,34982,0
0.0,0.0,0.0,14636,23894,22843,29657,34982,0
0.0,0.0,0.0,14503,23894,22865,29657,35055,0
0.0,0.0,0.0,14547,23824,22932,29686,35091,0
0.0,0.0,0.0,14473,23800,23022,29686,35163,0
0.0,0.0,0.0,14341,23777,22999,29835,35127,0
0.0,0.0,0.0,14253,23661,23044,29895,35091,0
0.0,0.0,0.0,13978,23661,23112,29984,35163,0
0.0,0.0,0.0,13792,23684,23225,30165,35309,0
0.0,0.0,0.0,14137,23615,23522,30377,35749,0
0.0,0.0,0.0,14982,23477,23477,30469,36690,0
0.0,0.0,0.0,15150,23294,23431,30377,36424,0
0.0,0.0,0.0,15058,23271,23316,30286,36348,0
0.0,0.0,0.0,14907,23248,23339,30226,36386,0
0.0,0.0,0.0,14801,23203,23316,30165,36462,0
0.0,0.0,0.0,14666,23203,23294,30165,36499,0
0.0,0.0,0.0,14503,23112,23248,30165,36690,0
0.0,0.0,0.0,14399,23135,23294,30075,36690,0
0.0,0.0,0.0,14326,23112,23248,30105,36499,0
0.0,0.0,0.0,14326,23112,23248,29984,36614,0
0.0,0.0,0.0,14311,23112,23248,30045,36499,0
0.0,0.0,0.0,14268,23067,23248,30015,36538,0
0.0,0.0,0.0,14253,23112,23203,30045,36386,0
0.0,0.0,0.0,14253,23112,23203,29984,36462,0
0.0,0.0,0.0,14209,23112,23225,30015,36499,0
0.0,0.0,0.0,14195,23112,23203,29984,36499,0
0.0,0.0,0.0,14195,23112,23203,30105,36499,0
0.0,0.0,0.0,14108,23112,23135,29984,36310,0
0.0,0.0,0.0,14151,23112,23157,29925,36348,0
0.0,0.0,0.0,14108,23112,23157,29895,36348,0
0.0,0.0,0.0,14137,23067,23180,29984,36462,0
0.0,0.0,0.0,14122,23135,23203,29984,36386,0
0.0,0.0,0.0,14079,23067,23157,29984,36499,0
0.0,0.0,0.0,14050,23090,23203,29925,36424,0
0.0,0.0,0.0,14079,23157,23112,29925,36348,0
0.0,0.0,0.0,14079,23067,23112,29925,36462,0
0.0,0.0,0.0,14079,23067,23135,29925,36348,0
0.0,0.0,0.0,14050,23067,23112,29895,36462,0
0.0,0.0,0.0,14036,23112,23112,29895,36424,0
0.0,0.0,0.0,14079,23067,23112,29925,36386,0
0.0,0.0,0.0,14050,23112,23112,29865,36348,0
0.0,0.0,0.0,14036,23112,23112,29895,36310,0
0.0,0.0,0.0,14050,23112,23112,29895,36310,0
0.0,0.0,0.0,14050,23112,23157,29865,36348,0
0.0,0.0,0.0,14079,23112,23135,29895,36310,0
0.0,0.0,0.0,14021,23112,23112,29805,36272,0
0.0,0.0,0.0,14021,23067,23112,29895,36310,0
0.0,0.0,0.0,13992,23112,23112,29865,36348,0
0.0,0.0,0.0,14021,23067,23112,29865,36235,0
0.0,0.0,0.0,14036,23067,23135,29895,36424,0
0.0,0.0,0.0,14021,23044,23135,29865,36272,0
0.0,0.0,0.0,13978,23022,23067,29865,36235,0
0.0,0.0,0.0,14021,23067,23112,29865,36272,0
0.0,0.0,0.0,14007,23067,23090,29865,36386,0
0.0,0.0,0.0,13978,23067,23112,29805,36310,0
0.0,0.0,0.0,13992,23067,23112,29805,36310,0
0.0,0.0,0.0,13964,23067,23112,29805,36348,0
0.0,0.0,0.0,13949,23067,23044,29805,36310,0
0.0,0.0,0.0,13992,23022,23112,29835,36235,0
0.0,0.0,0.0,14021,23022,23112,29865,36310,0
0.0,0.0,0.0,13978,23022,23022,29686,36272,0
0.0,0.0,0.0,13964,23044,23044,29835,36197,0
0.0,0.0,0.0,13978,23044,23067,29895,36235,0
0.0,0.0,0.0,13964,23022,23044,29775,36235,0
0.0,0.0,0.0,13964,23022,23090,29775,36235,0
0.0,0.0,0.0,13964,23044,23044,29775,36160,0
0.0,0.0,0.0,13978,23067,23067,29865,36197,0
0.0,0.0,0.0,13992,23044,23044,29865,36197,0
0.0,0.0,0.0,13978,23044,23044,29746,36235,0
0.0,0.0,0.0,13964,23022,23022,29805,36160,0
0.0,0.0,0.0,13964,23044,23090,29805,36197,0
0.0,0.0,0.0,13964,23022,23022,29746,36197,0
0.0,0.0,0.0,13964,22977,23044,29805,36197,0
0.0,0.0,0.0,13921,23022,23022,29746,36197,0
0.0,0.0,0.0,13921,22999,23044,29805,36272,0
0.0,0.0,0.0,13935,23044,23044,29805,36197,0
0.0,0.0,0.0,13906,23022,23112,29746,36160,0
0.0,0.0,0.0,13906,22955,22999,29746,36197,0
0.0,0.0,0.0,13906,22999,23044,29746,36235,0
0.0,0.0,0.0,13906,22977,23022,29746,36160,0
0.0,0.0,0.0,13906,22977,23044,29805,36235,0
0.0,0.0,0.0,13892,22955,22999,29746,36197,0
0.0,0.0,0.0,13906,22977,22999,29657,36160,0
0.0,0.0,0.0,13921,22955,22977,29775,36235,0
0.0,0.0,0.0,13892,22955,23022,29775,36310,0
0.0,0.0,0.0,13906,22977,23022,29775,36160,0
0.0,0.0,0.0,13906,22977,22977,29746,36160,0
0.0,0.0,0.0,13921,22955,23022,29746,36235,0
0.0,0.0,0.0,13892,23022,23022,29746,36160,0
0.0,0.0,0.0,13906,22977,22977,29686,36160,0
0.0,0.0,0.0,13906,22977,23022,29746,36160,0
0.0,0.0,0.0,13863,22932,23022,29716,36160,0
0.0,0.0,0.0,13906,22977,22977,29746,36235,0
0.0,0.0,0.0,13892,22977,22999,29746,36197,0
0.0,0.0,0.0,13863,22955,22932,29746,36160,0
0.0,0.0,0.0,13906,22955,22955,29686,36235,0
0.0,0.0,0.0,13892,22955,22999,29746,36197,0
0.0,0.0,0.0,13906,22955,23022,29686,36160,0
0.0,0.0,0.0,13906,22977,22955,29686,36235,0
0.0,0.0,0.0,13906,22932,22932,29716,36160,0
0.0,0.0,0.0,13863,22932,22955,29686,36235,0
0.0,0.0,0.0,13863,22932,22977,29686,36235,0
0.0,0.0,0.0,13863,22955,22932,29746,36160,0
0.0,0.0,0.0,13906,22977,23022,29746,36235,0
0.0,0.0,0.0,13863,22932,22977,29716,36085,0
0.0,0.0,0.0,13906,22977,22977,29716,36160,0
0.0,0.0,0.0,13849,22977,22977,29716,36160,0
0.0,0.0,0.0,13863,22932,22955,29746,36197,0
0.0,0.0,0.0,13863,22932,22955,29746,36160,0
0.0,0.0,0.0,13878,23022,22955,29746,36085,0
0.0,0.0,0.0,13849,22977,22955,29657,36085,0
0.0,0.0,0.0,13863,22932,22955,29686,36047,0
0.0,0.0,0.0,13863,22932,22955,29657,36085,0
0.0,0.0,0.0,13863,22955,22955,29686,36160,0
0.0,0.0,0.0,13863,22932,22955,29657,36160,0
0.0,0.0,0.0,13863,22932,22955,29686,36085,0
0.0,0.0,0.0,13878,22932,22955,29657,36160,0
0.0,0.0,0.0,13849,22932,22932,29716,36160,0
0.0,0.0,0.0,13863,22932,22932,29686,36160,0
0.0,0.0,0.0,13863,22977,22932,29657,36085,0
0.0,0.0,0.0,13906,22955,22955,29686,36047,0
0.0,0.0,0.0,13906,22932,22932,29657,36047,0
0.0,0.0,0.0,13863,22932,22932,29627,36047,0
0.0,0.0,0.0,13964,22932,22932,29627,36047,0
0.0,0.0,0.0,14137,22932,22932,29657,36047,0
0.0,0.0,0.0,14370,22932,22932,29627,36160,0
0.0,0.0,0.0,14592,22843,22887,29627,36085,0
0.0,0.0,0.0,14666,22843,22955,29627,36047,0
0.0,0.0,0.0,14607,22798,22932,29538,36122,0
0.0,0.0,0.0,14488,22843,22887,29509,36122,0
0.0,0.0,0.0,14488,22843,22910,29509,36047,0
0.0,0.0,0.0,14444,22798,22910,29509,36010,0
0.0,0.0,0.0,14458,22798,22865,29509,36085,0
