GyroX,GyroY,GyroZ,Thumb,Index,Middle,Ring,Pinky,Gesture
0.0,0.0,0.0,15916,12346,10003,11453,22140,4
0.0,0.0,0.0,15916,12320,10003,11453,22075,4
0.0,0.0,0.0,15900,12346,10014,11465,22053,4
0.0,0.0,0.0,15916,12346,10026,11478,22140,4
0.0,0.0,0.0,15900,12424,10037,11453,22096,4
0.0,0.0,0.0,15916,12398,10049,11453,22140,4
0.0,0.0,0.0,15948,12424,10037,11453,22118,4
0.0,0.0,0.0,15948,12438,10037,11478,22161,4
0.0,0.0,0.0,15932,12477,10049,11478,22096,4
0.0,0.0,0.0,15932,12464,10026,11528,22161,4
0.0,0.0,0.0,15932,12438,10049,11528,22140,4
0.0,0.0,0.0,15916,12451,10049,11528,22183,4
0.0,0.0,0.0,15932,12477,10049,11528,22183,4
0.0,0.0,0.0,15948,12477,10037,11528,22161,4
0.0,0.0,0.0,16044,12438,10026,11553,22357,4
0.0,0.0,0.0,16109,12477,10071,11578,22444,4
0.0,0.0,0.0,16417,12477,10060,11653,22865,4
0.0,0.0,0.0,16450,12477,10071,11653,22910,4
0.0,0.0,0.0,16417,12477,10094,11653,22843,4
0.0,0.0,0.0,16352,12451,10071,11665,22865,4
0.0,0.0,0.0,16352,12477,10071,11665,22798,4
0.0,0.0,0.0,16319,12477,10071,11665,22776,4
0.0,0.0,0.0,16287,12477,10083,11678,22798,4
0.0,0.0,0.0,16254,12477,10083,11678,22709,4
0.0,0.0,0.0,16238,12490,10071,11678,22665,4
0.0,0.0,0.0,16222,12490,10071,11703,22621,4
0.0,0.0,0.0,16173,12504,10071,11728,22621,4
0.0,0.0,0.0,16173,12477,10083,11728,22599,4
0.0,0.0,0.0,16173,12477,10071,11741,22621,4
0.0,0.0,0.0,16157,12477,10071,11754,22599,4
0.0,0.0,0.0,16157,12477,10071,11703,22576,4
0.0,0.0,0.0,16157,12477,10071,11741,22599,4
0.0,0.0,0.0,16173,12451,10071,11716,22576,4
0.0,0.0,0.0,16173,12477,10083,11728,22576,4
0.0,0.0,0.0,16238,12490,10071,11728,22532,4
0.0,0.0,0.0,16173,12504,10071,11716,22576,4
0.0,0.0,0.0,16189,12530,10071,11728,22510,4
0.0,0.0,0.0,16157,12530,10094,11703,22576,4
0.0,0.0,0.0,16157,12530,10071,11728,22554,4
0.0,0.0,0.0,16173,12530,10083,11754,22532,4
0.0,0.0,0.0,16157,12504,10083,11728,22532,4
0.0,0.0,0.0,16157,12530,10094,11766,22532,4
0.0,0.0,0.0,16157,12530,10083,11754,22488,4
0.0,0.0,0.0,16157,12556,10071,11754,22510,4
0.0,0.0,0.0,16206,12583,10094,11754,22510,4
0.0,0.0,0.0,16222,12583,10129,11754,22576,4
0.0,0.0,0.0,16157,12636,10140,11754,22488,4
0.0,0.0,0.0,16189,12636,10140,11754,22576,4
0.0,0.0,0.0,16189,12690,10163,11754,22532,4
0.0,0.0,0.0,16157,12663,10163,11779,22576,4
0.0,0.0,0.0,16157,12716,10174,11754,22532,4
0.0,0.0,0.0,16157,12690,10209,11779,22554,4
0.0,0.0,0.0,16189,12649,10163,11779,22532,4
0.0,0.0,0.0,16206,12690,10163,11779,22576,4
0.0,0.0,0.0,16173,12690,10174,11766,22599,4
0.0,0.0,0.0,16173,12716,10174,11779,22599,4
0.0,0.0,0.0,16157,12716,10174,11779,22599,4
0.0,0.0,0.0,16222,12716,10174,11804,22599,4
0.0,0.0,0.0,16173,12743,10174,11817,22643,4
0.0,0.0,0.0,16222,12743,10209,11804,22621,4
0.0,0.0,0.0,16222,12716,10163,11830,22599,4
0.0,0.0,0.0,16173,12730,10174,11817,22576,4
0.0,0.0,0.0,16222,12743,10174,11868,22621,4
0.0,0.0,0.0,16222,12716,10163,11855,22576,4
0.0,0.0,0.0,16189,12703,10174,11881,22621,4
0.0,0.0,0.0,16157,12743,10174,11881,22576,4
0.0,0.0,0.0,16206,12756,10186,11906,22621,4
0.0,0.0,0.0,16222,12716,10174,11932,22665,4
0.0,0.0,0.0,16206,12716,10163,11957,22599,4
0.0,0.0,0.0,16222,12716,10186,11970,22554,4
0.0,0.0,0.0,16189,12690,10174,12009,22576,4
0.0,0.0,0.0,16173,12690,10174,11996,22532,4
0.0,0.0,0.0,16222,12703,10174,12009,22576,4
0.0,0.0,0.0,16222,12690,10174,12009,22576,4
0.0,0.0,0.0,16222,12690,10174,12009,22576,4
0.0,0.0,0.0,16222,12690,10209,12009,22532,4
0.0,0.0,0.0,16222,12690,10232,11919,22510,4
0.0,0.0,0.0,16238,12703,10255,11817,22466,4
0.0,0.0,0.0,16238,12690,10255,11779,22401,4
0.0,0.0,0.0,16238,12703,10267,11766,22401,4
0.0,0.0,0.0,16238,12690,10278,11766,22401,4
0.0,0.0,0.0,16222,12716,10267,11766,22401,4
0.0,0.0,0.0,16238,12690,10267,11754,22401,4
0.0,0.0,0.0,16222,12690,10301,11728,22357,4
0.0,0.0,0.0,16222,12690,10301,11754,22357,4
0.0,0.0,0.0,16189,12703,10278,11754,22335,4
0.0,0.0,0.0,16125,12676,10290,11804,22488,4
0.0,0.0,0.0,16189,12690,10267,11779,22444,4
0.0,0.0,0.0,16173,12676,10301,11792,22510,4
0.0,0.0,0.0,16173,12703,10255,11817,22510,4
0.0,0.0,0.0,16173,12703,10278,11804,22488,4
0.0,0.0,0.0,16189,12690,10267,11804,22576,4
0.0,0.0,0.0,16222,12690,10267,11804,22532,4
0.0,0.0,0.0,16189,12649,10267,11855,22510,4
0.0,0.0,0.0,16222,12703,10255,11855,22488,4
0.0,0.0,0.0,16189,12690,10267,11868,22532,4
0.0,0.0,0.0,16222,12743,10255,11868,22488,4
0.0,0.0,0.0,16222,12743,10267,11881,22488,4
0.0,0.0,0.0,16173,12716,10255,11881,22510,4
0.0,0.0,0.0,16189,12743,10255,11906,22488,4
0.0,0.0,0.0,16157,12756,10278,11919,22444,4
0.0,0.0,0.0,16093,12743,10267,11906,22466,4
0.0,0.0,0.0,16109,12797,10255,11919,22466,4
0.0,0.0,0.0,16093,12756,10267,11906,22488,4
0.0,0.0,0.0,16093,12743,10255,11957,22488,4
0.0,0.0,0.0,16125,12756,10278,12009,22510,4
0.0,0.0,0.0,16157,12770,10255,12021,22532,4
0.0,0.0,0.0,16125,12756,10255,12073,22576,4
0.0,0.0,0.0,16141,12756,10267,12086,22576,4
0.0,0.0,0.0,16157,12743,10267,12086,22576,4
0.0,0.0,0.0,16157,12743,10278,12124,22599,4
0.0,0.0,0.0,16157,12703,10255,12163,22621,4
0.0,0.0,0.0,16157,12716,10267,12176,22643,4
0.0,0.0,0.0,16189,12743,10255,12215,22621,4
0.0,0.0,0.0,16157,12743,10267,12176,22576,4
0.0,0.0,0.0,16157,12743,10255,12228,22665,4
0.0,0.0,0.0,16173,12703,10301,12267,22621,4
0.0,0.0,0.0,16157,12716,10267,12280,22665,4
0.0,0.0,0.0,16125,12743,10255,12320,22754,4
0.0,0.0,0.0,16173,12743,10278,12320,22709,4
0.0,0.0,0.0,16125,12756,10290,12320,22709,4
0.0,0.0,0.0,16141,12743,10290,12320,22665,4
0.0,0.0,0.0,16141,12716,10278,12346,22687,4
0.0,0.0,0.0,16157,12756,10290,12333,22709,4
0.0,0.0,0.0,16141,12716,10278,12372,22754,4
0.0,0.0,0.0,16157,12716,10301,12398,22754,4
0.0,0.0,0.0,16141,12743,10278,12398,22754,4
0.0,0.0,0.0,16125,12743,10301,12385,22820,4
0.0,0.0,0.0,16125,12743,10301,12424,22798,4
0.0,0.0,0.0,16157,12770,10267,12411,22843,4
0.0,0.0,0.0,16125,12756,10290,12438,22820,4
0.0,0.0,0.0,16093,12743,10301,12424,22843,4
0.0,0.0,0.0,16141,12756,10301,12438,22798,4
0.0,0.0,0.0,16125,12756,10301,12451,22820,4
0.0,0.0,0.0,16157,12756,10301,12424,22776,4
0.0,0.0,0.0,16157,12770,10301,12424,22798,4
0.0,0.0,0.0,16206,12770,10301,12438,22843,4
0.0,0.0,0.0,16206,12756,10301,12477,22887,4
0.0,0.0,0.0,16189,12743,10301,12477,22865,4
0.0,0.0,0.0,16173,12743,10301,12477,22865,4
0.0,0.0,0.0,16222,12756,10301,12477,22865,4
0.0,0.0,0.0,16173,12770,10301,12424,22798,4
0.0,0.0,0.0,16173,12770,10348,12293,22754,4
0.0,0.0,0.0,16157,12743,10406,12060,22599,4
0.0,0.0,0.0,16222,12770,10488,11855,22576,4
0.0,0.0,0.0,16417,12716,10641,11728,22932,4
0.0,0.0,0.0,16549,12703,10724,11678,23022,4
0.0,0.0,0.0,16582,12690,10748,11665,22977,4
0.0,0.0,0.0,16598,12636,10748,11628,22977,4
0.0,0.0,0.0,16565,12583,10748,11603,23022,4
0.0,0.0,0.0,16565,12530,10700,11553,23022,4
0.0,0.0,0.0,16549,12556,10582,11515,22932,4
0.0,0.0,0.0,16499,12583,10464,11503,22932,4
0.0,0.0,0.0,16499,12636,10441,11503,22843,4
0.0,0.0,0.0,16467,12690,10429,11503,22798,4
0.0,0.0,0.0,16499,12703,10418,11503,22798,4
0.0,0.0,0.0,16483,12690,10488,11515,22776,4
0.0,0.0,0.0,16483,12690,10535,11503,22798,4
0.0,0.0,0.0,16483,12703,10582,11478,22843,4
0.0,0.0,0.0,16450,12703,10582,11515,22843,4
0.0,0.0,0.0,16499,12743,10546,11503,22887,4
0.0,0.0,0.0,16483,12770,10582,11528,22999,4
0.0,0.0,0.0,16549,12824,10535,11528,23022,4
0.0,0.0,0.0,16615,12810,10511,11553,23067,4
0.0,0.0,0.0,16648,12864,10511,11553,23022,4
0.0,0.0,0.0,16665,12891,10499,11565,23067,4
0.0,0.0,0.0,16615,12945,10488,11553,22932,4
0.0,0.0,0.0,16582,12959,10488,11553,22932,4
0.0,0.0,0.0,16549,12932,10476,11628,22910,4
0.0,0.0,0.0,16499,12959,10488,11603,22977,4
0.0,0.0,0.0,16483,12945,10488,11653,22977,4
0.0,0.0,0.0,16516,12945,10464,11615,22932,4
0.0,0.0,0.0,16483,12959,10464,11653,22865,4
0.0,0.0,0.0,16483,12945,10464,11628,22887,4
0.0,0.0,0.0,16483,12972,10488,11653,22865,4
0.0,0.0,0.0,16516,12932,10488,11653,22932,4
0.0,0.0,0.0,16483,12959,10464,11703,22932,4
0.0,0.0,0.0,16483,12945,10488,11703,22887,4
0.0,0.0,0.0,16467,12959,10488,11703,22843,4
0.0,0.0,0.0,16483,12959,10464,11678,22843,4
0.0,0.0,0.0,16450,12959,10464,11728,22865,4
0.0,0.0,0.0,16450,12959,10476,11716,22843,4
0.0,0.0,0.0,16450,12959,10453,11741,22798,4
0.0,0.0,0.0,16417,12932,10488,11754,22798,4
0.0,0.0,0.0,16417,12932,10476,11716,22798,4
0.0,0.0,0.0,16385,12905,10453,11728,22798,4
0.0,0.0,0.0,16434,12932,10488,11779,22843,4
0.0,0.0,0.0,16549,12918,10511,11766,22843,4
0.0,0.0,0.0,16615,12851,10546,11804,23180,4
0.0,0.0,0.0,16748,12851,10582,11779,23431,4
0.0,0.0,0.0,16831,12878,10653,11766,23477,4
0.0,0.0,0.0,16831,12851,10641,11766,23431,4
0.0,0.0,0.0,16815,12959,10688,11779,23316,4
0.0,0.0,0.0,16781,13081,10748,11779,23203,4
0.0,0.0,0.0,16681,13177,10867,11804,23203,4
0.0,0.0,0.0,16516,13246,11012,11817,23180,4
0.0,0.0,0.0,16434,13246,11024,11779,23112,4
0.0,0.0,0.0,16319,13191,10987,11703,23112,4
0.0,0.0,0.0,16303,13246,10975,11703,23157,4
0.0,0.0,0.0,16189,13371,11012,11754,23180,4
0.0,0.0,0.0,16028,13468,11084,11830,23203,4
0.0,0.0,0.0,15837,13482,11133,11855,23067,4
0.0,0.0,0.0,15741,13468,11133,11855,23022,4
0.0,0.0,0.0,15726,13260,11133,11855,23022,4
0.0,0.0,0.0,15663,13205,11109,11817,22977,4
0.0,0.0,0.0,15537,13177,11109,11804,23022,4
0.0,0.0,0.0,15521,13191,11060,11779,22955,4
0.0,0.0,0.0,15490,13177,11036,11766,22932,4
0.0,0.0,0.0,15600,13191,11012,11779,23408,4
0.0,0.0,0.0,15932,13122,11012,11932,24799,4
0.0,0.0,0.0,15964,12959,10927,12009,24995,4
0.0,0.0,0.0,15964,12864,10891,12060,24995,4
0.0,0.0,0.0,15996,12851,10879,12060,24946,4
0.0,0.0,0.0,16028,12797,10867,12034,24995,4
0.0,0.0,0.0,15964,12851,10879,11996,24751,4
0.0,0.0,0.0,15868,12851,10867,11970,24462,4
0.0,0.0,0.0,15852,12864,10867,11957,24414,4
0.0,0.0,0.0,15900,12878,10867,11957,24366,4
0.0,0.0,0.0,15852,12878,10867,11919,24318,4
0.0,0.0,0.0,15837,12878,10867,11957,24366,4
0.0,0.0,0.0,15837,12851,10867,11919,24342,4
0.0,0.0,0.0,15868,12864,10867,11932,24318,4
0.0,0.0,0.0,15789,12878,10867,11932,24318,4
0.0,0.0,0.0,15805,12878,10867,11906,24152,4
0.0,0.0,0.0,15805,12864,10867,11881,24223,4
0.0,0.0,0.0,15789,12878,10867,11868,24129,4
0.0,0.0,0.0,15773,12905,10855,11881,24129,4
0.0,0.0,0.0,15773,12905,10867,11906,24034,4
0.0,0.0,0.0,15726,12905,10867,11868,24129,4
0.0,0.0,0.0,15741,12918,10867,11881,24081,4
0.0,0.0,0.0,15726,12918,10879,11868,24081,4
0.0,0.0,0.0,15726,12959,10891,11868,24081,4
0.0,0.0,0.0,15726,12918,10879,11868,24081,4
0.0,0.0,0.0,15710,12905,10879,11893,24081,4
0.0,0.0,0.0,15694,12905,10891,11906,24129,4
0.0,0.0,0.0,15710,12905,10891,11868,24129,4
0.0,0.0,0.0,15726,12891,10891,11906,24034,4
0.0,0.0,0.0,15678,12878,10879,11893,24081,4
0.0,0.0,0.0,15710,12905,10891,11868,24034,4
0.0,0.0,0.0,15726,12905,10891,11881,24058,4
0.0,0.0,0.0,15710,12905,10915,11881,24081,4
0.0,0.0,0.0,15726,12905,10915,11881,24081,4
0.0,0.0,0.0,15726,12905,10891,11868,23987,4
0.0,0.0,0.0,15726,12905,10915,11906,24034,4
0.0,0.0,0.0,15741,12905,10915,11906,24034,4
0.0,0.0,0.0,15710,12905,10915,11919,24058,4
0.0,0.0,0.0,15726,12905,10915,11906,24058,4
0.0,0.0,0.0,15773,12918,10915,11906,23964,4
0.0,0.0,0.0,15726,12905,10915,11932,24034,4
0.0,0.0,0.0,15773,12918,10915,11919,23964,4
0.0,0.0,0.0,15741,12905,10915,11932,23987,4
0.0,0.0,0.0,15757,12918,10927,11919,23964,4
0.0,0.0,0.0,15710,12905,10915,11919,23940,4
0.0,0.0,0.0,15710,12905,10915,11932,23940,4
0.0,0.0,0.0,15773,12905,10891,11855,23894,4
0.0,0.0,0.0,15773,12878,10867,11855,23824,4
0.0,0.0,0.0,15741,12905,10819,11817,23824,4
0.0,0.0,0.0,15741,12878,10819,11792,23824,4
0.0,0.0,0.0,15694,12905,10819,11779,23754,4
0.0,0.0,0.0,15710,12878,10819,11804,23800,4
0.0,0.0,0.0,15678,12878,10819,11804,23754,4
0.0,0.0,0.0,15663,12878,10831,11792,23800,4
0.0,0.0,0.0,15647,12878,10831,11804,23754,4
0.0,0.0,0.0,15663,12905,10831,11804,23707,4
0.0,0.0,0.0,15647,12878,10819,11804,23754,4
0.0,0.0,0.0,15647,12864,10831,11817,23707,4
0.0,0.0,0.0,15647,12905,10831,11804,23707,4
0.0,0.0,0.0,15647,12905,10831,11817,23707,4
0.0,0.0,0.0,15647,12864,10819,11804,23754,4
0.0,0.0,0.0,15600,12905,10819,11804,23754,4
0.0,0.0,0.0,15663,12864,10819,11804,23707,4
0.0,0.0,0.0,15710,12864,10819,11779,23707,4
0.0,0.0,0.0,15710,12864,10795,11754,23684,4
0.0,0.0,0.0,15710,12851,10795,11754,23661,4
0.0,0.0,0.0,15710,12878,10819,11754,23615,4
0.0,0.0,0.0,15710,12851,10783,11754,23661,4
0.0,0.0,0.0,15710,12851,10783,11754,23569,4
0.0,0.0,0.0,15741,12851,10795,11754,23730,4
0.0,0.0,0.0,15852,12824,10831,11779,23824,4
0.0,0.0,0.0,15789,12810,10819,11779,23800,4
0.0,0.0,0.0,15789,12797,10795,11754,23684,4
0.0,0.0,0.0,15821,12824,10795,11728,23661,4
0.0,0.0,0.0,15789,12851,10783,11703,23592,4
0.0,0.0,0.0,15789,12824,10771,11678,23569,4
0.0,0.0,0.0,15789,12810,10771,11678,23638,4
0.0,0.0,0.0,15837,12797,10771,11703,24011,4
0.0,0.0,0.0,16060,12716,10771,11703,24366,4
0.0,0.0,0.0,16549,12385,10724,11855,25167,4
0.0,0.0,0.0,16831,11983,10629,12060,25717,4
0.0,0.0,0.0,17050,11754,10511,12112,25793,4
0.0,0.0,0.0,17016,11754,10441,11983,25591,4
0.0,0.0,0.0,16765,11804,10371,11817,25118,4
0.0,0.0,0.0,16483,11983,10301,11578,24727,4
0.0,0.0,0.0,16319,12189,10348,11515,24558,4
0.0,0.0,0.0,16222,12385,10441,11416,24510,4
0.0,0.0,0.0,16173,12504,10511,11403,24414,4
0.0,0.0,0.0,16076,12543,10535,11379,24271,4
0.0,0.0,0.0,15996,12504,10535,11354,24176,4
0.0,0.0,0.0,15948,12490,10535,11354,24129,4
0.0,0.0,0.0,15900,12477,10535,11329,24034,4
0.0,0.0,0.0,15868,12477,10511,11304,24034,4
0.0,0.0,0.0,15805,12451,10511,11304,23987,4
0.0,0.0,0.0,15726,12424,10499,11304,24011,4
0.0,0.0,0.0,15694,12346,10535,11304,24081,4
0.0,0.0,0.0,15647,12320,10511,11317,24129,4
0.0,0.0,0.0,15710,12267,10499,11329,24034,4
0.0,0.0,0.0,15678,12228,10511,11354,24081,4
0.0,0.0,0.0,15678,12241,10511,11366,24034,4
0.0,0.0,0.0,15678,12228,10488,11366,24081,4
0.0,0.0,0.0,15726,12215,10511,11403,24152,4
0.0,0.0,0.0,15852,12189,10535,11453,24318,4
0.0,0.0,0.0,15980,12176,10535,11428,24366,4
0.0,0.0,0.0,15996,12163,10523,11428,24390,4
0.0,0.0,0.0,15996,12112,10523,11403,24318,4
0.0,0.0,0.0,15996,12124,10499,11403,24294,4
0.0,0.0,0.0,16028,12137,10511,11403,24176,4
0.0,0.0,0.0,16028,12137,10488,11354,24129,4
0.0,0.0,0.0,16060,12163,10453,11304,24034,4
0.0,0.0,0.0,16060,12228,10441,11304,24058,4
0.0,0.0,0.0,16093,12267,10464,11304,24034,4
0.0,0.0,0.0,16028,12215,10464,11292,23987,4
0.0,0.0,0.0,16028,12228,10453,11304,23987,4
0.0,0.0,0.0,16044,12189,10441,11280,23940,4
0.0,0.0,0.0,15996,12176,10441,11304,23894,4
0.0,0.0,0.0,16028,12189,10453,11280,23894,4
0.0,0.0,0.0,15996,12176,10441,11280,23894,4
0.0,0.0,0.0,15980,12163,10441,11304,23870,4
0.0,0.0,0.0,15964,12163,10441,11268,23940,4
0.0,0.0,0.0,15964,12163,10441,11280,23894,4
0.0,0.0,0.0,15916,12176,10453,11317,23987,4
0.0,0.0,0.0,15868,12189,10476,11416,24129,4
0.0,0.0,0.0,15868,12176,10441,11416,23940,4
0.0,0.0,0.0,15837,12163,10453,11416,23917,4
0.0,0.0,0.0,15837,12189,10453,11403,23847,4
0.0,0.0,0.0,15789,12163,10453,11403,23894,4
0.0,0.0,0.0,15837,12163,10464,11403,23894,4
0.0,0.0,0.0,15789,12189,10464,11403,23870,4
0.0,0.0,0.0,15805,12176,10453,11403,23870,4
0.0,0.0,0.0,15773,12163,10441,11403,23964,4
0.0,0.0,0.0,15773,12124,10441,11379,23847,4
0.0,0.0,0.0,15773,12163,10441,11329,23754,4
0.0,0.0,0.0,15773,12124,10441,11304,23754,4
0.0,0.0,0.0,15789,12124,10441,11304,23754,4
0.0,0.0,0.0,15773,12163,10441,11292,23684,4
0.0,0.0,0.0,15773,12112,10441,11304,23592,4
0.0,0.0,0.0,15789,12086,10441,11280,23592,4
0.0,0.0,0.0,15773,12112,10418,11280,23615,4
0.0,0.0,0.0,15773,12073,10441,11280,23615,4
0.0,0.0,0.0,15741,12086,10406,11268,23615,4
0.0,0.0,0.0,15710,12086,10429,11280,23592,4
0.0,0.0,0.0,15741,12112,10429,11268,23569,4
0.0,0.0,0.0,15789,12112,10406,11255,23569,4
0.0,0.0,0.0,15868,12112,10394,11268,23661,4
0.0,0.0,0.0,15852,12086,10394,11255,23592,4
0.0,0.0,0.0,15900,12112,10406,11255,23499,4
0.0,0.0,0.0,15868,12112,10394,11255,23477,4
0.0,0.0,0.0,15852,12112,10371,11255,23522,4
0.0,0.0,0.0,15868,12112,10383,11243,23522,4
0.0,0.0,0.0,15837,12112,10359,11231,23522,4
0.0,0.0,0.0,15837,12112,10371,11219,23499,4
0.0,0.0,0.0,15868,12150,10325,11219,23477,4
0.0,0.0,0.0,15868,12215,10348,11206,23522,4
0.0,0.0,0.0,15837,12215,10336,11194,23477,4
0.0,0.0,0.0,15789,12215,10313,11206,23431,4
0.0,0.0,0.0,15773,12189,10348,11206,23408,4
0.0,0.0,0.0,15757,12215,10348,11255,23522,4
0.0,0.0,0.0,15710,12202,10348,11268,23522,4
0.0,0.0,0.0,15710,12202,10371,11280,23546,4
0.0,0.0,0.0,15789,12176,10394,11317,23615,4
0.0,0.0,0.0,15868,12202,10406,11304,23661,4
0.0,0.0,0.0,16060,12280,10394,11354,23800,4
0.0,0.0,0.0,16093,12267,10301,11366,23940,4
0.0,0.0,0.0,16125,12137,10209,11379,23987,4
0.0,0.0,0.0,16093,12021,10209,11403,23894,4
0.0,0.0,0.0,16093,12034,10174,11416,23754,4
0.0,0.0,0.0,16060,12009,10221,11465,23707,4
0.0,0.0,0.0,16060,11970,10232,11804,23940,4
0.0,0.0,0.0,16238,11932,10301,12267,24366,4
0.0,0.0,0.0,16254,11957,10348,12267,24318,4
0.0,0.0,0.0,16254,11906,10371,12034,24058,4
0.0,0.0,0.0,16222,11881,10371,11932,23940,4
0.0,0.0,0.0,16222,11855,10371,11893,23940,4
0.0,0.0,0.0,16319,11804,10359,11855,24011,4
0.0,0.0,0.0,16303,11754,10348,11804,23870,4
0.0,0.0,0.0,16417,11728,10325,11804,23870,4
0.0,0.0,0.0,16434,11653,10301,11779,23894,4
0.0,0.0,0.0,16368,11603,10255,11766,23847,4
0.0,0.0,0.0,16287,11578,10221,11653,23754,4
0.0,0.0,0.0,16287,11528,10209,11578,23707,4
0.0,0.0,0.0,16189,11490,10163,11528,23661,4
0.0,0.0,0.0,16125,11403,10083,11453,23684,4
0.0,0.0,0.0,16109,11403,9980,11354,23522,4
0.0,0.0,0.0,16093,11379,9901,11317,23477,4
0.0,0.0,0.0,16093,11366,9867,11329,23477,4
0.0,0.0,0.0,15980,11354,9856,11304,23431,4
0.0,0.0,0.0,15932,11329,9878,11304,23385,4
0.0,0.0,0.0,15868,11304,9856,11280,23294,4
0.0,0.0,0.0,15900,11304,9766,11280,23339,4
0.0,0.0,0.0,15852,11317,9710,11268,23248,4
0.0,0.0,0.0,15837,11304,9721,11268,23225,4
0.0,0.0,0.0,15884,11317,9721,11268,23203,4
0.0,0.0,0.0,15852,11317,9755,11304,23135,4
0.0,0.0,0.0,15868,11354,9755,11366,23157,4
0.0,0.0,0.0,15900,11354,9744,11403,23271,4
0.0,0.0,0.0,15916,11341,9755,11453,23294,4
0.0,0.0,0.0,15932,11354,9800,11528,23431,4
0.0,0.0,0.0,15932,11354,9766,11578,23339,4
0.0,0.0,0.0,15932,11354,9766,11615,23385,4
0.0,0.0,0.0,15916,11379,9755,11716,23431,4
0.0,0.0,0.0,15916,11354,9755,11792,23385,4
0.0,0.0,0.0,15916,11379,9755,11804,23431,4
0.0,0.0,0.0,15916,11366,9766,11804,23385,4
0.0,0.0,0.0,15868,11403,9755,11754,23385,4
0.0,0.0,0.0,15789,11354,9755,11703,23316,4
0.0,0.0,0.0,15773,11403,9788,11754,23339,4
0.0,0.0,0.0,15837,11379,9777,11868,23339,4
0.0,0.0,0.0,15789,11379,9766,11932,23339,4
0.0,0.0,0.0,15773,11403,9766,11906,23431,4
0.0,0.0,0.0,15773,11379,9755,11906,23385,4
0.0,0.0,0.0,15773,11354,9755,11906,23385,4
0.0,0.0,0.0,15710,11379,9755,12021,23431,4
0.0,0.0,0.0,15678,11366,9766,12112,23499,4
0.0,0.0,0.0,15710,11379,9755,12112,23569,4
0.0,0.0,0.0,15678,11379,9755,12060,23477,4
0.0,0.0,0.0,15710,11379,9744,11906,23385,4
0.0,0.0,0.0,15710,11403,9755,11766,23339,4
0.0,0.0,0.0,15741,11366,9755,11716,23294,4
0.0,0.0,0.0,15726,11379,9777,11653,23294,4
0.0,0.0,0.0,15757,11379,9800,11553,23203,4
0.0,0.0,0.0,15773,11379,9777,11503,23157,4
0.0,0.0,0.0,15773,11403,9800,11478,23067,4
0.0,0.0,0.0,15694,11391,9777,11453,23112,4
0.0,0.0,0.0,15663,11403,9766,11453,23044,4
0.0,0.0,0.0,15663,11403,9800,11428,23044,4
0.0,0.0,0.0,15647,11403,9777,11416,23022,4
0.0,0.0,0.0,15647,11403,9733,11403,23022,4
0.0,0.0,0.0,15615,11416,9710,11354,22977,4
0.0,0.0,0.0,15600,11403,9710,11329,22887,4
0.0,0.0,0.0,15600,11416,9699,11304,22865,4
0.0,0.0,0.0,15584,11416,9688,11317,22865,4
0.0,0.0,0.0,15584,11416,9677,11304,22776,4
0.0,0.0,0.0,15553,11416,9688,11304,22865,4
0.0,0.0,0.0,15584,11428,9688,11304,22798,4
0.0,0.0,0.0,15553,11428,9688,11268,22865,4
0.0,0.0,0.0,15584,11440,9688,11280,22798,4
0.0,0.0,0.0,15553,11416,9710,11280,22865,4
0.0,0.0,0.0,15553,11416,9710,11280,22843,4
0.0,0.0,0.0,15537,11453,9710,11268,22843,4
0.0,0.0,0.0,15521,11503,9710,11280,22776,4
0.0,0.0,0.0,15553,11490,9710,11280,22754,4
0.0,0.0,0.0,15521,11490,9721,11268,22754,4
0.0,0.0,0.0,15521,11503,9721,11304,22754,4
0.0,0.0,0.0,15521,11503,9721,11280,22731,4
0.0,0.0,0.0,15521,11503,9710,11268,22709,4
0.0,0.0,0.0,15506,11503,9710,11268,22665,4
0.0,0.0,0.0,15521,11503,9710,11268,22665,4
0.0,0.0,0.0,15521,11503,9710,11255,22621,4
0.0,0.0,0.0,15521,11528,9721,11243,22576,4
0.0,0.0,0.0,15521,11553,9721,11255,22621,4
0.0,0.0,0.0,15475,11528,9721,11268,22621,4
0.0,0.0,0.0,15490,11553,9721,11255,22576,4
0.0,0.0,0.0,15475,11528,9721,11268,22665,4
0.0,0.0,0.0,15490,11503,9710,11268,22665,4
0.0,0.0,0.0,15475,11553,9721,11255,22665,4
0.0,0.0,0.0,15490,11553,9710,11255,22599,4
0.0,0.0,0.0,15459,11553,9710,11255,22599,4
0.0,0.0,0.0,15475,11578,9721,11268,22576,4
0.0,0.0,0.0,15475,11565,9721,11268,22576,4
0.0,0.0,0.0,15475,11590,9733,11280,22576,4
0.0,0.0,0.0,15459,11590,9721,11280,22576,4
0.0,0.0,0.0,15490,11578,9721,11292,22510,4
0.0,0.0,0.0,15459,11603,9733,11292,22532,4
0.0,0.0,0.0,15490,11603,9733,11304,22488,4
0.0,0.0,0.0,15475,11628,9721,11304,22444,4
0.0,0.0,0.0,15475,11628,9777,11304,22444,4
0.0,0.0,0.0,15459,11653,9755,11304,22423,4
0.0,0.0,0.0,15459,11653,9766,11304,22423,4
0.0,0.0,0.0,15459,11653,9755,11304,22401,4
0.0,0.0,0.0,15459,11653,9755,11280,22401,4
0.0,0.0,0.0,15459,11653,9755,11268,22357,4
0.0,0.0,0.0,15459,11653,9755,11304,22401,4
0.0,0.0,0.0,15428,11653,9755,11255,22335,4
0.0,0.0,0.0,15428,11665,9755,11268,22379,4
0.0,0.0,0.0,15428,11665,9755,11280,22357,4
0.0,0.0,0.0,15428,11653,9766,11280,22313,4
0.0,0.0,0.0,15428,11653,9777,11268,22313,4
0.0,0.0,0.0,15428,11665,9766,11268,22357,4
0.0,0.0,0.0,15428,11703,9766,11268,22357,4
0.0,0.0,0.0,15428,11703,9755,11280,22357,4
0.0,0.0,0.0,15459,11703,9766,11304,22379,4
0.0,0.0,0.0,15459,11703,9755,11317,22401,4
0.0,0.0,0.0,15428,11665,9755,11354,22401,4
0.0,0.0,0.0,15475,11678,9755,11354,22444,4
0.0,0.0,0.0,15459,11703,9755,11354,22444,4
0.0,0.0,0.0,15459,11691,9755,11354,22423,4
0.0,0.0,0.0,15475,11703,9755,11354,22444,4
0.0,0.0,0.0,15475,11703,9766,11354,22444,4
0.0,0.0,0.0,15475,11703,9755,11354,22444,4
0.0,0.0,0.0,15490,11741,9766,11354,22401,4
0.0,0.0,0.0,15459,11716,9755,11354,22444,4
0.0,0.0,0.0,15459,11728,9766,11354,22401,4
0.0,0.0,0.0,15475,11691,9755,11354,22444,4
0.0,0.0,0.0,15475,11703,9766,11354,22444,4
0.0,0.0,0.0,15506,11665,9755,11354,22444,4
0.0,0.0,0.0,15475,11703,9755,11354,22444,4
0.0,0.0,0.0,15475,11703,9755,11354,22423,4
0.0,0.0,0.0,15475,11665,9755,11354,22444,4
0.0,0.0,0.0,15475,11678,9755,11354,22401,4
0.0,0.0,0.0,15475,11678,9755,11341,22401,4
0.0,0.0,0.0,15506,11678,9755,11341,22423,4
0.0,0.0,0.0,15521,11691,9733,11354,22466,4
0.0,0.0,0.0,15537,11703,9755,11354,22466,4
0.0,0.0,0.0,15506,11703,9755,11403,22488,4
0.0,0.0,0.0,15475,11703,9755,11379,22488,4
0.0,0.0,0.0,15521,11703,9755,11379,22510,4
0.0,0.0,0.0,15506,11665,9755,11379,22488,4
0.0,0.0,0.0,15537,11703,9766,11403,22532,4
0.0,0.0,0.0,15521,11691,9755,11379,22532,4
0.0,0.0,0.0,15537,11703,9755,11379,22510,4
0.0,0.0,0.0,15584,11703,9755,11403,22466,4
0.0,0.0,0.0,15521,11716,9755,11391,22510,4
0.0,0.0,0.0,15553,11703,9755,11403,22488,4
0.0,0.0,0.0,15553,11703,9755,11416,22532,4
0.0,0.0,0.0,15584,11728,9755,11453,22532,4
0.0,0.0,0.0,15600,11741,9755,11503,22466,4
0.0,0.0,0.0,15584,11716,9755,11578,22576,4
0.0,0.0,0.0,15600,11703,9777,11578,22599,4
0.0,0.0,0.0,15584,11703,9777,11603,22576,4
0.0,0.0,0.0,15553,11728,9755,11578,22510,4
0.0,0.0,0.0,15584,11754,9755,11590,22532,4
0.0,0.0,0.0,15553,11804,9755,11653,22510,4
0.0,0.0,0.0,15521,11817,9755,11792,22510,4
0.0,0.0,0.0,15459,11817,9755,11855,22488,4
0.0,0.0,0.0,15412,11804,9766,11855,22401,4
0.0,0.0,0.0,15397,11804,9766,11855,22423,4
0.0,0.0,0.0,15397,11817,9777,11868,22401,4
0.0,0.0,0.0,15428,11830,9777,11855,22444,4
0.0,0.0,0.0,15412,11804,9766,11881,22488,4
0.0,0.0,0.0,15459,11766,9777,11792,22444,4
0.0,0.0,0.0,15584,11754,9856,11691,22665,4
0.0,0.0,0.0,15678,11754,9890,11653,22576,4
0.0,0.0,0.0,15600,11754,9856,11628,22510,4
0.0,0.0,0.0,15647,11754,9856,11603,22488,4
0.0,0.0,0.0,15615,11754,9867,11590,22510,4
0.0,0.0,0.0,15615,11754,9935,11553,22444,4
0.0,0.0,0.0,15615,11716,9901,11553,22401,4
0.0,0.0,0.0,15568,11703,9890,11528,22423,4
0.0,0.0,0.0,15521,11703,9890,11515,22313,4
0.0,0.0,0.0,15789,11703,9867,11640,22313,4
0.0,0.0,0.0,15028,11703,9935,11881,23477,4
0.0,0.0,0.0,14607,11754,9958,12009,23777,4
0.0,0.0,0.0,14166,11817,10003,12320,24799,4
0.0,0.0,0.0,13679,11881,10117,13412,26749,4
0.0,0.0,0.0,13580,11868,10209,15089,27745,4
0.0,0.0,0.0,13935,11881,10255,14621,27966,4
0.0,0.0,0.0,14458,11830,10267,14137,28612,4
0.0,0.0,0.0,14831,11779,10313,13964,29304,4
0.0,0.0,0.0,15397,11716,10348,14151,29925,4
0.0,0.0,0.0,15900,11703,10371,13921,30286,4
0.0,0.0,0.0,16060,11653,10394,13398,30653,4
0.0,0.0,0.0,16222,11703,10453,13232,31119,4
0.0,0.0,0.0,16303,11703,10488,12824,31276,4
0.0,0.0,0.0,16385,11691,10464,12398,31150,4
0.0,0.0,0.0,16417,11615,10441,12112,31087,4
0.0,0.0,0.0,16352,11528,10348,11703,31181,4
0.0,0.0,0.0,16254,11478,10313,11653,30962,4
0.0,0.0,0.0,16141,11416,10301,11603,30684,4
0.0,0.0,0.0,16012,11428,10209,11528,30347,4
0.0,0.0,0.0,15773,11416,10140,11453,30105,4
0.0,0.0,0.0,15710,11478,10071,11403,30105,4
0.0,0.0,0.0,15584,11503,10026,11379,29895,4
0.0,0.0,0.0,15553,11503,10026,11379,29895,4
0.0,0.0,0.0,15584,11453,10049,11379,29746,4
0.0,0.0,0.0,15521,11465,9980,11354,29627,4
0.0,0.0,0.0,15537,11503,9958,11329,29657,4
0.0,0.0,0.0,15537,11528,9980,11354,29568,4
0.0,0.0,0.0,15490,11553,10014,11341,29450,4
0.0,0.0,0.0,15273,11615,10129,11366,29100,4
0.0,0.0,0.0,15211,11628,10163,11354,28927,4
0.0,0.0,0.0,15211,11615,10129,11354,28984,4
0.0,0.0,0.0,15227,11703,9980,11354,29042,4
0.0,0.0,0.0,15242,11754,9958,11341,28840,4
0.0,0.0,0.0,15273,11932,9980,11354,28812,4
0.0,0.0,0.0,15227,12346,10232,11341,28869,4
0.0,0.0,0.0,15211,12797,10464,11329,28869,4
0.0,0.0,0.0,15211,13177,10641,11304,28840,4
0.0,0.0,0.0,15074,13315,10748,11304,28812,4
0.0,0.0,0.0,14967,12959,10605,11268,28640,4
0.0,0.0,0.0,14967,12293,10301,11255,28583,4
0.0,0.0,0.0,14907,11741,9980,11182,28583,4
0.0,0.0,0.0,14907,11590,9845,11157,28583,4
0.0,0.0,0.0,14846,11578,9800,11157,28555,4
0.0,0.0,0.0,14876,11565,9710,11145,28555,4
0.0,0.0,0.0,14861,11465,9643,11133,28385,4
0.0,0.0,0.0,14846,11403,9632,11133,28301,4
0.0,0.0,0.0,14801,11379,9621,11121,28301,4
0.0,0.0,0.0,14801,11379,9621,11109,28301,4
0.0,0.0,0.0,14846,11379,9621,11109,28245,4
0.0,0.0,0.0,14861,11379,9599,11109,28301,4
0.0,0.0,0.0,14846,11403,9621,11109,28245,4
0.0,0.0,0.0,14801,11416,9621,11072,28245,4
0.0,0.0,0.0,14861,11453,9621,11072,28301,4
0.0,0.0,0.0,14846,11416,9632,11084,28217,4
0.0,0.0,0.0,14876,11416,9621,11072,28301,4
0.0,0.0,0.0,14907,11416,9632,11109,28245,4
0.0,0.0,0.0,14907,11440,9643,11072,28161,4
0.0,0.0,0.0,14907,11453,9654,11072,28245,4
0.0,0.0,0.0,14907,11453,9654,11096,28217,4
0.0,0.0,0.0,14876,11428,9632,11109,28273,4
0.0,0.0,0.0,14907,11416,9621,11084,28189,4
0.0,0.0,0.0,14907,11453,9643,11072,28217,4
0.0,0.0,0.0,14907,11428,9621,11072,28133,4
0.0,0.0,0.0,14907,11428,9643,11109,28189,4
0.0,0.0,0.0,14891,11453,9666,11109,28133,4
0.0,0.0,0.0,14861,11490,9666,11121,28105,4
0.0,0.0,0.0,14846,11465,9688,11096,28077,4
0.0,0.0,0.0,14876,11503,9688,11121,28133,4
0.0,0.0,0.0,14861,11503,9710,11109,28049,4
0.0,0.0,0.0,14846,11515,9688,11121,28133,4
0.0,0.0,0.0,14846,11503,9733,11121,28133,4
0.0,0.0,0.0,14907,11503,9811,11121,28301,4
0.0,0.0,0.0,14967,11503,9901,11157,28470,4
0.0,0.0,0.0,14967,11515,9980,11206,28640,4
0.0,0.0,0.0,14997,11528,10026,11231,28612,4
0.0,0.0,0.0,15074,11565,10049,11255,28612,4
0.0,0.0,0.0,15089,11528,10049,11255,28669,4
0.0,0.0,0.0,15211,11553,10071,11255,28812,4
0.0,0.0,0.0,15211,11553,10117,11255,28812,4
0.0,0.0,0.0,15273,11578,10129,11280,28869,4
0.0,0.0,0.0,15273,11578,10140,11268,28869,4
0.0,0.0,0.0,15350,11603,10163,11268,28898,4
0.0,0.0,0.0,15335,11603,10163,11268,28869,4
0.0,0.0,0.0,15397,11628,10163,11280,28812,4
0.0,0.0,0.0,15397,11603,10140,11268,28754,4
0.0,0.0,0.0,15397,11615,10140,11255,28812,4
0.0,0.0,0.0,15475,11615,10163,11280,28812,4
0.0,0.0,0.0,15490,11615,10140,11255,28840,4
0.0,0.0,0.0,15537,11603,10129,11255,28927,4
0.0,0.0,0.0,15553,11615,10140,11268,28955,4
0.0,0.0,0.0,15553,11603,10140,11268,28955,4
0.0,0.0,0.0,15553,11615,10094,11280,28869,4
0.0,0.0,0.0,15553,11628,10026,11255,28812,4
0.0,0.0,0.0,15490,11653,9935,11255,28640,4
0.0,0.0,0.0,15459,11640,9890,11243,28583,4
0.0,0.0,0.0,15459,11628,9867,11206,28498,4
0.0,0.0,0.0,15475,11628,9867,11219,28414,4
0.0,0.0,0.0,15412,11653,9867,11182,28498,4
0.0,0.0,0.0,15428,11653,9890,11219,28470,4
0.0,0.0,0.0,15412,11653,9890,11219,28470,4
0.0,0.0,0.0,15428,11653,9912,11231,28470,4
0.0,0.0,0.0,15397,11628,9901,11255,28527,4
0.0,0.0,0.0,15412,11653,9890,11231,28498,4
0.0,0.0,0.0,15428,11653,9901,11255,28470,4
0.0,0.0,0.0,15412,11628,9890,11255,28414,4
0.0,0.0,0.0,15412,11615,9890,11255,28357,4
0.0,0.0,0.0,15397,11653,9867,11231,28385,4
0.0,0.0,0.0,15459,11653,9890,11255,28385,4
0.0,0.0,0.0,15459,11653,9878,11255,28414,4
0.0,0.0,0.0,15459,11653,9890,11255,28470,4
0.0,0.0,0.0,15490,11653,9890,11231,28527,4
0.0,0.0,0.0,15475,11678,9901,11255,28498,4
0.0,0.0,0.0,15459,11665,9890,11255,28470,4
0.0,0.0,0.0,15428,11653,9901,11231,28470,4
0.0,0.0,0.0,15459,11665,9890,11255,28414,4
0.0,0.0,0.0,15428,11653,9901,11231,28385,4
0.0,0.0,0.0,15443,11678,9912,11243,28414,4
0.0,0.0,0.0,15397,11678,9912,11231,28470,4
0.0,0.0,0.0,15335,11678,9935,11255,28414,4
0.0,0.0,0.0,15273,11703,9912,11255,28385,4
0.0,0.0,0.0,15242,11665,9912,11255,28357,4
0.0,0.0,0.0,15258,11678,9924,11255,28301,4
0.0,0.0,0.0,15242,11665,9912,11255,28301,4
0.0,0.0,0.0,15211,11691,9935,11268,28245,4
0.0,0.0,0.0,15242,11703,9935,11268,28189,4
0.0,0.0,0.0,15211,11665,9935,11255,28133,4
0.0,0.0,0.0,15242,11703,9935,11255,28217,4
0.0,0.0,0.0,15227,11703,9935,11268,28161,4
0.0,0.0,0.0,15211,11703,9935,11268,28189,4
0.0,0.0,0.0,15227,11678,9935,11255,28245,4
0.0,0.0,0.0,15211,11716,9935,11255,28217,4
0.0,0.0,0.0,15211,11703,9958,11268,28301,4
0.0,0.0,0.0,15211,11716,9980,11255,28329,4
0.0,0.0,0.0,15211,11678,10003,11304,28245,4
0.0,0.0,0.0,15211,11703,10003,11268,28301,4
0.0,0.0,0.0,15242,11716,10003,11280,28189,4
0.0,0.0,0.0,15242,11728,10003,11268,28301,4
0.0,0.0,0.0,15273,11703,9980,11280,28189,4
0.0,0.0,0.0,15366,11703,9969,11268,28301,4
0.0,0.0,0.0,15366,11703,9946,11268,28245,4
0.0,0.0,0.0,15350,11716,9935,11255,28245,4
0.0,0.0,0.0,15350,11703,9935,11255,28357,4
0.0,0.0,0.0,15366,11716,9912,11255,28245,4
0.0,0.0,0.0,15335,11728,9924,11255,28245,4
0.0,0.0,0.0,15381,11741,9935,11231,28133,4
0.0,0.0,0.0,15335,11703,9935,11255,28217,4
0.0,0.0,0.0,15350,11703,9935,11231,28217,4
0.0,0.0,0.0,15397,11665,9935,11231,28245,4
0.0,0.0,0.0,15397,11665,9935,11255,28245,4
0.0,0.0,0.0,15412,11678,9935,11255,28301,4
0.0,0.0,0.0,15397,11678,9890,11231,28301,4
0.0,0.0,0.0,15335,11653,9867,11231,28161,4
0.0,0.0,0.0,15350,11665,9867,11219,28077,4
0.0,0.0,0.0,15335,11665,9845,11231,28133,4
0.0,0.0,0.0,15335,11665,9867,11206,28077,4
0.0,0.0,0.0,15381,11628,9980,11206,28245,4
0.0,0.0,0.0,15397,11615,10049,11255,28357,4
0.0,0.0,0.0,15397,11615,10060,11255,28470,4
0.0,0.0,0.0,15397,11578,10003,11231,28385,4
0.0,0.0,0.0,15288,11553,9946,11219,28245,4
0.0,0.0,0.0,15273,11578,9890,11206,28217,4
0.0,0.0,0.0,15242,11565,9890,11206,28189,4
0.0,0.0,0.0,15258,11578,9867,11206,28077,4
0.0,0.0,0.0,15273,11578,9856,11206,28161,4
0.0,0.0,0.0,15242,11565,9867,11206,28189,4
0.0,0.0,0.0,15273,11553,9867,11182,28189,4
0.0,0.0,0.0,15288,11553,9845,11206,28217,4
0.0,0.0,0.0,15242,11553,9845,11206,28133,4
0.0,0.0,0.0,15273,11553,9856,11170,28133,4
0.0,0.0,0.0,15273,11553,9811,11182,28189,4
0.0,0.0,0.0,15288,11553,9822,11157,28189,4
0.0,0.0,0.0,15335,11553,9811,11157,28133,4
0.0,0.0,0.0,15288,11553,9845,11157,28245,4
0.0,0.0,0.0,15273,11528,9822,11157,28161,4
0.0,0.0,0.0,15288,11540,9845,11170,28189,4
0.0,0.0,0.0,15288,11540,9822,11157,28133,4
0.0,0.0,0.0,15273,11553,9845,11157,28161,4
0.0,0.0,0.0,15288,11553,9845,11182,28189,4
0.0,0.0,0.0,15288,11540,9845,11182,28189,4
0.0,0.0,0.0,15288,11553,9822,11170,28161,4
0.0,0.0,0.0,15288,11553,9845,11206,28133,4
0.0,0.0,0.0,15258,11528,9845,11206,28217,4
0.0,0.0,0.0,15273,11528,9845,11206,28217,4
0.0,0.0,0.0,15288,11528,9867,11206,28273,4
0.0,0.0,0.0,15273,11515,9867,11206,28245,4
0.0,0.0,0.0,15227,11528,9890,11219,28301,4
0.0,0.0,0.0,15227,11515,9867,11231,28189,4
0.0,0.0,0.0,15181,11528,9878,11231,28189,4
0.0,0.0,0.0,15242,11540,9867,11255,28161,4
0.0,0.0,0.0,15227,11528,9890,11219,28189,4
0.0,0.0,0.0,15273,11553,9867,11243,28189,4
0.0,0.0,0.0,15273,11553,9878,11219,28133,4
0.0,0.0,0.0,15273,11528,9867,11219,28133,4
0.0,0.0,0.0,15273,11578,9856,11219,28049,4
0.0,0.0,0.0,15273,11553,9856,11219,28189,4
0.0,0.0,0.0,15288,11553,9856,11231,28133,4
0.0,0.0,0.0,15288,11553,9867,11231,28105,4
0.0,0.0,0.0,15273,11540,9890,11219,28133,4
0.0,0.0,0.0,15242,11553,9890,11219,28133,4
0.0,0.0,0.0,15242,11565,9867,11231,28133,4
0.0,0.0,0.0,15242,11553,9890,11231,28133,4
0.0,0.0,0.0,15242,11553,9878,11231,28049,4
0.0,0.0,0.0,15211,11553,9890,11219,28022,4
0.0,0.0,0.0,15227,11553,9890,11219,28022,4
0.0,0.0,0.0,15211,11553,9890,11255,27939,4
0.0,0.0,0.0,15227,11553,9890,11231,27994,4
0.0,0.0,0.0,15242,11553,9890,11255,28022,4
0.0,0.0,0.0,15227,11553,9890,11255,28105,4
0.0,0.0,0.0,15211,11553,9890,11268,28022,4
0.0,0.0,0.0,15211,11553,9890,11268,28022,4
0.0,0.0,0.0,15196,11553,9890,11280,28022,4
0.0,0.0,0.0,15211,11553,9901,11280,28049,4
0.0,0.0,0.0,15150,11553,9890,11268,27966,4
0.0,0.0,0.0,15150,11553,9890,11280,28022,4
0.0,0.0,0.0,15150,11553,9901,11304,27966,4
0.0,0.0,0.0,15150,11553,9890,11354,27911,4
0.0,0.0,0.0,15119,11528,9912,11354,28022,4
0.0,0.0,0.0,15104,11553,9912,11354,27911,4
0.0,0.0,0.0,15119,11553,9935,11354,27828,4
0.0,0.0,0.0,15119,11528,9912,11354,27883,4
0.0,0.0,0.0,15119,11553,9912,11379,27800,4
0.0,0.0,0.0,15119,11528,9901,11428,27691,4
0.0,0.0,0.0,15119,11553,9912,11478,27745,4
0.0,0.0,0.0,15104,11540,9935,11503,27691,4
0.0,0.0,0.0,15089,11553,9935,11490,27691,4
0.0,0.0,0.0,15119,11540,9935,11416,27663,4
0.0,0.0,0.0,15165,11553,9935,11379,27636,4
0.0,0.0,0.0,15211,11540,9935,11354,27663,4
0.0,0.0,0.0,15227,11553,9867,11354,27636,4
0.0,0.0,0.0,15227,11553,9845,11341,27663,4
0.0,0.0,0.0,15211,11553,9845,11304,27636,4
0.0,0.0,0.0,15211,11578,9845,11304,27581,4
0.0,0.0,0.0,15242,11578,9833,11304,27636,4
0.0,0.0,0.0,15273,11603,9800,11317,27527,4
0.0,0.0,0.0,15227,11665,9800,11280,27499,4
0.0,0.0,0.0,15242,11653,9811,11280,27472,4
0.0,0.0,0.0,15273,11653,9811,11304,27499,4
0.0,0.0,0.0,15273,11653,9800,11268,27418,4
0.0,0.0,0.0,15288,11665,9800,11255,27472,4
0.0,0.0,0.0,15288,11653,9800,11255,27527,4
0.0,0.0,0.0,15288,11653,9800,11255,27472,4
0.0,0.0,0.0,15335,11678,9800,11255,27364,4
0.0,0.0,0.0,15397,11754,9845,11304,27364,4
0.0,0.0,0.0,15397,11881,9935,11304,27364,4
0.0,0.0,0.0,15366,11919,10026,11280,27283,4
0.0,0.0,0.0,15335,11906,10071,11255,27283,4
0.0,0.0,0.0,15397,11881,10117,11255,27310,4
0.0,0.0,0.0,15428,11779,10117,11219,27175,4
0.0,0.0,0.0,15412,11553,10418,11219,27148,4
0.0,0.0,0.0,15397,11490,10476,11219,27148,4
0.0,0.0,0.0,15397,11478,10441,11182,27068,4
0.0,0.0,0.0,15366,11503,10418,11182,26829,4
0.0,0.0,0.0,15350,11528,10348,11170,26670,4
0.0,0.0,0.0,15304,11578,10267,11157,26644,4
0.0,0.0,0.0,15397,11653,10140,11157,26618,4
0.0,0.0,0.0,15350,11653,10140,11145,26566,4
0.0,0.0,0.0,15366,11603,10117,11133,26487,4
0.0,0.0,0.0,15366,11590,10117,11109,26357,4
0.0,0.0,0.0,15366,11553,10117,11133,26253,4
0.0,0.0,0.0,15335,11553,10094,11133,26279,4
0.0,0.0,0.0,15335,11565,10094,11109,26202,4
0.0,0.0,0.0,15335,11553,10094,11121,26331,4
0.0,0.0,0.0,15397,11515,10094,11121,26331,4
0.0,0.0,0.0,15428,11515,10083,11109,26461,4
0.0,0.0,0.0,15397,11515,10117,11133,26487,4
0.0,0.0,0.0,15397,11528,10140,11170,26513,4
0.0,0.0,0.0,15335,11528,10129,11206,26461,4
0.0,0.0,0.0,15350,11553,10163,11206,26513,4
0.0,0.0,0.0,15335,11553,10163,11206,26513,4
0.0,0.0,0.0,15335,11553,10163,11206,26409,4
0.0,0.0,0.0,15304,11578,10152,11194,26409,4
0.0,0.0,0.0,15288,11553,10163,11206,26409,4
0.0,0.0,0.0,15288,11603,10129,11194,26435,4
0.0,0.0,0.0,15242,11603,10140,11182,26409,4
0.0,0.0,0.0,15227,11578,10140,11206,26409,4
0.0,0.0,0.0,15242,11565,10140,11206,26331,4
0.0,0.0,0.0,15211,11565,10117,11206,26305,4
0.0,0.0,0.0,15211,11578,10140,11219,26202,4
0.0,0.0,0.0,15242,11615,10129,11206,26099,4
0.0,0.0,0.0,15211,11615,10117,11182,26176,4
0.0,0.0,0.0,15211,11615,10117,11206,26073,4
0.0,0.0,0.0,15211,11615,10117,11170,26099,4
0.0,0.0,0.0,15227,11615,10140,11170,26047,4
0.0,0.0,0.0,15211,11653,10129,11170,26022,4
0.0,0.0,0.0,15211,11628,10117,11157,26047,4
0.0,0.0,0.0,15196,11678,10140,11157,26047,4
0.0,0.0,0.0,15211,11691,10140,11170,26047,4
0.0,0.0,0.0,15211,11653,10140,11157,26047,4
0.0,0.0,0.0,15211,11678,10140,11157,25996,4
0.0,0.0,0.0,15211,11678,10140,11133,26047,4
0.0,0.0,0.0,15211,11703,10163,11133,25996,4
0.0,0.0,0.0,15165,11678,10140,11157,25971,4
0.0,0.0,0.0,15165,11678,10140,11157,25996,4
0.0,0.0,0.0,15165,11678,10152,11109,25920,4
0.0,0.0,0.0,15150,11703,10129,11157,25894,4
0.0,0.0,0.0,15181,11678,10140,11157,25996,4
0.0,0.0,0.0,15211,11691,10163,11170,25894,4
0.0,0.0,0.0,15181,11678,10163,11206,25767,4
0.0,0.0,0.0,15150,11703,10140,11219,25767,4
0.0,0.0,0.0,15165,11678,10163,11219,25641,4
0.0,0.0,0.0,15135,11665,10163,11219,25641,4
0.0,0.0,0.0,15119,11678,10174,11231,25641,4
0.0,0.0,0.0,15119,11703,10163,11206,25616,4
0.0,0.0,0.0,15089,11653,10140,11206,25641,4
0.0,0.0,0.0,15119,11703,10140,11219,25591,4
0.0,0.0,0.0,15119,11691,10163,11219,25591,4
0.0,0.0,0.0,15119,11703,10163,11206,25641,4
0.0,0.0,0.0,15150,11665,10163,11206,25591,4
0.0,0.0,0.0,15150,11703,10163,11219,25540,4
0.0,0.0,0.0,15119,11703,10163,11206,25565,4
0.0,0.0,0.0,15150,11665,10163,11219,25591,4
0.0,0.0,0.0,15150,11703,10163,11206,25591,4
0.0,0.0,0.0,15135,11703,10163,11206,25540,4
0.0,0.0,0.0,15104,11703,10174,11231,25565,4
0.0,0.0,0.0,15150,11716,10174,11206,25591,4
0.0,0.0,0.0,15119,11716,10174,11231,25591,4
0.0,0.0,0.0,15150,11741,10174,11255,25540,4
0.0,0.0,0.0,15181,11728,10174,11231,25515,4
0.0,0.0,0.0,15165,11703,10209,11231,25616,4
0.0,0.0,0.0,15181,11741,10174,11219,25591,4
0.0,0.0,0.0,15165,11703,10197,11255,25616,4
0.0,0.0,0.0,15165,11703,10186,11255,25540,4
0.0,0.0,0.0,15211,11703,10163,11231,25591,4
0.0,0.0,0.0,15165,11653,10197,11206,25641,4
0.0,0.0,0.0,15058,11653,10174,11206,25490,4
0.0,0.0,0.0,15043,11628,10209,11219,25068,4
0.0,0.0,0.0,14967,11603,10209,11219,24702,4
0.0,0.0,0.0,14891,11615,10197,11231,24414,4
0.0,0.0,0.0,14846,11603,10209,11255,24176,4
0.0,0.0,0.0,14861,11628,10209,11268,24034,4
0.0,0.0,0.0,14801,11603,10232,11304,24058,4
0.0,0.0,0.0,14816,11653,10209,11304,24081,4
0.0,0.0,0.0,14876,11665,10209,11280,24081,4
0.0,0.0,0.0,14907,11716,10174,11280,24081,4
0.0,0.0,0.0,14907,11678,10163,11255,24034,4
0.0,0.0,0.0,14907,11653,10163,11255,24058,4
0.0,0.0,0.0,14907,11678,10163,11243,24011,4
0.0,0.0,0.0,14861,11716,10140,11243,23964,4
0.0,0.0,0.0,14846,11691,10140,11206,23987,4
0.0,0.0,0.0,14846,11653,10117,11206,23987,4
0.0,0.0,0.0,14801,11653,10049,11182,24011,4
0.0,0.0,0.0,14756,11603,10003,11206,24058,4
0.0,0.0,0.0,14681,11565,10003,11219,23754,4
0.0,0.0,0.0,14518,11553,10003,11280,23431,4
0.0,0.0,0.0,14444,11528,10003,11379,23135,4
0.0,0.0,0.0,14385,11528,10049,11553,23112,4
0.0,0.0,0.0,14311,11503,10071,11691,23090,4
0.0,0.0,0.0,14282,11503,10071,11754,23569,4
0.0,0.0,0.0,14311,11403,10071,11804,24414,4
0.0,0.0,0.0,14297,11379,10026,11830,24129,4
0.0,0.0,0.0,14268,11329,10014,12163,25291,4
0.0,0.0,0.0,14341,11354,9980,16222,28840,4
0.0,0.0,0.0,14399,11354,10026,17565,29333,4
0.0,0.0,0.0,14458,11354,10083,16882,28984,4
0.0,0.0,0.0,14488,11354,10117,16516,28697,4
0.0,0.0,0.0,14444,11354,10163,16109,28555,4
0.0,0.0,0.0,14429,11379,10129,15584,28442,4
0.0,0.0,0.0,14399,11403,10117,14952,28414,4
0.0,0.0,0.0,14370,11416,10140,14180,28189,4
0.0,0.0,0.0,14326,11478,10094,14311,28133,4
0.0,0.0,0.0,14666,11478,9980,16582,29216,4
0.0,0.0,0.0,15028,11503,10003,18987,30135,4
0.0,0.0,0.0,15104,11503,10003,19554,30530,4
0.0,0.0,0.0,14997,11503,10003,18182,30165,4
0.0,0.0,0.0,14801,11503,10026,16417,29686,4
0.0,0.0,0.0,14801,11528,10003,16093,29509,4
0.0,0.0,0.0,14771,11553,10037,15837,29391,4
0.0,0.0,0.0,14726,11578,10117,15397,29158,4
0.0,0.0,0.0,14666,11553,10163,14621,29100,4
0.0,0.0,0.0,14577,11553,10221,13978,28697,4
0.0,0.0,0.0,14547,11553,10232,13906,28583,4
0.0,0.0,0.0,14562,11553,10232,13821,28583,4
0.0,0.0,0.0,14547,11540,10267,13735,28414,4
0.0,0.0,0.0,14726,11553,10267,13792,28245,4
0.0,0.0,0.0,14756,11553,10232,13792,27994,4
0.0,0.0,0.0,14846,11578,10197,14050,27939,4
0.0,0.0,0.0,14846,11578,10209,14064,27911,4
0.0,0.0,0.0,14801,11565,10186,13964,27691,4
0.0,0.0,0.0,14786,11565,10174,13964,27636,4
0.0,0.0,0.0,14801,11603,10163,14064,27691,4
0.0,0.0,0.0,14756,11578,10083,14399,27800,4
0.0,0.0,0.0,14756,11578,10071,14429,27718,4
0.0,0.0,0.0,14741,11603,10071,14385,27581,4
0.0,0.0,0.0,14681,11578,10083,13849,27718,4
0.0,0.0,0.0,14607,11553,10140,12743,27256,4
0.0,0.0,0.0,14547,11578,10129,12398,27148,4
0.0,0.0,0.0,14577,11590,10129,12372,27095,4
0.0,0.0,0.0,14547,11565,10117,12438,27095,4
0.0,0.0,0.0,14518,11603,10117,12530,27095,4
0.0,0.0,0.0,14503,11578,10129,12241,26908,4
0.0,0.0,0.0,14488,11590,10049,11779,26618,4
0.0,0.0,0.0,14444,11578,10037,11678,26461,4
0.0,0.0,0.0,14385,11603,10071,11615,26357,4
0.0,0.0,0.0,14385,11578,10037,11628,26253,4
0.0,0.0,0.0,14370,11565,10071,11640,26202,4
0.0,0.0,0.0,14326,11565,10117,11653,26202,4
0.0,0.0,0.0,14326,11603,10117,11640,26022,4
0.0,0.0,0.0,14326,11615,10140,11603,25971,4
0.0,0.0,0.0,14326,11615,10325,11578,25920,4
0.0,0.0,0.0,14326,11628,10418,11603,25869,4
0.0,0.0,0.0,14326,11653,10453,11603,25843,4
0.0,0.0,0.0,14326,11678,10476,11603,25843,4
0.0,0.0,0.0,14326,11678,10488,11603,25742,4
0.0,0.0,0.0,14326,11678,10511,11553,25666,4
0.0,0.0,0.0,14297,11678,10499,11515,25616,4
0.0,0.0,0.0,14297,11691,10441,11465,25616,4
0.0,0.0,0.0,14311,11703,10406,11503,25616,4
0.0,0.0,0.0,14311,11754,10383,11465,25591,4
0.0,0.0,0.0,14311,11842,10406,11416,25440,4
0.0,0.0,0.0,14326,11906,10464,11403,25291,4
0.0,0.0,0.0,14326,11855,10453,11403,24995,4
0.0,0.0,0.0,14326,11817,10406,11403,24873,4
0.0,0.0,0.0,14341,11830,10348,11403,24824,4
0.0,0.0,0.0,14370,11817,10348,11403,24799,4
0.0,0.0,0.0,14311,11817,10348,11354,24799,4
0.0,0.0,0.0,14341,11779,10371,11304,24727,4
0.0,0.0,0.0,14385,11766,10394,11329,24702,4
0.0,0.0,0.0,14341,11754,10441,11317,24654,4
0.0,0.0,0.0,14326,11754,10464,11329,24630,4
0.0,0.0,0.0,14370,11766,10453,11317,24582,4
0.0,0.0,0.0,14341,11754,10441,11304,24606,4
0.0,0.0,0.0,14370,11804,10418,11329,24510,4
0.0,0.0,0.0,14326,11779,10394,11329,24558,4
0.0,0.0,0.0,14355,11804,10348,11354,24462,4
0.0,0.0,0.0,14370,11804,10348,11366,24414,4
0.0,0.0,0.0,14311,11804,10348,11379,24318,4
0.0,0.0,0.0,14326,11766,10348,11379,24366,4
0.0,0.0,0.0,14341,11779,10313,11391,24438,4
0.0,0.0,0.0,14370,11766,10278,11503,24630,4
0.0,0.0,0.0,14488,11754,10278,11653,24799,4
0.0,0.0,0.0,14681,11728,10244,11703,24873,4
0.0,0.0,0.0,14741,11754,10232,11628,24799,4
0.0,0.0,0.0,14756,11716,10209,11503,24799,4
0.0,0.0,0.0,14726,11728,10140,11428,24727,4
0.0,0.0,0.0,14726,11728,10117,11403,24702,4
0.0,0.0,0.0,14726,11754,10106,11379,24558,4
0.0,0.0,0.0,14696,11728,10071,11354,24510,4
0.0,0.0,0.0,14666,11716,10083,11329,24534,4
0.0,0.0,0.0,14666,11728,10106,11317,24510,4
0.0,0.0,0.0,14636,11741,10094,11317,24510,4
0.0,0.0,0.0,14621,11728,10071,11317,24414,4
0.0,0.0,0.0,14636,11754,10071,11317,24390,4
0.0,0.0,0.0,14607,11741,10071,11292,24366,4
0.0,0.0,0.0,14607,11754,10049,11255,24318,4
0.0,0.0,0.0,14621,11754,10071,11255,24271,4
0.0,0.0,0.0,14621,11716,10026,11255,24247,4
0.0,0.0,0.0,14621,11703,9811,11255,24223,4
0.0,0.0,0.0,14592,11703,9666,11219,24223,4
0.0,0.0,0.0,14607,11665,9643,11182,24129,4
0.0,0.0,0.0,14636,11590,9621,11157,23940,4
0.0,0.0,0.0,14666,11578,9599,11133,23800,4
0.0,0.0,0.0,14636,11553,9577,11109,23777,4
0.0,0.0,0.0,14636,11528,9577,11109,23754,4
0.0,0.0,0.0,14636,11553,9588,11096,23707,4
0.0,0.0,0.0,14651,11553,9588,11072,23661,4
0.0,0.0,0.0,14666,11553,9577,11072,23661,4
0.0,0.0,0.0,14696,11528,9599,11084,23661,4
0.0,0.0,0.0,14666,11553,9577,11109,23661,4
0.0,0.0,0.0,14681,11528,9588,11121,23754,4
0.0,0.0,0.0,14636,11528,9588,11182,23987,4
0.0,0.0,0.0,14666,11528,9588,11280,24271,4
0.0,0.0,0.0,14636,11528,9577,11403,24462,4
0.0,0.0,0.0,14621,11528,9588,11403,24582,4
0.0,0.0,0.0,14607,11528,9599,11416,24630,4
0.0,0.0,0.0,14562,11528,9588,11453,24702,4
0.0,0.0,0.0,14547,11503,9588,11478,24606,4
0.0,0.0,0.0,14488,11503,9577,11528,24606,4
0.0,0.0,0.0,14429,11528,9577,11553,24654,4
0.0,0.0,0.0,14399,11503,9588,11628,24582,4
0.0,0.0,0.0,14326,11528,9588,11628,24462,4
0.0,0.0,0.0,14311,11503,9599,11665,24414,4
0.0,0.0,0.0,14311,11515,9599,11628,24294,4
0.0,0.0,0.0,14282,11528,9588,11603,24223,4
0.0,0.0,0.0,14311,11503,9577,11578,24129,4
0.0,0.0,0.0,14311,11553,9599,11528,24081,4
0.0,0.0,0.0,14311,11528,9588,11503,24058,4
0.0,0.0,0.0,14282,11553,9599,11503,24011,4
0.0,0.0,0.0,14282,11565,9599,11478,23964,4
0.0,0.0,0.0,14268,11665,9599,11403,23615,4
0.0,0.0,0.0,14311,11779,9688,11341,23294,4
0.0,0.0,0.0,14297,11804,9666,11329,23203,4
0.0,0.0,0.0,14282,11804,9643,11304,23157,4
0.0,0.0,0.0,14268,11779,9666,11280,23135,4
0.0,0.0,0.0,14268,11754,9643,11268,23112,4
0.0,0.0,0.0,14253,11754,9643,11255,23090,4
0.0,0.0,0.0,14282,11766,9643,11231,23090,4
0.0,0.0,0.0,14268,11779,9643,11255,23067,4
0.0,0.0,0.0,14253,11754,9666,11231,23090,4
0.0,0.0,0.0,14268,11779,9666,11231,23022,4
0.0,0.0,0.0,14297,11754,9666,11219,23022,4
0.0,0.0,0.0,14282,11754,9666,11231,23022,4
0.0,0.0,0.0,14282,11779,9643,11219,23044,4
0.0,0.0,0.0,14282,11779,9643,11219,22932,4
0.0,0.0,0.0,14268,11766,9632,11206,22932,4
0.0,0.0,0.0,14282,11779,9621,11206,22932,4
0.0,0.0,0.0,14326,11804,9621,11170,23022,4
0.0,0.0,0.0,14326,11804,9621,11170,22887,4
0.0,0.0,0.0,14370,11804,9588,11170,22932,4
0.0,0.0,0.0,14355,11804,9610,11170,22887,4
0.0,0.0,0.0,14326,11817,9599,11157,22865,4
0.0,0.0,0.0,14370,11817,9599,11182,22843,4
0.0,0.0,0.0,14326,11804,9588,11170,22843,4
0.0,0.0,0.0,14326,11804,9588,11194,22843,4
0.0,0.0,0.0,14341,11792,9599,11280,22932,4
0.0,0.0,0.0,14326,11792,9621,11403,23112,4
0.0,0.0,0.0,14370,11766,9599,11453,23203,4
0.0,0.0,0.0,14399,11766,9599,11453,23248,4
0.0,0.0,0.0,14399,11804,9621,11465,23225,4
0.0,0.0,0.0,14370,11804,9610,11465,23203,4
0.0,0.0,0.0,14326,11779,9599,11453,23203,4
0.0,0.0,0.0,14311,11779,9621,11428,23112,4
0.0,0.0,0.0,14311,11779,9621,11428,23112,4
0.0,0.0,0.0,14282,11754,9621,11403,23067,4
0.0,0.0,0.0,14311,11779,9588,11416,23067,4
0.0,0.0,0.0,14282,11766,9599,11403,23022,4
0.0,0.0,0.0,14268,11766,9599,11403,22977,4
0.0,0.0,0.0,14268,11779,9621,11403,22977,4
0.0,0.0,0.0,14268,11754,9610,11403,22977,4
0.0,0.0,0.0,14268,11779,9610,11403,22977,4
0.0,0.0,0.0,14297,11779,9599,11403,22932,4
0.0,0.0,0.0,14282,11804,9621,11403,22932,4
0.0,0.0,0.0,14297,11817,9621,11403,22910,4
0.0,0.0,0.0,14297,11830,9588,11428,22910,4
0.0,0.0,0.0,14268,11830,9621,11403,22955,4
0.0,0.0,0.0,14268,11817,9621,11416,22932,4
0.0,0.0,0.0,14311,11855,9610,11403,22932,4
0.0,0.0,0.0,14311,11855,9599,11403,22932,4
0.0,0.0,0.0,14326,11855,9599,11416,22843,4
0.0,0.0,0.0,14311,11855,9621,11453,22932,4
0.0,0.0,0.0,14311,11881,9610,11453,22887,4
0.0,0.0,0.0,14311,11868,9621,11453,22932,4
0.0,0.0,0.0,14311,11881,9621,11478,22932,4
0.0,0.0,0.0,14311,11932,9599,11465,22887,4
0.0,0.0,0.0,14311,11919,9621,11465,22843,4
0.0,0.0,0.0,14311,11957,9621,11478,22887,4
0.0,0.0,0.0,14326,11970,9621,11478,22887,4
0.0,0.0,0.0,14297,11983,9621,11478,22865,4
0.0,0.0,0.0,14326,12009,9632,11503,22887,4
0.0,0.0,0.0,14326,12021,9621,11478,22865,4
0.0,0.0,0.0,14326,12034,9632,11503,22910,4
0.0,0.0,0.0,14326,12034,9632,11503,22887,4
0.0,0.0,0.0,14370,12060,9621,11528,22865,4
0.0,0.0,0.0,14326,12060,9643,11553,22843,4
0.0,0.0,0.0,14311,12060,9632,11553,22887,4
0.0,0.0,0.0,14341,12112,9632,11603,22932,4
0.0,0.0,0.0,14341,12099,9621,11603,22932,4
0.0,0.0,0.0,14341,12112,9632,11615,22865,4
0.0,0.0,0.0,14370,12112,9632,11628,22887,4
0.0,0.0,0.0,14370,12112,9621,11653,22865,4
0.0,0.0,0.0,14385,12112,9632,11678,22865,4
0.0,0.0,0.0,14370,12124,9643,11703,22887,4
0.0,0.0,0.0,14399,12124,9643,11703,22865,4
0.0,0.0,0.0,14399,12124,9643,11716,22865,4
0.0,0.0,0.0,14429,12124,9666,11703,22887,4
0.0,0.0,0.0,14399,12124,9666,11728,22977,4
0.0,0.0,0.0,14399,12163,9666,11716,22865,4
0.0,0.0,0.0,14429,12189,9677,11754,22887,4
0.0,0.0,0.0,14429,12163,9677,11728,22843,4
0.0,0.0,0.0,14429,12215,9677,11779,22843,4
0.0,0.0,0.0,14429,12267,9688,11804,22887,4
0.0,0.0,0.0,14458,12241,9688,11817,22887,4
0.0,0.0,0.0,14458,12241,9688,11855,22887,4
0.0,0.0,0.0,14444,12280,9688,11817,22887,4
0.0,0.0,0.0,14503,12267,9699,11830,22843,4
0.0,0.0,0.0,14473,12267,9688,11855,22843,4
0.0,0.0,0.0,14488,12267,9699,11855,22843,4
0.0,0.0,0.0,14488,12280,9710,11855,22887,4
0.0,0.0,0.0,14503,12267,9688,11855,22887,4
0.0,0.0,0.0,14503,12254,9710,11842,22887,4
0.0,0.0,0.0,14577,12189,9677,11804,22977,4
0.0,0.0,0.0,14607,12124,9677,11628,22955,4
0.0,0.0,0.0,14577,12163,9654,11553,22977,4
0.0,0.0,0.0,14607,12124,9621,11503,22977,4
0.0,0.0,0.0,14577,12073,9621,11503,22977,4
0.0,0.0,0.0,14547,12086,9621,11478,22977,4
0.0,0.0,0.0,14577,12047,9621,11453,22977,4
0.0,0.0,0.0,14562,12086,9599,11453,22932,4
0.0,0.0,0.0,14518,12137,9599,11453,22843,4
0.0,0.0,0.0,14518,12228,9599,11453,22910,4
0.0,0.0,0.0,14503,12267,9610,11478,22910,4
0.0,0.0,0.0,14503,12267,9599,11478,22865,4
0.0,0.0,0.0,14444,12267,9621,11503,22843,4
0.0,0.0,0.0,14488,12267,9621,11503,22843,4
0.0,0.0,0.0,14458,12267,9621,11515,22776,4
0.0,0.0,0.0,14488,12228,9599,11528,22798,4
0.0,0.0,0.0,14458,12215,9621,11528,22843,4
0.0,0.0,0.0,14488,12215,9610,11528,22843,4
0.0,0.0,0.0,14458,12215,9621,11528,22798,4
0.0,0.0,0.0,14503,12215,9599,11553,22776,4
0.0,0.0,0.0,14503,12202,9621,11578,22798,4
0.0,0.0,0.0,14488,12215,9621,11565,22843,4
0.0,0.0,0.0,14518,12228,9621,11578,22776,4
0.0,0.0,0.0,14503,12215,9621,11578,22754,4
0.0,0.0,0.0,14518,12215,9599,11578,22798,4
0.0,0.0,0.0,14532,12150,9621,11578,22754,4
0.0,0.0,0.0,14562,12112,9599,11553,22754,4
0.0,0.0,0.0,14577,12124,9621,11503,22843,4
0.0,0.0,0.0,14666,12163,9621,11453,22709,4
0.0,0.0,0.0,14636,12163,9621,11428,22709,4
0.0,0.0,0.0,14636,12163,9621,11453,22709,4
0.0,0.0,0.0,14607,12112,9621,11416,22665,4
0.0,0.0,0.0,14607,12163,9621,11416,22665,4
0.0,0.0,0.0,14621,12163,9632,11403,22621,4
0.0,0.0,0.0,14621,12189,9621,11403,22665,4
0.0,0.0,0.0,14621,12189,9632,11403,22665,4
0.0,0.0,0.0,14636,12215,9621,11416,22576,4
0.0,0.0,0.0,14607,12176,9643,11416,22599,4
0.0,0.0,0.0,14607,12215,9643,11416,22621,4
0.0,0.0,0.0,14621,12189,9643,11416,22709,4
0.0,0.0,0.0,14636,12202,9632,11453,22665,4
0.0,0.0,0.0,14621,12215,9632,11403,22665,4
0.0,0.0,0.0,14621,12215,9621,11428,22687,4
0.0,0.0,0.0,14636,12215,9621,11453,22621,4
0.0,0.0,0.0,14666,12267,9632,11453,22665,4
0.0,0.0,0.0,14666,12267,9632,11478,22665,4
0.0,0.0,0.0,14681,12320,9621,11478,22665,4
0.0,0.0,0.0,14666,12280,9643,11478,22599,4
0.0,0.0,0.0,14666,12280,9632,11503,22621,4
0.0,0.0,0.0,14681,12267,9643,11503,22709,4
0.0,0.0,0.0,14666,12280,9643,11528,22599,4
0.0,0.0,0.0,14651,12320,9666,11528,22709,4
0.0,0.0,0.0,14636,12333,9666,11528,22621,4
0.0,0.0,0.0,14666,12320,9643,11515,22643,4
0.0,0.0,0.0,14666,12306,9654,11553,22621,4
0.0,0.0,0.0,14666,12320,9643,11553,22621,4
0.0,0.0,0.0,14666,12293,9666,11553,22665,4
0.0,0.0,0.0,14621,12293,9643,11603,22665,4
0.0,0.0,0.0,14666,12320,9643,11603,22621,4
0.0,0.0,0.0,14666,12346,9666,11603,22665,4
0.0,0.0,0.0,14666,12346,9666,11653,22709,4
0.0,0.0,0.0,14666,12320,9632,11628,22643,4
0.0,0.0,0.0,14681,12333,9643,11628,22621,4
0.0,0.0,0.0,14621,12320,9654,11653,22643,4
0.0,0.0,0.0,14666,12320,9621,11603,22576,4
0.0,0.0,0.0,14681,12333,9632,11578,22665,4
0.0,0.0,0.0,14666,12320,9632,11578,22665,4
0.0,0.0,0.0,14681,12293,9643,11565,22599,4
0.0,0.0,0.0,14666,12320,9621,11578,22621,4
0.0,0.0,0.0,14681,12346,9632,11553,22599,4
0.0,0.0,0.0,14726,12346,9643,11578,22621,4
