GyroX,GyroY,GyroZ,Thumb,Index,Middle,Ring,Pinky,Gesture
0.0,0.0,0.0,14224,11157,35309,40780,40088,2
0.0,0.0,0.0,14253,11170,35345,40868,40045,2
0.0,0.0,0.0,14209,11182,35272,40868,39832,2
0.0,0.0,0.0,14209,11206,35345,40780,40002,2
0.0,0.0,0.0,14209,11206,35272,40780,40002,2
0.0,0.0,0.0,14195,11243,35199,40824,39917,2
0.0,0.0,0.0,14195,11255,35272,40780,39874,2
0.0,0.0,0.0,14195,11231,35236,40780,40002,2
0.0,0.0,0.0,14180,11255,35199,40736,39917,2
0.0,0.0,0.0,14195,11255,35199,40736,40002,2
0.0,0.0,0.0,14209,11255,35163,40693,39917,2
0.0,0.0,0.0,14195,11280,35127,40736,39917,2
0.0,0.0,0.0,14195,11280,35127,40780,39874,2
0.0,0.0,0.0,14195,11304,35127,40693,39917,2
0.0,0.0,0.0,14195,11304,35127,40736,39874,2
0.0,0.0,0.0,14195,11304,35163,40736,39832,2
0.0,0.0,0.0,14209,11304,35091,40736,39832,2
0.0,0.0,0.0,14195,11317,34982,40780,39790,2
0.0,0.0,0.0,14209,11317,35091,40736,39790,2
0.0,0.0,0.0,14195,11304,35018,40693,39832,2
0.0,0.0,0.0,14166,11280,34982,40693,39832,2
0.0,0.0,0.0,14195,11255,34982,40605,39917,2
0.0,0.0,0.0,14209,11280,34874,40605,39747,2
0.0,0.0,0.0,14224,11280,34910,40562,39832,2
0.0,0.0,0.0,14195,11304,34946,40693,39832,2
0.0,0.0,0.0,14195,11304,34874,40562,39747,2
0.0,0.0,0.0,14195,11280,34910,40605,39832,2
0.0,0.0,0.0,14224,11280,34874,40562,39705,2
0.0,0.0,0.0,14253,11304,34910,40475,39705,2
0.0,0.0,0.0,14253,11304,34839,40605,39832,2
0.0,0.0,0.0,14268,11341,34874,40736,39832,2
0.0,0.0,0.0,14282,11329,34839,40562,39663,2
0.0,0.0,0.0,14311,11354,34839,40562,39747,2
0.0,0.0,0.0,14253,11354,34874,40605,39705,2
0.0,0.0,0.0,14282,11354,34839,40605,39663,2
0.0,0.0,0.0,14282,11354,34874,40562,39578,2
0.0,0.0,0.0,14311,11379,34874,40605,39663,2
0.0,0.0,0.0,14311,11416,34839,40649,39663,2
0.0,0.0,0.0,14311,11428,34839,40605,39747,2
0.0,0.0,0.0,14341,11453,34767,40562,39663,2
0.0,0.0,0.0,14326,11453,34803,40562,39621,2
0.0,0.0,0.0,14311,11465,34839,40519,39621,2
0.0,0.0,0.0,14326,11465,34839,40519,39663,2
0.0,0.0,0.0,14370,11503,34874,40605,39663,2
0.0,0.0,0.0,14370,11503,34874,40519,39494,2
0.0,0.0,0.0,14370,11503,34874,40519,39578,2
0.0,0.0,0.0,14385,11515,34839,40475,39663,2
0.0,0.0,0.0,14385,11528,34839,40475,39832,2
0.0,0.0,0.0,14399,11553,34839,40562,39578,2
0.0,0.0,0.0,14355,11553,34839,40519,39578,2
0.0,0.0,0.0,14341,11553,34803,40519,39663,2
0.0,0.0,0.0,14326,11528,34803,40475,39578,2
0.0,0.0,0.0,14326,11515,34767,40475,39536,2
0.0,0.0,0.0,14370,11515,34767,40475,39663,2
0.0,0.0,0.0,14370,11528,34767,40432,39536,2
0.0,0.0,0.0,14355,11528,34696,40519,39494,2
0.0,0.0,0.0,14326,11503,34731,40475,39494,2
0.0,0.0,0.0,14311,11478,34624,40389,39536,2
0.0,0.0,0.0,14429,11440,34589,40432,39578,2
0.0,0.0,0.0,14666,11354,34553,40432,39494,2
0.0,0.0,0.0,14801,11304,34553,40346,39536,2
0.0,0.0,0.0,14907,11268,34660,40432,39663,2
0.0,0.0,0.0,14937,11243,34696,40346,39663,2
0.0,0.0,0.0,14922,11206,34589,40389,39578,2
0.0,0.0,0.0,14907,11206,34696,40302,39494,2
0.0,0.0,0.0,14861,11194,34553,40389,39411,2
0.0,0.0,0.0,14876,11182,34624,40346,39411,2
0.0,0.0,0.0,14861,11170,34518,40346,39494,2
0.0,0.0,0.0,14861,11182,34553,40216,39411,2
0.0,0.0,0.0,14801,11182,34553,40216,39369,2
0.0,0.0,0.0,14846,11182,34518,40302,39327,2
0.0,0.0,0.0,14801,11206,34412,40259,39327,2
0.0,0.0,0.0,14861,11206,34412,40346,39327,2
0.0,0.0,0.0,14846,11206,34376,40259,39327,2
0.0,0.0,0.0,14816,11219,34341,40346,39327,2
0.0,0.0,0.0,14801,11231,34341,40346,39327,2
0.0,0.0,0.0,14846,11231,34341,40259,39327,2
0.0,0.0,0.0,14846,11243,34341,40216,39244,2
0.0,0.0,0.0,14846,11231,34341,40173,39327,2
0.0,0.0,0.0,14831,11255,34341,40216,39327,2
0.0,0.0,0.0,14786,11255,34271,40173,39327,2
0.0,0.0,0.0,14786,11255,34271,40173,39327,2
0.0,0.0,0.0,14786,11243,34200,40173,39244,2
0.0,0.0,0.0,14786,11255,34165,40216,39285,2
0.0,0.0,0.0,14801,11255,34271,40131,39285,2
0.0,0.0,0.0,14786,11255,34271,40088,39244,2
0.0,0.0,0.0,14801,11280,34235,40173,39244,2
0.0,0.0,0.0,14801,11292,34235,40088,39327,2
0.0,0.0,0.0,14726,11280,34165,40346,39244,2
0.0,0.0,0.0,14786,11304,34235,40088,39327,2
0.0,0.0,0.0,14846,11304,34200,40173,39202,2
0.0,0.0,0.0,14801,11317,34235,40088,39244,2
0.0,0.0,0.0,14801,11329,34200,40045,39244,2
0.0,0.0,0.0,14786,11317,34200,40131,39160,2
0.0,0.0,0.0,14801,11341,34200,40088,39244,2
0.0,0.0,0.0,14786,11354,34130,40173,39160,2
0.0,0.0,0.0,14786,11354,34165,40131,39244,2
0.0,0.0,0.0,14786,11354,34130,40088,39244,2
0.0,0.0,0.0,14741,11379,34200,40045,39244,2
0.0,0.0,0.0,14756,11354,34200,40088,39160,2
0.0,0.0,0.0,14756,11366,34165,40045,39202,2
0.0,0.0,0.0,14741,11366,34130,40045,39160,2
0.0,0.0,0.0,14756,11379,34165,40002,39160,2
0.0,0.0,0.0,14726,11403,34165,40088,39036,2
0.0,0.0,0.0,14741,11403,34165,40131,39077,2
0.0,0.0,0.0,14741,11391,34200,40045,39160,2
0.0,0.0,0.0,14741,11416,34200,40088,39160,2
0.0,0.0,0.0,14756,11403,34165,40045,39160,2
0.0,0.0,0.0,14741,11416,34130,40088,39160,2
0.0,0.0,0.0,14756,11416,34200,40045,39119,2
0.0,0.0,0.0,14741,11403,34165,39917,39077,2
0.0,0.0,0.0,14726,11416,34165,40045,38995,2
0.0,0.0,0.0,14726,11416,34200,40002,39160,2
0.0,0.0,0.0,14741,11428,34165,40002,39077,2
0.0,0.0,0.0,14726,11453,34165,39874,39160,2
0.0,0.0,0.0,14726,11490,34130,40002,39036,2
0.0,0.0,0.0,14741,11515,34165,40002,38995,2
0.0,0.0,0.0,14741,11528,34165,39917,38995,2
0.0,0.0,0.0,14756,11515,34200,39874,38995,2
0.0,0.0,0.0,14741,11528,34200,39832,39036,2
0.0,0.0,0.0,14726,11503,34130,39917,38995,2
0.0,0.0,0.0,14726,11553,34130,40002,38953,2
0.0,0.0,0.0,14801,11503,34130,39960,38995,2
0.0,0.0,0.0,14861,11515,34130,39917,38995,2
0.0,0.0,0.0,14846,11503,34026,39917,39077,2
0.0,0.0,0.0,14801,11478,34095,39917,38995,2
0.0,0.0,0.0,14801,11453,34026,39917,38995,2
0.0,0.0,0.0,14801,11478,34060,39960,38995,2
0.0,0.0,0.0,14756,11453,34026,40002,38871,2
0.0,0.0,0.0,14771,11465,33991,39917,38953,2
0.0,0.0,0.0,14786,11453,33991,39874,38871,2
0.0,0.0,0.0,14786,11453,33991,39874,38995,2
0.0,0.0,0.0,14756,11440,33956,39832,38995,2
0.0,0.0,0.0,14756,11440,33991,39917,38830,2
0.0,0.0,0.0,14756,11453,33991,39832,38830,2
0.0,0.0,0.0,14726,11465,33921,39790,38912,2
0.0,0.0,0.0,14741,11465,33921,39790,38830,2
0.0,0.0,0.0,14756,11478,33921,39790,38953,2
0.0,0.0,0.0,14756,11453,33991,39790,38789,2
0.0,0.0,0.0,14786,11453,33887,39790,38748,2
0.0,0.0,0.0,14756,11478,33956,39832,38789,2
0.0,0.0,0.0,14741,11465,33921,39705,38871,2
0.0,0.0,0.0,14756,11465,33921,39790,38830,2
0.0,0.0,0.0,14756,11453,33887,39747,38830,2
0.0,0.0,0.0,14756,11453,33887,39747,38830,2
0.0,0.0,0.0,14741,11453,33852,39747,38871,2
0.0,0.0,0.0,14726,11453,33852,39747,38830,2
0.0,0.0,0.0,14726,11453,33852,39747,38789,2
0.0,0.0,0.0,14741,11478,33817,39663,38748,2
0.0,0.0,0.0,14741,11465,33748,39747,38789,2
0.0,0.0,0.0,14726,11465,33852,39747,38789,2
0.0,0.0,0.0,14681,11478,33852,39747,38748,2
0.0,0.0,0.0,14756,11453,33783,39705,38830,2
0.0,0.0,0.0,14726,11465,33783,39747,38748,2
0.0,0.0,0.0,14726,11465,33783,39663,38666,2
0.0,0.0,0.0,14711,11515,33852,39747,38748,2
0.0,0.0,0.0,14726,11503,33748,39663,38707,2
0.0,0.0,0.0,14726,11515,33817,39705,38748,2
0.0,0.0,0.0,14741,11503,33783,39621,38748,2
0.0,0.0,0.0,14726,11453,33748,39663,38666,2
0.0,0.0,0.0,14726,11416,33714,39578,38666,2
0.0,0.0,0.0,14696,11403,33679,39621,38666,2
0.0,0.0,0.0,14726,11354,33645,39536,38625,2
0.0,0.0,0.0,14681,11354,33645,39578,38666,2
0.0,0.0,0.0,14696,11354,33576,39536,38748,2
0.0,0.0,0.0,14681,11354,33611,39536,38585,2
0.0,0.0,0.0,14681,11354,33679,39578,38585,2
0.0,0.0,0.0,14666,11317,33645,39536,38585,2
0.0,0.0,0.0,14621,11268,33714,39494,38585,2
0.0,0.0,0.0,14607,11206,33714,39327,38544,2
0.0,0.0,0.0,14607,11219,33611,39369,38503,2
0.0,0.0,0.0,14607,11206,33611,39369,38585,2
0.0,0.0,0.0,14592,11231,33542,39327,38585,2
0.0,0.0,0.0,14607,11219,33508,39327,38503,2
0.0,0.0,0.0,14607,11231,33508,39327,38585,2
0.0,0.0,0.0,14577,11255,33508,39244,38503,2
0.0,0.0,0.0,14607,11255,33439,39244,38503,2
0.0,0.0,0.0,14607,11219,33439,39244,38585,2
0.0,0.0,0.0,14562,11231,33371,39327,38422,2
0.0,0.0,0.0,14562,11206,33439,39244,38422,2
0.0,0.0,0.0,14607,11206,33439,39160,38463,2
0.0,0.0,0.0,14607,11206,33405,39285,38382,2
0.0,0.0,0.0,14592,11206,33439,39160,38503,2
0.0,0.0,0.0,14577,11206,33405,39160,38341,2
0.0,0.0,0.0,14577,11206,33439,39244,38341,2
0.0,0.0,0.0,14592,11206,33337,39244,38341,2
0.0,0.0,0.0,14607,11206,33371,39202,38422,2
0.0,0.0,0.0,14577,11206,33371,39119,38341,2
0.0,0.0,0.0,14577,11206,33439,39160,38260,2
0.0,0.0,0.0,14621,11206,33337,39036,38341,2
0.0,0.0,0.0,14577,11194,33405,39202,38260,2
0.0,0.0,0.0,14607,11206,33303,39077,38260,2
0.0,0.0,0.0,14607,11206,33337,39036,38301,2
0.0,0.0,0.0,14577,11219,33337,39036,38341,2
0.0,0.0,0.0,14607,11182,33337,39036,38220,2
0.0,0.0,0.0,14607,11206,33337,38995,38260,2
0.0,0.0,0.0,14607,11206,33269,39077,38260,2
0.0,0.0,0.0,14607,11206,33303,38953,38220,2
0.0,0.0,0.0,14607,11219,33303,38912,38220,2
0.0,0.0,0.0,14592,11219,33303,39036,38180,2
0.0,0.0,0.0,14621,11206,33269,39036,38260,2
0.0,0.0,0.0,14577,11206,33303,38995,38341,2
0.0,0.0,0.0,14607,11206,33236,38995,38220,2
0.0,0.0,0.0,14577,11182,33236,38995,38180,2
0.0,0.0,0.0,14621,11170,33269,38995,38180,2
0.0,0.0,0.0,14607,11182,33303,38995,38180,2
0.0,0.0,0.0,14577,11157,33236,38912,38180,2
0.0,0.0,0.0,14592,11157,33236,38995,38260,2
0.0,0.0,0.0,14607,11157,33236,38995,38140,2
0.0,0.0,0.0,14577,11182,33202,38871,38100,2
0.0,0.0,0.0,14607,11170,33202,38871,38180,2
0.0,0.0,0.0,14607,11157,33202,38871,38140,2
0.0,0.0,0.0,14607,11157,33202,38953,38260,2
0.0,0.0,0.0,14621,11182,33168,38871,38180,2
0.0,0.0,0.0,14607,11170,33202,38830,38140,2
0.0,0.0,0.0,14607,11170,33236,38912,38180,2
0.0,0.0,0.0,14607,11157,33202,38830,38100,2
0.0,0.0,0.0,14607,11157,33236,38871,38100,2
0.0,0.0,0.0,14577,11170,33202,38871,38100,2
0.0,0.0,0.0,14607,11182,33134,38830,38140,2
0.0,0.0,0.0,14592,11170,33202,38871,38019,2
0.0,0.0,0.0,14607,11170,33168,38789,38140,2
0.0,0.0,0.0,14607,11182,33168,38830,38180,2
0.0,0.0,0.0,14621,11170,33168,38748,38180,2
0.0,0.0,0.0,14607,11182,33168,38830,38260,2
0.0,0.0,0.0,14621,11206,33168,38830,38180,2
0.0,0.0,0.0,14636,11206,33134,38789,38140,2
0.0,0.0,0.0,14621,11206,33168,38871,38100,2
0.0,0.0,0.0,14621,11219,33134,38789,38019,2
0.0,0.0,0.0,14651,11219,33168,38748,38019,2
0.0,0.0,0.0,14636,11206,33100,38748,38100,2
0.0,0.0,0.0,14666,11231,33134,38666,38100,2
0.0,0.0,0.0,14636,11219,33134,38748,37980,2
0.0,0.0,0.0,14681,11255,33100,38666,38019,2
0.0,0.0,0.0,14696,11255,33067,38748,38019,2
0.0,0.0,0.0,14666,11231,33100,38789,38059,2
0.0,0.0,0.0,14696,11255,33067,38789,38059,2
0.0,0.0,0.0,14696,11255,33100,38707,37940,2
0.0,0.0,0.0,14696,11255,33100,38748,38019,2
0.0,0.0,0.0,14666,11255,33100,38748,38019,2
0.0,0.0,0.0,14726,11255,33100,38666,38019,2
0.0,0.0,0.0,14696,11255,33168,38707,37980,2
0.0,0.0,0.0,14666,11268,33168,38666,38019,2
0.0,0.0,0.0,14726,11255,33168,38748,37940,2
0.0,0.0,0.0,14696,11255,33100,38707,38019,2
0.0,0.0,0.0,14696,11255,33100,38707,38019,2
0.0,0.0,0.0,14726,11304,33067,38707,37940,2
0.0,0.0,0.0,14726,11280,33067,38707,37980,2
0.0,0.0,0.0,14726,11268,33033,38748,37940,2
0.0,0.0,0.0,14726,11268,33100,38666,38019,2
0.0,0.0,0.0,14726,11304,33067,38707,37940,2
0.0,0.0,0.0,14711,11268,33067,38666,37940,2
0.0,0.0,0.0,14741,11268,32966,38707,37940,2
0.0,0.0,0.0,14726,11268,33033,38666,37980,2
0.0,0.0,0.0,14711,11255,32966,38666,37900,2
0.0,0.0,0.0,14741,11280,33033,38707,37940,2
0.0,0.0,0.0,14726,11268,33033,38666,37900,2
0.0,0.0,0.0,14726,11268,33033,38585,37940,2
0.0,0.0,0.0,14696,11280,32966,38585,38019,2
0.0,0.0,0.0,14696,11268,33033,38585,37900,2
0.0,0.0,0.0,14726,11280,32932,38544,38019,2
0.0,0.0,0.0,14726,11255,32899,38544,37980,2
0.0,0.0,0.0,14756,11304,32932,38382,37940,2
0.0,0.0,0.0,14726,11255,32899,38382,37940,2
0.0,0.0,0.0,14696,11255,32899,38422,37860,2
0.0,0.0,0.0,14756,11280,32899,38341,38019,2
0.0,0.0,0.0,14726,11255,32832,38422,37860,2
0.0,0.0,0.0,14726,11292,32899,38382,37820,2
0.0,0.0,0.0,14771,11255,32832,38422,37860,2
0.0,0.0,0.0,14741,11255,32832,38341,37940,2
0.0,0.0,0.0,14786,11255,32799,38422,37860,2
0.0,0.0,0.0,14786,11268,32832,38341,37860,2
0.0,0.0,0.0,14756,11255,32765,38422,37820,2
0.0,0.0,0.0,14786,11268,32799,38463,37781,2
0.0,0.0,0.0,14846,11268,32832,38422,37781,2
0.0,0.0,0.0,14816,11268,32799,38301,37860,2
0.0,0.0,0.0,14816,11255,32832,38422,37781,2
0.0,0.0,0.0,14801,11280,32832,38341,37820,2
0.0,0.0,0.0,14786,11255,32832,38382,37781,2
0.0,0.0,0.0,14786,11280,32765,38382,37741,2
0.0,0.0,0.0,14801,11280,32765,38382,37860,2
0.0,0.0,0.0,14861,11304,32765,38301,37860,2
0.0,0.0,0.0,14786,11280,32765,38341,37860,2
0.0,0.0,0.0,14801,11280,32799,38382,37860,2
0.0,0.0,0.0,14846,11292,32799,38341,37860,2
0.0,0.0,0.0,14846,11268,32765,38341,37781,2
0.0,0.0,0.0,14861,11304,32732,38341,37860,2
0.0,0.0,0.0,14967,11304,32666,38341,37860,2
0.0,0.0,0.0,14952,11304,32765,38341,37741,2
0.0,0.0,0.0,14967,11304,32765,38341,37860,2
0.0,0.0,0.0,14982,11304,32699,38260,37900,2
0.0,0.0,0.0,14982,11304,32699,38382,37860,2
0.0,0.0,0.0,14997,11304,32732,38220,37860,2
0.0,0.0,0.0,14967,11317,32633,38341,37860,2
0.0,0.0,0.0,14982,11304,32566,38260,37940,2
0.0,0.0,0.0,14967,11317,32633,38180,37900,2
0.0,0.0,0.0,14982,11329,32533,38341,37860,2
0.0,0.0,0.0,15028,11354,32566,38180,37940,2
0.0,0.0,0.0,14997,11354,32533,38260,37820,2
0.0,0.0,0.0,14997,11354,32500,38180,37900,2
0.0,0.0,0.0,15028,11354,32533,38100,37900,2
0.0,0.0,0.0,15058,11329,32500,38220,37940,2
0.0,0.0,0.0,15074,11354,32533,38180,37940,2
0.0,0.0,0.0,15089,11354,32500,38019,37820,2
0.0,0.0,0.0,15104,11379,32500,38180,37900,2
0.0,0.0,0.0,15119,11354,32500,38180,37820,2
0.0,0.0,0.0,15119,11379,32500,38140,37781,2
0.0,0.0,0.0,15119,11379,32467,38180,37860,2
0.0,0.0,0.0,15119,11354,32500,38180,37940,2
0.0,0.0,0.0,15119,11379,32402,38260,37860,2
0.0,0.0,0.0,15211,11379,32369,38220,37741,2
0.0,0.0,0.0,15211,11366,32500,38140,37820,2
0.0,0.0,0.0,15273,11379,32533,38180,37860,2
0.0,0.0,0.0,15227,11366,32467,38140,37820,2
0.0,0.0,0.0,15273,11403,32435,38180,37820,2
0.0,0.0,0.0,15319,11416,32500,38019,37940,2
0.0,0.0,0.0,15335,11403,32435,38019,37820,2
0.0,0.0,0.0,15366,11403,32435,38019,37820,2
0.0,0.0,0.0,15366,11403,32435,38019,37781,2
0.0,0.0,0.0,15350,11428,32402,38019,37781,2
0.0,0.0,0.0,15366,11428,32435,37940,37860,2
0.0,0.0,0.0,15397,11416,32336,38019,37781,2
0.0,0.0,0.0,15381,11453,32369,37980,37781,2
0.0,0.0,0.0,15428,11428,32369,38019,37900,2
0.0,0.0,0.0,15397,11453,32369,38059,37701,2
0.0,0.0,0.0,15428,11453,32369,38019,37860,2
0.0,0.0,0.0,15428,11416,32369,38019,37781,2
0.0,0.0,0.0,15412,11453,32271,38059,37820,2
0.0,0.0,0.0,15397,11453,32271,37940,37781,2
0.0,0.0,0.0,15443,11453,32402,38019,37900,2
0.0,0.0,0.0,15412,11453,32369,38019,37820,2
0.0,0.0,0.0,15412,11453,32369,38019,37781,2
0.0,0.0,0.0,15412,11440,32303,38019,37701,2
0.0,0.0,0.0,15412,11428,32303,37940,37820,2
0.0,0.0,0.0,15459,11453,32303,38100,37701,2
0.0,0.0,0.0,15381,11453,32369,37980,37701,2
0.0,0.0,0.0,15412,11453,32238,38019,37781,2
0.0,0.0,0.0,15412,11453,32271,37940,37741,2
0.0,0.0,0.0,15397,11440,32303,38019,37701,2
0.0,0.0,0.0,15412,11416,32238,38019,37701,2
0.0,0.0,0.0,15366,11416,32238,37980,37741,2
0.0,0.0,0.0,15350,11403,32271,37940,37701,2
0.0,0.0,0.0,15366,11428,32303,37940,37781,2
0.0,0.0,0.0,15475,11403,32238,38059,37662,2
0.0,0.0,0.0,15428,11416,32238,37940,37701,2
0.0,0.0,0.0,15521,11403,32238,38019,37900,2
0.0,0.0,0.0,15521,11416,32238,38019,37781,2
0.0,0.0,0.0,15521,11428,32238,37940,37781,2
0.0,0.0,0.0,15537,11416,32238,37940,37662,2
0.0,0.0,0.0,15521,11403,32238,38019,37701,2
0.0,0.0,0.0,15490,11403,32173,38019,37701,2
0.0,0.0,0.0,15490,11416,32238,37980,37701,2
0.0,0.0,0.0,15490,11403,32205,38019,37781,2
0.0,0.0,0.0,15459,11403,32238,38019,37701,2
0.0,0.0,0.0,15459,11403,32205,37900,37662,2
0.0,0.0,0.0,15459,11403,32173,37940,37741,2
0.0,0.0,0.0,15459,11403,32173,38100,37583,2
0.0,0.0,0.0,15490,11403,32173,38019,37622,2
0.0,0.0,0.0,15459,11403,32205,38019,37741,2
0.0,0.0,0.0,15475,11403,32173,38059,37701,2
0.0,0.0,0.0,15475,11403,32173,38019,37622,2
0.0,0.0,0.0,15475,11403,32205,38019,37622,2
0.0,0.0,0.0,15459,11403,32173,37980,37583,2
0.0,0.0,0.0,15459,11403,32140,37940,37701,2
0.0,0.0,0.0,15459,11416,32173,37980,37622,2
0.0,0.0,0.0,15459,11416,32173,37940,37583,2
0.0,0.0,0.0,15412,11416,32173,37860,37701,2
0.0,0.0,0.0,15459,11403,32173,38019,37622,2
0.0,0.0,0.0,15397,11416,32173,37940,37622,2
0.0,0.0,0.0,15412,11416,32108,37940,37701,2
0.0,0.0,0.0,15412,11428,32238,37980,37622,2
0.0,0.0,0.0,15428,11416,32140,38019,37583,2
0.0,0.0,0.0,15397,11416,32205,37980,37622,2
0.0,0.0,0.0,15397,11440,32173,38019,37622,2
0.0,0.0,0.0,15397,11416,32173,38019,37543,2
0.0,0.0,0.0,15412,11428,32238,38019,37622,2
0.0,0.0,0.0,15397,11416,32140,37940,37701,2
0.0,0.0,0.0,15397,11453,32238,37860,37583,2
0.0,0.0,0.0,15366,11453,32238,38019,37583,2
0.0,0.0,0.0,15397,11453,32238,37940,37622,2
0.0,0.0,0.0,15366,11453,32238,37940,37583,2
0.0,0.0,0.0,15397,11453,32238,38019,37543,2
0.0,0.0,0.0,15397,11453,32271,37900,37426,2
0.0,0.0,0.0,15412,11453,32238,38059,37543,2
0.0,0.0,0.0,15397,11453,32238,38019,37583,2
0.0,0.0,0.0,15412,11478,32238,37980,37543,2
0.0,0.0,0.0,15412,11453,32238,38019,37465,2
0.0,0.0,0.0,15412,11478,32271,38019,37543,2
0.0,0.0,0.0,15397,11453,32238,38019,37504,2
0.0,0.0,0.0,15397,11453,32238,38019,37543,2
0.0,0.0,0.0,15412,11453,32271,37940,37465,2
0.0,0.0,0.0,15397,11453,32238,37940,37465,2
0.0,0.0,0.0,15397,11453,32238,37940,37543,2
0.0,0.0,0.0,15397,11453,32205,38019,37543,2
0.0,0.0,0.0,15412,11453,32173,38019,37543,2
0.0,0.0,0.0,15397,11453,32238,37940,37543,2
0.0,0.0,0.0,15397,11465,32238,37701,37504,2
0.0,0.0,0.0,15397,11478,32173,37940,37465,2
0.0,0.0,0.0,15412,11478,32238,37940,37543,2
0.0,0.0,0.0,15397,11503,32173,37900,37543,2
0.0,0.0,0.0,15428,11465,32173,37940,37465,2
0.0,0.0,0.0,15459,11478,32205,37860,37465,2
0.0,0.0,0.0,15428,11453,32238,37940,37465,2
0.0,0.0,0.0,15428,11453,32173,37940,37465,2
0.0,0.0,0.0,15428,11453,32205,37940,37465,2
0.0,0.0,0.0,15459,11453,32108,37940,37465,2
0.0,0.0,0.0,15459,11453,32140,37860,37426,2
0.0,0.0,0.0,15459,11453,32108,37860,37465,2
0.0,0.0,0.0,15459,11440,32173,37940,37543,2
0.0,0.0,0.0,15459,11453,32173,37940,37465,2
0.0,0.0,0.0,15490,11416,32108,37860,37504,2
0.0,0.0,0.0,15459,11453,32108,37860,37386,2
0.0,0.0,0.0,15506,11453,32108,38019,37426,2
0.0,0.0,0.0,15475,11453,32238,37860,37465,2
0.0,0.0,0.0,15506,11428,32140,37940,37504,2
0.0,0.0,0.0,15521,11453,32140,37781,37465,2
0.0,0.0,0.0,15521,11428,32140,37820,37465,2
0.0,0.0,0.0,15521,11403,32108,37860,37269,2
0.0,0.0,0.0,15506,11391,32173,37940,37386,2
0.0,0.0,0.0,15521,11329,32108,37781,37386,2
0.0,0.0,0.0,15490,11341,32173,37860,37347,2
0.0,0.0,0.0,15459,11329,32140,37781,37426,2
0.0,0.0,0.0,15459,11317,32108,37741,37308,2
0.0,0.0,0.0,15459,11304,32108,37741,37308,2
0.0,0.0,0.0,15443,11317,32043,37741,37386,2
0.0,0.0,0.0,15475,11317,32108,37701,37465,2
0.0,0.0,0.0,15428,11317,32043,37701,37386,2
0.0,0.0,0.0,15459,11304,32108,37741,37386,2
0.0,0.0,0.0,15459,11304,32010,37701,37347,2
0.0,0.0,0.0,15428,11304,32043,37701,37347,2
0.0,0.0,0.0,15397,11304,32043,37701,37347,2
0.0,0.0,0.0,15412,11304,32010,37701,37308,2
0.0,0.0,0.0,15350,11304,32043,37701,37269,2
0.0,0.0,0.0,15397,11304,31978,37701,37386,2
0.0,0.0,0.0,15397,11304,32043,37583,37347,2
0.0,0.0,0.0,15350,11304,32043,37701,37230,2
0.0,0.0,0.0,15350,11304,32010,37583,37386,2
0.0,0.0,0.0,15335,11304,31978,37622,37308,2
0.0,0.0,0.0,15350,11304,31978,37662,37308,2
0.0,0.0,0.0,15366,11304,32108,37701,37386,2
0.0,0.0,0.0,15366,11304,32043,37622,37308,2
0.0,0.0,0.0,15397,11304,31881,37701,37230,2
0.0,0.0,0.0,15397,11317,31978,37622,37230,2
0.0,0.0,0.0,15412,11304,31946,37701,37347,2
0.0,0.0,0.0,15459,11317,31946,37622,37269,2
0.0,0.0,0.0,15475,11304,31946,37701,37230,2
0.0,0.0,0.0,15475,11304,31978,37701,37308,2
0.0,0.0,0.0,15537,11317,31978,37701,37230,2
0.0,0.0,0.0,15521,11304,31978,37741,37152,2
0.0,0.0,0.0,15537,11354,31978,37701,37230,2
0.0,0.0,0.0,15537,11317,31913,37662,37269,2
0.0,0.0,0.0,15537,11304,31978,37662,37152,2
0.0,0.0,0.0,15553,11329,31978,37622,37230,2
0.0,0.0,0.0,15537,11329,31978,37781,37269,2
0.0,0.0,0.0,15584,11354,31881,37701,37230,2
0.0,0.0,0.0,15584,11329,31946,37701,37308,2
0.0,0.0,0.0,15553,11317,31978,37701,37230,2
0.0,0.0,0.0,15568,11317,31881,37622,37308,2
0.0,0.0,0.0,15584,11317,31913,37662,37308,2
0.0,0.0,0.0,15553,11329,31881,37622,37269,2
0.0,0.0,0.0,15584,11329,31881,37583,37230,2
0.0,0.0,0.0,15600,11304,31881,37662,37230,2
0.0,0.0,0.0,15584,11317,31849,37543,37230,2
0.0,0.0,0.0,15584,11354,31849,37504,37230,2
0.0,0.0,0.0,15584,11329,31881,37543,37191,2
0.0,0.0,0.0,15584,11329,31881,37583,37191,2
0.0,0.0,0.0,15568,11341,31913,37583,37230,2
0.0,0.0,0.0,15553,11329,31881,37543,37152,2
0.0,0.0,0.0,15553,11341,31881,37583,37230,2
0.0,0.0,0.0,15537,11317,31881,37622,37191,2
0.0,0.0,0.0,15584,11329,31849,37583,37191,2
0.0,0.0,0.0,15584,11329,31849,37543,37191,2
0.0,0.0,0.0,15584,11329,31849,37543,37114,2
0.0,0.0,0.0,15600,11329,31881,37622,37114,2
0.0,0.0,0.0,15647,11329,31817,37583,37152,2
0.0,0.0,0.0,15710,11304,31817,37622,37191,2
0.0,0.0,0.0,15741,11354,31881,37622,37114,2
0.0,0.0,0.0,15789,11354,31849,37622,37230,2
0.0,0.0,0.0,15837,11354,31849,37662,37075,2
0.0,0.0,0.0,15821,11354,31849,37622,37230,2
0.0,0.0,0.0,15837,11329,31849,37701,37075,2
0.0,0.0,0.0,15789,11354,31881,37662,37152,2
0.0,0.0,0.0,15789,11354,31881,37662,37191,2
0.0,0.0,0.0,15773,11354,31978,37622,37075,2
0.0,0.0,0.0,15789,11354,31913,37701,37152,2
0.0,0.0,0.0,15789,11341,31881,37543,37191,2
0.0,0.0,0.0,15837,11354,31849,37701,37075,2
0.0,0.0,0.0,15789,11354,31849,37583,37230,2
0.0,0.0,0.0,15789,11354,31849,37543,37230,2
0.0,0.0,0.0,15789,11379,31881,37622,37191,2
0.0,0.0,0.0,15837,11354,31849,37583,37152,2
0.0,0.0,0.0,15789,11354,31817,37701,36998,2
0.0,0.0,0.0,15773,11354,31881,37583,37075,2
0.0,0.0,0.0,15773,11366,31849,37504,37075,2
0.0,0.0,0.0,15741,11354,31849,37583,36998,2
0.0,0.0,0.0,15741,11379,31849,37543,37114,2
0.0,0.0,0.0,15741,11403,31849,37504,37152,2
0.0,0.0,0.0,15726,11403,31849,37583,37075,2
0.0,0.0,0.0,15773,11379,31849,37583,37075,2
0.0,0.0,0.0,15710,11354,31817,37543,37152,2
0.0,0.0,0.0,15773,11379,31849,37543,37075,2
0.0,0.0,0.0,15710,11366,31881,37504,36998,2
0.0,0.0,0.0,15726,11403,31849,37504,37075,2
0.0,0.0,0.0,15710,11403,31849,37426,37036,2
0.0,0.0,0.0,15726,11403,31817,37465,37075,2
0.0,0.0,0.0,15741,11403,31785,37465,37114,2
0.0,0.0,0.0,15710,11403,31849,37426,36998,2
0.0,0.0,0.0,15710,11403,31849,37465,37075,2
0.0,0.0,0.0,15710,11379,31849,37543,37075,2
0.0,0.0,0.0,15710,11379,31881,37465,36998,2
0.0,0.0,0.0,15741,11366,31849,37426,36998,2
0.0,0.0,0.0,15710,11366,31785,37543,36959,2
0.0,0.0,0.0,15710,11379,31849,37543,36998,2
0.0,0.0,0.0,15710,11366,31817,37504,36998,2
0.0,0.0,0.0,15678,11366,31849,37543,37075,2
0.0,0.0,0.0,15710,11366,31752,37426,36998,2
0.0,0.0,0.0,15678,11379,31817,37426,36998,2
0.0,0.0,0.0,15694,11379,31849,37465,37075,2
0.0,0.0,0.0,15678,11403,31817,37386,36998,2
0.0,0.0,0.0,15694,11403,31720,37426,36920,2
0.0,0.0,0.0,15647,11403,31785,37426,37075,2
0.0,0.0,0.0,15631,11403,31785,37465,36843,2
0.0,0.0,0.0,15647,11403,31752,37426,36998,2
0.0,0.0,0.0,15678,11403,31849,37426,36998,2
0.0,0.0,0.0,15663,11366,31785,37386,36920,2
0.0,0.0,0.0,15647,11379,31785,37386,36959,2
0.0,0.0,0.0,15647,11403,31720,37426,36959,2
0.0,0.0,0.0,15647,11416,31785,37386,36959,2
0.0,0.0,0.0,15615,11403,31752,37386,36998,2
0.0,0.0,0.0,15647,11403,31688,37426,36959,2
0.0,0.0,0.0,15663,11416,31720,37426,36959,2
0.0,0.0,0.0,15678,11403,31849,37426,36920,2
0.0,0.0,0.0,15678,11403,31785,37386,36843,2
0.0,0.0,0.0,15647,11391,31785,37347,36920,2
0.0,0.0,0.0,15663,11366,31752,37386,36959,2
0.0,0.0,0.0,15678,11403,31720,37386,36843,2
0.0,0.0,0.0,15647,11416,31720,37426,36882,2
0.0,0.0,0.0,15647,11416,31688,37269,36882,2
0.0,0.0,0.0,15663,11403,31752,37386,36843,2
0.0,0.0,0.0,15678,11416,31785,37386,36959,2
0.0,0.0,0.0,15663,11453,31720,37386,36843,2
0.0,0.0,0.0,15647,11428,31752,37347,36882,2
0.0,0.0,0.0,15663,11440,31720,37308,36920,2
0.0,0.0,0.0,15647,11453,31752,37347,36920,2
0.0,0.0,0.0,15663,11428,31720,37347,36767,2
0.0,0.0,0.0,15647,11453,31752,37386,36767,2
0.0,0.0,0.0,15663,11428,31752,37347,36843,2
0.0,0.0,0.0,15663,11440,31752,37308,36843,2
0.0,0.0,0.0,15647,11428,31785,37386,36805,2
0.0,0.0,0.0,15647,11428,31720,37386,36767,2
0.0,0.0,0.0,15647,11428,31817,37386,36843,2
0.0,0.0,0.0,15647,11428,31752,37269,36843,2
0.0,0.0,0.0,15647,11453,31752,37308,36843,2
0.0,0.0,0.0,15647,11428,31720,37386,36767,2
0.0,0.0,0.0,15647,11440,31752,37308,36728,2
0.0,0.0,0.0,15615,11428,31720,37308,36843,2
0.0,0.0,0.0,15615,11428,31688,37308,36805,2
0.0,0.0,0.0,15647,11428,31785,37347,36690,2
0.0,0.0,0.0,15647,11416,31785,37308,36805,2
0.0,0.0,0.0,15647,11403,31720,37269,36767,2
0.0,0.0,0.0,15600,11403,31688,37269,36805,2
0.0,0.0,0.0,15631,11416,31720,37308,36728,2
0.0,0.0,0.0,15631,11453,31720,37230,36767,2
0.0,0.0,0.0,15615,11428,31720,37269,36767,2
0.0,0.0,0.0,15647,11428,31720,37269,36767,2
0.0,0.0,0.0,15647,11416,31688,37308,36767,2
0.0,0.0,0.0,15631,11416,31752,37269,36767,2
0.0,0.0,0.0,15694,11453,31720,37269,36767,2
0.0,0.0,0.0,15821,11453,31720,37308,36843,2
0.0,0.0,0.0,15932,11465,31720,37386,36805,2
0.0,0.0,0.0,16060,11515,31656,37386,36882,2
0.0,0.0,0.0,16109,11553,31656,37543,36728,2
0.0,0.0,0.0,16189,11578,31720,37465,36920,2
0.0,0.0,0.0,16287,11603,31720,37543,36920,2
0.0,0.0,0.0,16368,11653,31881,37543,36920,2
0.0,0.0,0.0,16483,11628,31913,37622,36882,2
0.0,0.0,0.0,16549,11653,31913,37583,36882,2
0.0,0.0,0.0,16615,11640,31978,37701,36843,2
0.0,0.0,0.0,16681,11665,32108,37701,36843,2
0.0,0.0,0.0,16681,11703,32108,37860,36998,2
0.0,0.0,0.0,16648,11678,32010,37662,36920,2
0.0,0.0,0.0,16598,11665,31978,37426,36576,2
0.0,0.0,0.0,16565,11653,31978,37230,36010,2
0.0,0.0,0.0,16499,11653,31913,36882,35382,2
0.0,0.0,0.0,16499,11578,31881,36499,34767,2
0.0,0.0,0.0,16483,11553,31849,36235,34696,2
0.0,0.0,0.0,16417,11478,31881,36122,34589,2
0.0,0.0,0.0,16254,11403,32043,36348,34874,2
0.0,0.0,0.0,16157,11341,32108,36499,34946,2
0.0,0.0,0.0,16125,11317,32108,36462,34982,2
0.0,0.0,0.0,16093,11304,32108,36272,34982,2
0.0,0.0,0.0,16028,11304,32140,36235,34982,2
0.0,0.0,0.0,15996,11268,32140,36197,34839,2
0.0,0.0,0.0,15916,11292,32108,36047,34874,2
0.0,0.0,0.0,15837,11280,32108,36085,34910,2
0.0,0.0,0.0,15773,11255,32108,36122,34839,2
0.0,0.0,0.0,15710,11268,32010,36010,34910,2
0.0,0.0,0.0,15741,11255,32010,36085,35055,2
0.0,0.0,0.0,15726,11255,31978,36085,35861,2
0.0,0.0,0.0,15741,11255,31913,35935,35935,2
0.0,0.0,0.0,15710,11255,31978,35935,35787,2
0.0,0.0,0.0,15678,11231,32010,35898,35712,2
0.0,0.0,0.0,15710,11219,31978,35861,35676,2
0.0,0.0,0.0,15773,11219,31978,35935,35602,2
0.0,0.0,0.0,15678,11231,32010,35787,35418,2
0.0,0.0,0.0,15678,11231,32010,35712,35455,2
0.0,0.0,0.0,15647,11231,31978,35749,35418,2
0.0,0.0,0.0,15615,11231,31978,35749,35418,2
0.0,0.0,0.0,15600,11231,31913,35787,35418,2
0.0,0.0,0.0,15647,11231,31881,35787,35455,2
0.0,0.0,0.0,15615,11206,31849,35712,35455,2
0.0,0.0,0.0,15615,11219,31913,35787,35418,2
0.0,0.0,0.0,15600,11219,31881,35787,35418,2
0.0,0.0,0.0,15615,11231,31720,35824,35345,2
0.0,0.0,0.0,15600,11219,31785,35861,35345,2
0.0,0.0,0.0,15553,11231,31978,35935,35272,2
0.0,0.0,0.0,15568,11255,31978,35787,35309,2
0.0,0.0,0.0,15553,11243,31978,35676,35272,2
0.0,0.0,0.0,15553,11255,31913,35712,35272,2
0.0,0.0,0.0,15521,11255,31849,35639,35236,2
0.0,0.0,0.0,15537,11255,31849,35639,35272,2
0.0,0.0,0.0,15568,11255,31849,35639,35272,2
0.0,0.0,0.0,15537,11243,31849,35602,35199,2
0.0,0.0,0.0,15521,11255,31881,35602,35236,2
0.0,0.0,0.0,15521,11255,31913,35602,35272,2
0.0,0.0,0.0,15490,11255,31881,35602,35272,2
0.0,0.0,0.0,15521,11255,31881,35639,35199,2
0.0,0.0,0.0,15475,11219,31849,35602,35272,2
0.0,0.0,0.0,15537,11255,31849,35565,35309,2
0.0,0.0,0.0,15475,11255,31849,35565,35199,2
0.0,0.0,0.0,15521,11255,31881,35565,35199,2
0.0,0.0,0.0,15475,11280,31785,35455,35127,2
0.0,0.0,0.0,15521,11255,31817,35528,35272,2
0.0,0.0,0.0,15490,11231,31849,35565,35199,2
0.0,0.0,0.0,15506,11219,31817,35418,35236,2
0.0,0.0,0.0,15490,11231,31849,35565,35199,2
0.0,0.0,0.0,15521,11231,31785,35528,35163,2
0.0,0.0,0.0,15521,11219,31785,35492,35091,2
0.0,0.0,0.0,15521,11219,31720,35418,35055,2
0.0,0.0,0.0,15568,11206,31720,35309,35127,2
0.0,0.0,0.0,15553,11219,31656,35345,35055,2
0.0,0.0,0.0,15537,11206,31752,35309,35055,2
0.0,0.0,0.0,15506,11206,31849,35272,35091,2
0.0,0.0,0.0,15584,11219,32369,35272,35018,2
0.0,0.0,0.0,15553,11206,32467,35163,34982,2
0.0,0.0,0.0,15521,11219,32435,35055,34982,2
0.0,0.0,0.0,15521,11206,32271,35018,34982,2
0.0,0.0,0.0,15521,11219,32238,34946,34982,2
0.0,0.0,0.0,15490,11206,32140,34946,34803,2
0.0,0.0,0.0,15459,11255,32043,34982,34839,2
0.0,0.0,0.0,15443,11206,32043,34767,34731,2
0.0,0.0,0.0,15459,11182,31946,34910,34839,2
0.0,0.0,0.0,15428,11206,31785,34803,34767,2
0.0,0.0,0.0,15397,11182,31688,34767,34767,2
0.0,0.0,0.0,15397,11206,31656,34910,34660,2
0.0,0.0,0.0,15381,11206,31656,34874,34447,2
0.0,0.0,0.0,15319,11206,31720,34839,34271,2
0.0,0.0,0.0,14982,11182,31181,34624,33991,2
0.0,0.0,0.0,14209,11182,29568,34130,33645,2
0.0,0.0,0.0,13315,11170,27691,33337,33100,2
0.0,0.0,0.0,12636,11157,26228,32435,32765,2
0.0,0.0,0.0,12176,11133,25390,31529,32238,2
0.0,0.0,0.0,11855,11133,24534,30499,31276,2
0.0,0.0,0.0,11628,11133,24247,30105,30591,2
0.0,0.0,0.0,11453,11170,24034,30165,30591,2
0.0,0.0,0.0,11268,11157,24129,30591,30684,2
0.0,0.0,0.0,11206,11157,23684,30286,30530,2
0.0,0.0,0.0,11206,11133,23294,30015,30408,2
0.0,0.0,0.0,11219,11157,22843,29984,30226,2
0.0,0.0,0.0,11354,11157,22843,29984,30226,2
0.0,0.0,0.0,11503,11170,22932,30105,30195,2
0.0,0.0,0.0,11503,11157,22932,30045,30226,2
0.0,0.0,0.0,11528,11170,22955,30105,30226,2
0.0,0.0,0.0,11465,11182,22932,30226,30226,2
0.0,0.0,0.0,11453,11182,22955,30347,29895,2
0.0,0.0,0.0,11416,11157,22977,30105,29391,2
0.0,0.0,0.0,11403,11157,22955,29925,29042,2
0.0,0.0,0.0,11391,11182,22932,29746,28898,2
0.0,0.0,0.0,11403,11170,22932,29746,28927,2
0.0,0.0,0.0,11453,11182,22999,29775,29013,2
0.0,0.0,0.0,11553,11170,23180,29775,29187,2
0.0,0.0,0.0,11804,11170,23431,30045,29304,2
0.0,0.0,0.0,12021,11170,23569,30105,29450,2
0.0,0.0,0.0,12346,11157,23777,30286,29895,2
0.0,0.0,0.0,12504,11157,23847,30256,30165,2
0.0,0.0,0.0,12504,11170,23777,30226,30165,2
0.0,0.0,0.0,12530,11170,23777,30165,30165,2
0.0,0.0,0.0,12570,11206,23870,30715,30347,2
0.0,0.0,0.0,12451,11206,23661,30591,30347,2
0.0,0.0,0.0,12359,11219,23477,30499,30469,2
0.0,0.0,0.0,12060,11231,23225,30165,30347,2
0.0,0.0,0.0,11881,11206,23225,29984,29984,2
0.0,0.0,0.0,11855,11182,23180,29865,29865,2
0.0,0.0,0.0,11678,11170,23044,29627,29895,2
0.0,0.0,0.0,10582,11170,22554,29746,30286,2
0.0,0.0,0.0,10221,11170,22488,29775,30469,2
0.0,0.0,0.0,10255,11182,22576,29686,30317,2
0.0,0.0,0.0,10348,11170,22576,29835,30469,2
0.0,0.0,0.0,10348,11182,22576,29925,30469,2
0.0,0.0,0.0,10418,11206,22532,30105,30715,2
0.0,0.0,0.0,10582,11206,22665,30045,30653,2
0.0,0.0,0.0,10999,11219,22709,30045,30745,2
0.0,0.0,0.0,11416,11206,22466,29984,30622,2
0.0,0.0,0.0,11403,11219,22313,29865,30653,2
0.0,0.0,0.0,11317,11206,22270,29805,30715,2
0.0,0.0,0.0,11255,11206,22226,29865,30715,2
0.0,0.0,0.0,11255,11206,22226,29895,30745,2
0.0,0.0,0.0,11354,11206,22183,29865,30776,2
0.0,0.0,0.0,11268,11219,22205,29865,30745,2
0.0,0.0,0.0,11317,11219,22205,29805,30653,2
0.0,0.0,0.0,11317,11206,22161,29775,30622,2
0.0,0.0,0.0,11341,11206,22096,29775,30684,2
0.0,0.0,0.0,11329,11206,22140,29746,30745,2
0.0,0.0,0.0,11379,11182,22140,29746,30653,2
0.0,0.0,0.0,11379,11206,22118,29746,30838,2
0.0,0.0,0.0,11403,11157,22096,29686,30745,2
0.0,0.0,0.0,11403,11170,22053,29657,30745,2
0.0,0.0,0.0,11453,11157,22053,29627,30807,2
0.0,0.0,0.0,11453,11157,22032,29657,30869,2
0.0,0.0,0.0,11503,11157,22053,29657,30900,2
0.0,0.0,0.0,11515,11121,22053,29627,30962,2
0.0,0.0,0.0,11528,11109,22010,29657,30962,2
0.0,0.0,0.0,11515,11109,22053,29627,30994,2
0.0,0.0,0.0,11528,11109,22053,29597,30962,2
0.0,0.0,0.0,11553,11109,22053,29627,30994,2
0.0,0.0,0.0,11553,11109,22032,29568,31087,2
0.0,0.0,0.0,11578,11109,22053,29627,31087,2
0.0,0.0,0.0,11628,11109,22053,29568,31056,2
0.0,0.0,0.0,11628,11109,22053,29686,31025,2
0.0,0.0,0.0,11628,11109,22140,29686,31150,2
0.0,0.0,0.0,11653,11121,22140,29657,31087,2
0.0,0.0,0.0,11653,11133,22183,29686,31213,2
0.0,0.0,0.0,11615,11109,22248,29805,31339,2
0.0,0.0,0.0,11603,11109,22313,29955,31465,2
0.0,0.0,0.0,11628,11121,22357,29984,31465,2
0.0,0.0,0.0,11653,11133,22313,30045,31624,2
0.0,0.0,0.0,11665,11133,22423,30105,31752,2
0.0,0.0,0.0,11703,11133,22444,30165,31978,2
0.0,0.0,0.0,11754,11133,22488,30499,32336,2
0.0,0.0,0.0,11779,11157,22488,30715,32369,2
0.0,0.0,0.0,11868,11157,22532,31056,32699,2
0.0,0.0,0.0,11906,11182,22576,31465,33236,2
0.0,0.0,0.0,11868,11182,22532,31497,33236,2
0.0,0.0,0.0,11906,11206,22488,31465,33236,2
0.0,0.0,0.0,11906,11206,22488,31497,33236,2
0.0,0.0,0.0,11906,11206,22510,31529,33168,2
0.0,0.0,0.0,11881,11206,22488,31497,33100,2
0.0,0.0,0.0,11932,11194,22510,31529,33067,2
0.0,0.0,0.0,11957,11206,22488,31465,32966,2
0.0,0.0,0.0,11970,11206,22488,31402,32899,2
0.0,0.0,0.0,11983,11206,22488,31370,32765,2
0.0,0.0,0.0,11983,11219,22466,31339,32666,2
0.0,0.0,0.0,11983,11206,22488,31339,32699,2
0.0,0.0,0.0,11983,11206,22335,31276,32765,2
0.0,0.0,0.0,11983,11219,22466,31370,32599,2
0.0,0.0,0.0,11983,11231,22488,31244,32699,2
0.0,0.0,0.0,12009,11219,22444,31244,32599,2
0.0,0.0,0.0,11983,11243,22444,31213,32666,2
0.0,0.0,0.0,12009,11231,22401,31181,32633,2
0.0,0.0,0.0,12009,11231,22444,31213,32633,2
0.0,0.0,0.0,12009,11231,22444,31213,32633,2
0.0,0.0,0.0,12021,11255,22401,31150,32533,2
0.0,0.0,0.0,12034,11255,22423,31181,32599,2
0.0,0.0,0.0,12060,11255,22444,31213,32566,2
0.0,0.0,0.0,12060,11255,22444,31150,32500,2
0.0,0.0,0.0,12060,11268,22423,31087,32566,2
0.0,0.0,0.0,12047,11255,22444,31213,32500,2
0.0,0.0,0.0,12060,11268,22444,31087,32500,2
0.0,0.0,0.0,12086,11255,22423,31087,32500,2
0.0,0.0,0.0,12060,11268,22423,31087,32500,2
0.0,0.0,0.0,12086,11268,22444,31150,32500,2
0.0,0.0,0.0,12086,11255,22488,31087,32435,2
0.0,0.0,0.0,12099,11255,22444,31150,32500,2
0.0,0.0,0.0,12099,11268,22444,31181,32467,2
0.0,0.0,0.0,12112,11255,22423,31087,32533,2
0.0,0.0,0.0,12112,11268,22401,31119,32500,2
0.0,0.0,0.0,12112,11255,22401,31150,32566,2
0.0,0.0,0.0,12124,11255,22401,31150,32533,2
0.0,0.0,0.0,12124,11219,22444,31087,32435,2
0.0,0.0,0.0,12112,11170,22423,31119,32500,2
0.0,0.0,0.0,12163,11182,22444,31025,32500,2
0.0,0.0,0.0,12150,11157,22423,30962,32500,2
0.0,0.0,0.0,12163,11157,22444,30994,32369,2
0.0,0.0,0.0,12163,11109,22423,30994,32435,2
0.0,0.0,0.0,12163,11121,22444,30962,32402,2
0.0,0.0,0.0,12176,11109,22444,30900,32402,2
0.0,0.0,0.0,12176,11084,22466,30869,32369,2
0.0,0.0,0.0,12215,11084,22510,30838,32369,2
0.0,0.0,0.0,12215,11060,22444,30807,32238,2
0.0,0.0,0.0,12215,11084,22488,30838,32303,2
0.0,0.0,0.0,12215,11060,22466,30807,32238,2
0.0,0.0,0.0,12215,11060,22488,30776,32303,2
0.0,0.0,0.0,12215,11084,22423,30807,32238,2
0.0,0.0,0.0,12228,11060,22444,30776,32303,2
0.0,0.0,0.0,12215,11060,22444,30807,32173,2
0.0,0.0,0.0,12241,11084,22444,30776,32173,2
0.0,0.0,0.0,12228,11060,22444,30776,32271,2
0.0,0.0,0.0,12267,11060,22444,30715,32173,2
0.0,0.0,0.0,12241,11060,22444,30745,32140,2
0.0,0.0,0.0,12215,11072,22444,30715,32140,2
0.0,0.0,0.0,12228,11060,22423,30715,32173,2
0.0,0.0,0.0,12228,11060,22423,30684,32173,2
0.0,0.0,0.0,12215,11084,22423,30715,32173,2
0.0,0.0,0.0,12215,11084,22423,30745,32108,2
0.0,0.0,0.0,12215,11060,22401,30715,32173,2
0.0,0.0,0.0,12228,11072,22401,30653,32108,2
0.0,0.0,0.0,12202,11072,22488,30653,32108,2
0.0,0.0,0.0,12189,11072,22444,30622,32108,2
0.0,0.0,0.0,12176,11084,22401,30622,32075,2
0.0,0.0,0.0,12189,11084,22401,30622,32010,2
0.0,0.0,0.0,12176,11072,22444,30622,32075,2
0.0,0.0,0.0,12215,11096,22357,30622,31978,2
0.0,0.0,0.0,12176,11109,22401,30591,32010,2
0.0,0.0,0.0,12189,11109,22401,30561,32043,2
0.0,0.0,0.0,12189,11109,22401,30591,32043,2
0.0,0.0,0.0,12189,11109,22401,30499,32043,2
0.0,0.0,0.0,12176,11109,22357,30653,32010,2
0.0,0.0,0.0,12189,11109,22401,30530,32075,2
0.0,0.0,0.0,12202,11109,22401,30530,32108,2
0.0,0.0,0.0,12189,11109,22401,30591,32010,2
0.0,0.0,0.0,12189,11121,22401,30591,32108,2
0.0,0.0,0.0,12189,11133,22423,30622,32043,2
0.0,0.0,0.0,12215,11133,22401,30591,31978,2
0.0,0.0,0.0,12228,11121,22423,30530,32010,2
0.0,0.0,0.0,12189,11157,22423,30530,32010,2
0.0,0.0,0.0,12215,11133,22401,30499,32075,2
0.0,0.0,0.0,12176,11157,22423,30530,32010,2
0.0,0.0,0.0,12215,11133,22423,30561,32043,2
0.0,0.0,0.0,12228,11157,22401,30499,31978,2
0.0,0.0,0.0,12202,11133,22401,30499,32108,2
0.0,0.0,0.0,12189,11157,22401,30530,32010,2
0.0,0.0,0.0,12215,11157,22401,30499,32043,2
0.0,0.0,0.0,12189,11157,22401,30469,32010,2
0.0,0.0,0.0,12215,11157,22401,30469,31913,2
0.0,0.0,0.0,12202,11121,22357,30530,32075,2
0.0,0.0,0.0,12215,11109,22401,30530,32043,2
0.0,0.0,0.0,12215,11157,22401,30469,32043,2
0.0,0.0,0.0,12215,11157,22401,30469,32043,2
0.0,0.0,0.0,12215,11133,22401,30530,32010,2
0.0,0.0,0.0,12228,11145,22401,30469,31978,2
0.0,0.0,0.0,12215,11157,22401,30438,31946,2
0.0,0.0,0.0,12228,11157,22401,30499,31978,2
0.0,0.0,0.0,12202,11157,22423,30469,31978,2
0.0,0.0,0.0,12202,11157,22423,30438,31946,2
0.0,0.0,0.0,12215,11145,22401,30469,31978,2
0.0,0.0,0.0,12228,11157,22357,30469,31978,2
0.0,0.0,0.0,12176,11157,22357,30469,31978,2
0.0,0.0,0.0,12215,11133,22401,30499,31978,2
0.0,0.0,0.0,12189,11157,22401,30408,31978,2
0.0,0.0,0.0,12215,11157,22401,30469,31913,2
0.0,0.0,0.0,12215,11157,22401,30469,31913,2
0.0,0.0,0.0,12215,11133,22357,30469,31978,2
0.0,0.0,0.0,12215,11157,22357,30469,31978,2
0.0,0.0,0.0,12215,11157,22357,30408,32010,2
0.0,0.0,0.0,12215,11121,22401,30469,31913,2
0.0,0.0,0.0,12189,11157,22357,30469,31978,2
0.0,0.0,0.0,12202,11157,22401,30377,31946,2
0.0,0.0,0.0,12215,11157,22401,30469,32043,2
0.0,0.0,0.0,12215,11145,22423,30499,31913,2
0.0,0.0,0.0,12228,11133,22401,30438,31946,2
0.0,0.0,0.0,12202,11157,22401,30469,31978,2
0.0,0.0,0.0,12215,11157,22423,30499,31978,2
0.0,0.0,0.0,12176,11157,22423,30469,31978,2
0.0,0.0,0.0,12189,11182,22401,30469,31913,2
0.0,0.0,0.0,12215,11157,22401,30530,31978,2
0.0,0.0,0.0,12176,11157,22401,30469,32010,2
0.0,0.0,0.0,12189,11157,22379,30408,31978,2
0.0,0.0,0.0,12215,11133,22423,30469,31978,2
0.0,0.0,0.0,12202,11157,22357,30469,31913,2
0.0,0.0,0.0,12215,11133,22379,30469,31978,2
0.0,0.0,0.0,12215,11109,22401,30469,31978,2
0.0,0.0,0.0,12215,11109,22357,30469,31978,2
0.0,0.0,0.0,12189,11109,22401,30377,31978,2
0.0,0.0,0.0,12189,11121,22401,30408,31978,2
0.0,0.0,0.0,12189,11157,22401,30469,31913,2
0.0,0.0,0.0,12215,11133,22401,30499,32010,2
0.0,0.0,0.0,12228,11133,22401,30408,31978,2
0.0,0.0,0.0,12241,11109,22401,30408,31978,2
0.0,0.0,0.0,12228,11121,22379,30377,31978,2
0.0,0.0,0.0,12228,11121,22401,30408,31978,2
0.0,0.0,0.0,12241,11157,22401,30438,31913,2
0.0,0.0,0.0,12241,11145,22357,30408,31946,2
0.0,0.0,0.0,12254,11121,22401,30377,31913,2
0.0,0.0,0.0,12228,11157,22357,30408,31978,2
0.0,0.0,0.0,12241,11157,22401,30377,31913,2
0.0,0.0,0.0,12267,11157,22379,30408,32010,2
0.0,0.0,0.0,12241,11157,22444,30347,31913,2
0.0,0.0,0.0,12215,11157,22401,30408,31913,2
0.0,0.0,0.0,12215,11157,22401,30408,31978,2
0.0,0.0,0.0,12241,11157,22401,30377,32010,2
0.0,0.0,0.0,12228,11157,22423,30408,31913,2
0.0,0.0,0.0,12189,11170,22401,30347,31913,2
0.0,0.0,0.0,12228,11157,22444,30408,31978,2
0.0,0.0,0.0,12228,11157,22423,30408,31881,2
0.0,0.0,0.0,12228,11157,22401,30408,31913,2
0.0,0.0,0.0,12228,11157,22423,30469,31978,2
0.0,0.0,0.0,12228,11157,22379,30377,31913,2
0.0,0.0,0.0,12215,11182,22423,30377,31978,2
0.0,0.0,0.0,12215,11157,22444,30408,31978,2
0.0,0.0,0.0,12215,11157,22401,30377,31978,2
0.0,0.0,0.0,12202,11182,22423,30438,31978,2
0.0,0.0,0.0,12215,11170,22423,30408,31978,2
0.0,0.0,0.0,12228,11194,22401,30408,31913,2
0.0,0.0,0.0,12215,11157,22401,30347,31978,2
0.0,0.0,0.0,12228,11182,22401,30408,31913,2
0.0,0.0,0.0,12228,11182,22423,30377,31978,2
0.0,0.0,0.0,12215,11182,22401,30377,31913,2
0.0,0.0,0.0,12241,11182,22401,30408,31946,2
0.0,0.0,0.0,12215,11206,22401,30408,31946,2
0.0,0.0,0.0,12267,11170,22401,30408,31913,2
0.0,0.0,0.0,12293,11170,22401,30377,31978,2
0.0,0.0,0.0,12267,11182,22401,30377,31978,2
0.0,0.0,0.0,12267,11157,22401,30377,31913,2
0.0,0.0,0.0,12267,11157,22423,30377,31849,2
0.0,0.0,0.0,12320,11170,22401,30347,31849,2
0.0,0.0,0.0,12267,11157,22401,30347,31881,2
0.0,0.0,0.0,12228,11170,22423,30347,31978,2
0.0,0.0,0.0,12267,11182,22423,30256,31881,2
0.0,0.0,0.0,12280,11157,22401,30286,31849,2
0.0,0.0,0.0,12280,11157,22401,30347,31946,2
0.0,0.0,0.0,12293,11170,22423,30317,31881,2
0.0,0.0,0.0,12346,11157,22401,30286,31849,2
0.0,0.0,0.0,12346,11170,22401,30226,31881,2
0.0,0.0,0.0,12320,11157,22401,30317,31881,2
0.0,0.0,0.0,12280,11170,22401,30256,31849,2
0.0,0.0,0.0,12320,11170,22357,30226,31817,2
0.0,0.0,0.0,12320,11157,22423,30317,31785,2
0.0,0.0,0.0,12267,11170,22401,30256,31881,2
0.0,0.0,0.0,12293,11157,22401,30226,31785,2
0.0,0.0,0.0,12280,11157,22401,30286,31849,2
0.0,0.0,0.0,12293,11194,22401,30195,31817,2
0.0,0.0,0.0,12320,11170,22401,30165,31817,2
0.0,0.0,0.0,12267,11170,22401,30165,31785,2
0.0,0.0,0.0,12215,11157,22401,30105,31656,2
0.0,0.0,0.0,12241,11157,22401,30105,31656,2
0.0,0.0,0.0,12228,11170,22357,30075,31656,2
0.0,0.0,0.0,12267,11170,22313,30045,31624,2
0.0,0.0,0.0,12254,11133,22313,30045,31593,2
0.0,0.0,0.0,12267,11157,22313,30105,31720,2
0.0,0.0,0.0,12320,11170,22313,30045,31624,2
0.0,0.0,0.0,12372,11157,22357,30045,31656,2
0.0,0.0,0.0,12385,11170,22466,30105,31720,2
0.0,0.0,0.0,12346,11157,22401,30075,31624,2
0.0,0.0,0.0,12267,11157,22488,30105,31624,2
0.0,0.0,0.0,12215,11182,22576,29984,31656,2
0.0,0.0,0.0,11996,11182,22576,30045,31752,2
0.0,0.0,0.0,11881,11170,22643,29984,31720,2
0.0,0.0,0.0,11855,11170,22599,29984,31593,2
0.0,0.0,0.0,11817,11182,22665,29984,31593,2
0.0,0.0,0.0,11779,11206,22709,30105,31593,2
0.0,0.0,0.0,11754,11206,22754,30045,31656,2
0.0,0.0,0.0,11703,11206,22865,30105,31720,2
0.0,0.0,0.0,11653,11206,22865,30105,31593,2
0.0,0.0,0.0,11628,11206,22932,30135,31720,2
0.0,0.0,0.0,11565,11219,22932,30165,31720,2
0.0,0.0,0.0,11528,11206,22999,30105,31593,2
0.0,0.0,0.0,11503,11194,23022,30135,31688,2
0.0,0.0,0.0,11465,11206,23112,30195,31720,2
0.0,0.0,0.0,11453,11206,23112,30226,31593,2
0.0,0.0,0.0,11416,11206,23112,30075,31593,2
0.0,0.0,0.0,11428,11182,23067,30165,31656,2
0.0,0.0,0.0,11379,11206,23090,30105,31688,2
0.0,0.0,0.0,11317,11206,23044,29925,31720,2
0.0,0.0,0.0,11292,11206,23044,30075,31817,2
0.0,0.0,0.0,11268,11206,22999,30045,31720,2
0.0,0.0,0.0,11255,11206,23022,30015,31720,2
0.0,0.0,0.0,11268,11206,22977,30045,31720,2
0.0,0.0,0.0,11304,11206,22977,30045,31720,2
0.0,0.0,0.0,11354,11206,22887,29984,31720,2
0.0,0.0,0.0,11379,11206,22865,29984,31720,2
0.0,0.0,0.0,11403,11206,22843,29984,31752,2
0.0,0.0,0.0,11403,11206,22843,30015,31656,2
0.0,0.0,0.0,11403,11206,22798,29925,31656,2
0.0,0.0,0.0,11403,11206,22798,29895,31720,2
0.0,0.0,0.0,11416,11206,22754,29984,31720,2
0.0,0.0,0.0,11453,11206,22776,29895,31752,2
0.0,0.0,0.0,11453,11219,22776,29925,31720,2
0.0,0.0,0.0,11453,11206,22754,29925,31624,2
0.0,0.0,0.0,11453,11206,22798,29865,31624,2
0.0,0.0,0.0,11453,11206,22709,29865,31720,2
0.0,0.0,0.0,11465,11194,22754,29865,31688,2
0.0,0.0,0.0,11503,11206,22665,29865,31752,2
0.0,0.0,0.0,11465,11206,22709,29805,31624,2
0.0,0.0,0.0,11465,11206,22709,29865,31593,2
0.0,0.0,0.0,11465,11206,22731,29865,31720,2
0.0,0.0,0.0,11478,11206,22709,29865,31656,2
0.0,0.0,0.0,11465,11194,22731,29865,31624,2
0.0,0.0,0.0,11503,11182,22754,29805,31593,2
0.0,0.0,0.0,11503,11182,22754,29865,31656,2
0.0,0.0,0.0,11503,11206,22798,29895,31656,2
0.0,0.0,0.0,11515,11182,22798,29865,31656,2
0.0,0.0,0.0,11478,11206,22776,29865,31624,2
0.0,0.0,0.0,11528,11206,22776,29805,31593,2
0.0,0.0,0.0,11503,11206,22798,29865,31593,2
0.0,0.0,0.0,11515,11231,22798,29835,31529,2
0.0,0.0,0.0,11503,11219,22776,29805,31561,2
0.0,0.0,0.0,11503,11206,22754,29835,31497,2
0.0,0.0,0.0,11528,11206,22843,29835,31529,2
0.0,0.0,0.0,11503,11206,22776,29805,31561,2
0.0,0.0,0.0,11528,11206,22798,29895,31529,2
0.0,0.0,0.0,11528,11206,22798,29865,31529,2
0.0,0.0,0.0,11515,11219,22754,29835,31593,2
0.0,0.0,0.0,11528,11219,22754,29805,31561,2
0.0,0.0,0.0,11553,11231,22709,29805,31529,2
0.0,0.0,0.0,11528,11219,22754,29775,31529,2
0.0,0.0,0.0,11553,11231,22754,29746,31593,2
0.0,0.0,0.0,11553,11255,22709,29835,31465,2
0.0,0.0,0.0,11553,11255,22754,29746,31529,2
0.0,0.0,0.0,11528,11219,22754,29775,31497,2
0.0,0.0,0.0,11528,11243,22709,29775,31465,2
0.0,0.0,0.0,11540,11255,22754,29835,31465,2
0.0,0.0,0.0,11528,11255,22709,29775,31465,2
0.0,0.0,0.0,11528,11255,22754,29805,31497,2
0.0,0.0,0.0,11553,11243,22754,29805,31465,2
0.0,0.0,0.0,11540,11280,22754,29746,31529,2
0.0,0.0,0.0,11515,11268,22709,29805,31402,2
0.0,0.0,0.0,11528,11268,22754,29775,31465,2
0.0,0.0,0.0,11553,11268,22731,29716,31402,2
0.0,0.0,0.0,11528,11268,22709,29746,31370,2
0.0,0.0,0.0,11540,11268,22754,29746,31402,2
0.0,0.0,0.0,11528,11268,22754,29746,31465,2
0.0,0.0,0.0,11553,11280,22754,29805,31497,2
0.0,0.0,0.0,11528,11268,22709,29805,31465,2
0.0,0.0,0.0,11528,11304,22754,29805,31497,2
0.0,0.0,0.0,11528,11268,22754,29805,31497,2
0.0,0.0,0.0,11540,11280,22776,29746,31465,2
0.0,0.0,0.0,11528,11304,22776,29746,31434,2
0.0,0.0,0.0,11553,11304,22731,29746,31402,2
0.0,0.0,0.0,11553,11292,22754,29775,31465,2
0.0,0.0,0.0,11528,11304,22754,29805,31465,2
