GyroX,GyroY,GyroZ,Thumb,Index,Middle,Ring,Pinky,Gesture
0.0,0.0,0.0,11379,23754,23894,32402,16287,5
0.0,0.0,0.0,11391,23777,23847,32369,16287,5
0.0,0.0,0.0,11403,23777,23847,32402,16319,5
0.0,0.0,0.0,11379,23754,23847,32435,16385,5
0.0,0.0,0.0,11366,23707,23847,32435,16417,5
0.0,0.0,0.0,11366,23707,23847,32336,16385,5
0.0,0.0,0.0,11354,23707,23847,32369,16450,5
0.0,0.0,0.0,11354,23707,23847,32303,16417,5
0.0,0.0,0.0,11354,23707,23870,32336,16450,5
0.0,0.0,0.0,11317,23684,23847,32336,16516,5
0.0,0.0,0.0,11317,23684,23847,32369,16582,5
0.0,0.0,0.0,11304,23684,23847,32336,16615,5
0.0,0.0,0.0,11268,23684,23824,32303,16615,5
0.0,0.0,0.0,11280,23707,23824,32303,16615,5
0.0,0.0,0.0,11268,23684,23847,32303,16681,5
0.0,0.0,0.0,11304,23684,23777,32271,16681,5
0.0,0.0,0.0,11280,23661,23777,32271,16681,5
0.0,0.0,0.0,11206,23707,23800,32303,16665,5
0.0,0.0,0.0,11170,23615,23824,32303,16715,5
0.0,0.0,0.0,11194,23661,23777,32205,16681,5
0.0,0.0,0.0,11182,23661,23800,32238,16698,5
0.0,0.0,0.0,11182,23661,23800,32140,16715,5
0.0,0.0,0.0,11206,23615,23754,32238,16731,5
0.0,0.0,0.0,11170,23661,23777,32140,16681,5
0.0,0.0,0.0,11182,23615,23800,32173,16681,5
0.0,0.0,0.0,11157,23638,23777,32173,16698,5
0.0,0.0,0.0,11170,23661,23754,32173,16632,5
0.0,0.0,0.0,11157,23661,23754,32108,16648,5
0.0,0.0,0.0,11145,23661,23777,32173,16648,5
0.0,0.0,0.0,11121,23615,23754,32238,16681,5
0.0,0.0,0.0,11133,23615,23754,32173,16681,5
0.0,0.0,0.0,11109,23661,23777,32173,16698,5
0.0,0.0,0.0,11109,23615,23754,32140,16748,5
0.0,0.0,0.0,11109,23638,23707,32140,16698,5
0.0,0.0,0.0,11084,23638,23777,32205,16698,5
0.0,0.0,0.0,11060,23615,23707,32075,16748,5
0.0,0.0,0.0,11012,23638,23707,32043,16748,5
0.0,0.0,0.0,11024,23615,23754,32140,16781,5
0.0,0.0,0.0,11012,23615,23754,32140,16748,5
0.0,0.0,0.0,11012,23615,23754,32043,16765,5
0.0,0.0,0.0,11012,23569,23754,32140,16748,5
0.0,0.0,0.0,11012,23615,23754,32108,16781,5
0.0,0.0,0.0,10987,23569,23707,32140,16798,5
0.0,0.0,0.0,10975,23592,23707,32108,16848,5
0.0,0.0,0.0,10963,23592,23707,32075,16882,5
0.0,0.0,0.0,10963,23592,23754,32075,16898,5
0.0,0.0,0.0,10963,23569,23754,32108,16898,5
0.0,0.0,0.0,10963,23569,23754,32043,16915,5
0.0,0.0,0.0,10927,23522,23754,32075,16949,5
0.0,0.0,0.0,10915,23615,23707,32108,16949,5
0.0,0.0,0.0,10927,23592,23707,32010,16949,5
0.0,0.0,0.0,10915,23615,23707,32043,16983,5
0.0,0.0,0.0,10915,23592,23707,32075,16999,5
0.0,0.0,0.0,10891,23569,23684,31978,17016,5
0.0,0.0,0.0,10915,23569,23684,32043,16915,5
0.0,0.0,0.0,10915,23569,23707,31978,16983,5
0.0,0.0,0.0,10915,23522,23707,32010,16966,5
0.0,0.0,0.0,10915,23546,23707,32010,16915,5
0.0,0.0,0.0,10915,23569,23707,31978,16949,5
0.0,0.0,0.0,10891,23592,23661,32010,16915,5
0.0,0.0,0.0,10903,23569,23684,31913,16882,5
0.0,0.0,0.0,10915,23522,23684,32010,16882,5
0.0,0.0,0.0,10915,23569,23661,31978,16898,5
0.0,0.0,0.0,10915,23569,23684,31913,16898,5
0.0,0.0,0.0,10879,23522,23661,31978,16882,5
0.0,0.0,0.0,10915,23569,23661,32010,16898,5
0.0,0.0,0.0,10903,23522,23684,31978,16898,5
0.0,0.0,0.0,10903,23522,23661,31946,16915,5
0.0,0.0,0.0,10879,23569,23684,31978,16915,5
0.0,0.0,0.0,10903,23522,23615,31849,16949,5
0.0,0.0,0.0,10891,23522,23684,31978,16915,5
0.0,0.0,0.0,10891,23522,23661,31849,16915,5
0.0,0.0,0.0,10915,23569,23661,31881,16949,5
0.0,0.0,0.0,10867,23477,23615,31946,16966,5
0.0,0.0,0.0,10891,23499,23684,31881,16949,5
0.0,0.0,0.0,10879,23477,23661,31946,16949,5
0.0,0.0,0.0,10891,23522,23661,31881,16949,5
0.0,0.0,0.0,10879,23569,23661,31913,16966,5
0.0,0.0,0.0,10891,23499,23615,31881,17033,5
0.0,0.0,0.0,10867,23522,23661,31849,17050,5
0.0,0.0,0.0,10879,23522,23661,31881,17084,5
0.0,0.0,0.0,10867,23477,23661,31881,17118,5
0.0,0.0,0.0,10867,23499,23615,31913,17101,5
0.0,0.0,0.0,10867,23499,23615,31849,17084,5
0.0,0.0,0.0,10879,23477,23661,31849,17101,5
0.0,0.0,0.0,10879,23454,23661,31881,17152,5
0.0,0.0,0.0,10867,23522,23661,31849,17186,5
0.0,0.0,0.0,10855,23477,23661,31849,17169,5
0.0,0.0,0.0,10843,23477,23569,31785,17169,5
0.0,0.0,0.0,10843,23477,23592,31849,17186,5
0.0,0.0,0.0,10831,23477,23615,31849,17220,5
0.0,0.0,0.0,10831,23477,23592,31752,17254,5
0.0,0.0,0.0,10831,23477,23615,31849,17237,5
0.0,0.0,0.0,10819,23477,23592,31785,17323,5
0.0,0.0,0.0,10795,23477,23592,31785,17323,5
0.0,0.0,0.0,10795,23477,23615,31849,17323,5
0.0,0.0,0.0,10795,23431,23569,31785,17357,5
0.0,0.0,0.0,10771,23477,23569,31720,17374,5
0.0,0.0,0.0,10771,23477,23592,31752,17357,5
0.0,0.0,0.0,10771,23477,23569,31720,17461,5
0.0,0.0,0.0,10771,23454,23592,31720,17426,5
0.0,0.0,0.0,10771,23454,23569,31752,17374,5
0.0,0.0,0.0,10771,23431,23569,31656,17374,5
0.0,0.0,0.0,10771,23431,23569,31720,17357,5
0.0,0.0,0.0,10748,23431,23522,31720,17357,5
0.0,0.0,0.0,10771,23431,23522,31656,17306,5
0.0,0.0,0.0,10759,23431,23546,31656,17084,5
0.0,0.0,0.0,10759,23431,23522,31593,16882,5
0.0,0.0,0.0,10771,23431,23569,31624,16815,5
0.0,0.0,0.0,10748,23431,23522,31529,16815,5
0.0,0.0,0.0,10748,23431,23499,31529,16815,5
0.0,0.0,0.0,10748,23431,23522,31529,16815,5
0.0,0.0,0.0,10748,23431,23477,31497,16831,5
0.0,0.0,0.0,10748,23431,23477,31497,16765,5
0.0,0.0,0.0,10748,23385,23477,31529,16815,5
0.0,0.0,0.0,10748,23385,23477,31529,16798,5
0.0,0.0,0.0,10771,23385,23431,31529,16815,5
0.0,0.0,0.0,10748,23385,23499,31529,16815,5
0.0,0.0,0.0,10748,23385,23477,31529,16815,5
0.0,0.0,0.0,10748,23362,23431,31465,16848,5
0.0,0.0,0.0,10748,23339,23477,31529,16831,5
0.0,0.0,0.0,10724,23339,23431,31497,16831,5
0.0,0.0,0.0,10736,23339,23477,31465,16815,5
0.0,0.0,0.0,10748,23385,23431,31529,16781,5
0.0,0.0,0.0,10724,23339,23431,31497,16815,5
0.0,0.0,0.0,10724,23362,23477,31465,16815,5
0.0,0.0,0.0,10724,23339,23454,31465,16765,5
0.0,0.0,0.0,10748,23339,23477,31465,16815,5
0.0,0.0,0.0,10724,23339,23431,31402,16815,5
0.0,0.0,0.0,10724,23339,23431,31465,16765,5
0.0,0.0,0.0,10748,23316,23431,31434,16815,5
0.0,0.0,0.0,10724,23294,23477,31465,16798,5
0.0,0.0,0.0,10724,23339,23362,31465,16815,5
0.0,0.0,0.0,10724,23339,23431,31434,16831,5
0.0,0.0,0.0,10748,23294,23431,31465,16815,5
0.0,0.0,0.0,10724,23339,23385,31402,16815,5
0.0,0.0,0.0,10748,23271,23431,31402,16815,5
0.0,0.0,0.0,10700,23316,23431,31465,16882,5
0.0,0.0,0.0,10724,23316,23385,31434,16848,5
0.0,0.0,0.0,10724,23339,23385,31402,16882,5
0.0,0.0,0.0,10712,23316,23431,31402,16848,5
0.0,0.0,0.0,10724,23316,23362,31402,16865,5
0.0,0.0,0.0,10724,23294,23431,31402,16815,5
0.0,0.0,0.0,10700,23294,23431,31402,16882,5
0.0,0.0,0.0,10700,23294,23385,31370,16848,5
0.0,0.0,0.0,10724,23271,23431,31402,16848,5
0.0,0.0,0.0,10724,23294,23339,31339,16831,5
0.0,0.0,0.0,10700,23248,23385,31370,16815,5
0.0,0.0,0.0,10724,23248,23385,31402,16781,5
0.0,0.0,0.0,10700,23294,23385,31339,16831,5
0.0,0.0,0.0,10700,23294,23339,31339,16798,5
0.0,0.0,0.0,10676,23271,23431,31370,16815,5
0.0,0.0,0.0,10724,23248,23339,31307,16781,5
0.0,0.0,0.0,10688,23294,23385,31339,16781,5
0.0,0.0,0.0,10688,23225,23362,31339,16815,5
0.0,0.0,0.0,10700,23294,23339,31339,16848,5
0.0,0.0,0.0,10676,23294,23385,31339,16815,5
0.0,0.0,0.0,10688,23248,23339,31339,16865,5
0.0,0.0,0.0,10676,23248,23339,31339,16865,5
0.0,0.0,0.0,10676,23248,23339,31339,16815,5
0.0,0.0,0.0,10676,23248,23316,31339,16798,5
0.0,0.0,0.0,10676,23248,23294,31402,16848,5
0.0,0.0,0.0,10676,23271,23294,31339,16815,5
0.0,0.0,0.0,10676,23248,23294,31339,16765,5
0.0,0.0,0.0,10676,23203,23316,31276,16781,5
0.0,0.0,0.0,10641,23248,23339,31276,16798,5
0.0,0.0,0.0,10676,23225,23362,31307,16781,5
0.0,0.0,0.0,10664,23225,23316,31339,16831,5
0.0,0.0,0.0,10676,23225,23294,31276,16748,5
0.0,0.0,0.0,10664,23203,23294,31339,16781,5
0.0,0.0,0.0,10676,23225,23294,31307,16765,5
0.0,0.0,0.0,10676,23225,23271,31244,16765,5
0.0,0.0,0.0,10676,23225,23294,31276,16748,5
0.0,0.0,0.0,10676,23225,23294,31276,16748,5
0.0,0.0,0.0,10676,23225,23316,31276,16748,5
0.0,0.0,0.0,10641,23203,23294,31276,16781,5
0.0,0.0,0.0,10676,23203,23316,31244,16748,5
0.0,0.0,0.0,10676,23203,23294,31244,16715,5
0.0,0.0,0.0,10676,23225,23294,31244,16781,5
0.0,0.0,0.0,10676,23203,23271,31213,16748,5
0.0,0.0,0.0,10676,23203,23294,31213,16748,5
0.0,0.0,0.0,10676,23203,23248,31244,16748,5
0.0,0.0,0.0,10676,23203,23294,31244,16748,5
0.0,0.0,0.0,10676,23180,23294,31276,16781,5
0.0,0.0,0.0,10653,23203,23294,31307,16731,5
0.0,0.0,0.0,10676,23180,23294,31244,16748,5
0.0,0.0,0.0,10676,23203,23225,31244,16748,5
0.0,0.0,0.0,10676,23157,23248,31276,16748,5
0.0,0.0,0.0,10641,23203,23248,31213,16765,5
0.0,0.0,0.0,10629,23203,23294,31244,16798,5
0.0,0.0,0.0,10629,23203,23248,31244,16748,5
0.0,0.0,0.0,10676,23203,23248,31244,16715,5
0.0,0.0,0.0,10629,23135,23294,31213,16765,5
0.0,0.0,0.0,10641,23180,23294,31213,16715,5
0.0,0.0,0.0,10653,23225,23225,31150,16748,5
0.0,0.0,0.0,10641,23157,23203,31213,16731,5
0.0,0.0,0.0,10641,23157,23271,31213,16781,5
0.0,0.0,0.0,10629,23157,23248,31213,16748,5
0.0,0.0,0.0,10641,23157,23225,31213,16748,5
0.0,0.0,0.0,10641,23135,23225,31244,16765,5
0.0,0.0,0.0,10653,23157,23225,31276,16748,5
0.0,0.0,0.0,10641,23180,23248,31213,16748,5
0.0,0.0,0.0,10629,23135,23225,31213,16748,5
0.0,0.0,0.0,10653,23112,23225,31213,16748,5
0.0,0.0,0.0,10629,23135,23225,31213,16715,5
0.0,0.0,0.0,10641,23157,23203,31150,16748,5
0.0,0.0,0.0,10641,23135,23203,31119,16681,5
0.0,0.0,0.0,10629,23180,23225,31181,16615,5
0.0,0.0,0.0,10641,23157,23225,31150,16615,5
0.0,0.0,0.0,10641,23157,23203,31150,16615,5
0.0,0.0,0.0,10641,23157,23225,31150,16582,5
0.0,0.0,0.0,10641,23135,23203,31181,16565,5
0.0,0.0,0.0,10629,23112,23180,31150,16516,5
0.0,0.0,0.0,10629,23112,23203,31087,16565,5
0.0,0.0,0.0,10641,23112,23203,31087,16499,5
0.0,0.0,0.0,10653,23157,23203,31150,16549,5
0.0,0.0,0.0,10629,23112,23225,31087,16499,5
0.0,0.0,0.0,10629,23112,23203,31119,16549,5
0.0,0.0,0.0,10629,23135,23203,31025,16483,5
0.0,0.0,0.0,10641,23135,23203,31056,16549,5
0.0,0.0,0.0,10629,23157,23180,31056,16549,5
0.0,0.0,0.0,10641,23135,23203,31087,16417,5
0.0,0.0,0.0,10629,23135,23203,31056,16368,5
0.0,0.0,0.0,10629,23112,23203,31087,16287,5
0.0,0.0,0.0,10629,23135,23157,31025,16254,5
0.0,0.0,0.0,10629,23112,23203,30994,16222,5
0.0,0.0,0.0,10629,23157,23157,31025,16189,5
0.0,0.0,0.0,10629,23112,23157,31025,16222,5
0.0,0.0,0.0,10629,23044,23135,30994,16222,5
0.0,0.0,0.0,10629,23067,23112,30994,16254,5
0.0,0.0,0.0,10724,23067,23135,31025,16206,5
0.0,0.0,0.0,10771,23022,23157,30931,16173,5
0.0,0.0,0.0,10783,23022,23157,30962,16189,5
0.0,0.0,0.0,10795,23022,23112,30931,16189,5
0.0,0.0,0.0,10819,23067,23112,30838,16222,5
0.0,0.0,0.0,10843,23044,23135,30838,16189,5
0.0,0.0,0.0,10831,23022,23112,30962,16222,5
0.0,0.0,0.0,10831,23044,23135,30869,16206,5
0.0,0.0,0.0,10819,23022,23135,30900,16287,5
0.0,0.0,0.0,10795,23022,23135,30900,16352,5
0.0,0.0,0.0,10915,23022,23157,30931,16368,5
0.0,0.0,0.0,11072,23067,23135,31087,16352,5
0.0,0.0,0.0,11060,23112,23180,31465,16434,5
0.0,0.0,0.0,11024,23112,23157,31529,16483,5
0.0,0.0,0.0,11012,23135,23157,31529,16483,5
0.0,0.0,0.0,11012,23112,23180,31593,16532,5
0.0,0.0,0.0,11012,23112,23135,31561,16483,5
0.0,0.0,0.0,10987,23112,23135,31593,16450,5
0.0,0.0,0.0,10999,23044,23135,31624,16434,5
0.0,0.0,0.0,10963,23022,23112,31529,16483,5
0.0,0.0,0.0,10951,23022,23112,31465,16434,5
0.0,0.0,0.0,10927,23022,23112,31497,16417,5
0.0,0.0,0.0,10927,22977,23044,31402,16417,5
0.0,0.0,0.0,10927,22932,23044,31370,16385,5
0.0,0.0,0.0,10891,22977,23067,31402,16434,5
0.0,0.0,0.0,10879,22932,23044,31434,16483,5
0.0,0.0,0.0,10891,22932,23022,31339,16385,5
0.0,0.0,0.0,10891,22932,23022,31370,16238,5
0.0,0.0,0.0,10867,22887,23022,31720,15868,5
0.0,0.0,0.0,10903,22865,23022,31881,15568,5
0.0,0.0,0.0,10891,22843,23044,31849,15428,5
0.0,0.0,0.0,10867,22820,23044,31978,15273,5
0.0,0.0,0.0,10879,22865,22977,32010,15150,5
0.0,0.0,0.0,10867,22865,23022,32075,15150,5
0.0,0.0,0.0,10867,22843,23044,32075,15028,5
0.0,0.0,0.0,10879,22843,22999,32271,14786,5
0.0,0.0,0.0,10879,22843,23022,32435,14636,5
0.0,0.0,0.0,10867,22843,23022,32467,14651,5
0.0,0.0,0.0,10867,22843,23022,32369,14666,5
0.0,0.0,0.0,10891,22843,23022,32303,14607,5
0.0,0.0,0.0,10867,22843,22977,32238,14666,5
0.0,0.0,0.0,10843,22843,23022,32238,14666,5
0.0,0.0,0.0,10867,22843,22999,32173,14666,5
0.0,0.0,0.0,11012,22843,22977,32205,14636,5
0.0,0.0,0.0,11109,22798,22955,32108,14607,5
0.0,0.0,0.0,11157,22798,22977,32173,14577,5
0.0,0.0,0.0,11157,22798,22977,32140,14607,5
0.0,0.0,0.0,11206,22887,22977,32108,14651,5
0.0,0.0,0.0,11206,22820,22955,32043,14666,5
0.0,0.0,0.0,11206,22843,22977,32010,14726,5
0.0,0.0,0.0,11182,22798,22977,32043,14816,5
0.0,0.0,0.0,11182,22843,22977,31978,14861,5
0.0,0.0,0.0,11182,22843,23022,32010,14801,5
0.0,0.0,0.0,11170,22798,23022,32043,14846,5
0.0,0.0,0.0,11255,22843,22977,32010,14846,5
0.0,0.0,0.0,11255,22843,23022,32043,14907,5
0.0,0.0,0.0,11354,22843,23022,32043,14846,5
0.0,0.0,0.0,11453,22843,22977,32043,14801,5
0.0,0.0,0.0,11528,22910,23022,31978,14786,5
0.0,0.0,0.0,11603,22932,23022,32010,14756,5
0.0,0.0,0.0,11678,22932,23044,31913,14786,5
0.0,0.0,0.0,11703,22932,22999,31849,14741,5
0.0,0.0,0.0,11716,22843,22977,31849,14786,5
0.0,0.0,0.0,11703,22865,22932,31881,14741,5
0.0,0.0,0.0,11665,22798,22955,31785,14741,5
0.0,0.0,0.0,11678,22776,22910,31752,14786,5
0.0,0.0,0.0,11665,22754,22887,31849,14816,5
0.0,0.0,0.0,11653,22754,22865,31720,14831,5
0.0,0.0,0.0,11665,22776,22865,31752,14846,5
0.0,0.0,0.0,11665,22754,22977,31849,14846,5
0.0,0.0,0.0,11653,22754,22932,31849,14831,5
0.0,0.0,0.0,11640,22709,22932,31817,14907,5
0.0,0.0,0.0,11653,22776,22932,31849,14922,5
0.0,0.0,0.0,11615,22776,22932,31849,14907,5
0.0,0.0,0.0,11615,22798,22932,31978,14952,5
0.0,0.0,0.0,11628,22843,22932,32043,15028,5
0.0,0.0,0.0,11615,22843,22932,32108,15028,5
0.0,0.0,0.0,11653,22843,22932,32140,15058,5
0.0,0.0,0.0,11665,22843,22977,32108,14982,5
0.0,0.0,0.0,11653,22932,22932,32108,15028,5
0.0,0.0,0.0,11653,22865,22932,32108,15028,5
0.0,0.0,0.0,11653,22865,22887,32043,14982,5
0.0,0.0,0.0,11640,22887,22910,31978,14982,5
0.0,0.0,0.0,11628,22843,22932,32010,15058,5
0.0,0.0,0.0,11615,22843,22932,32010,15089,5
0.0,0.0,0.0,11553,22887,22932,31913,15043,5
0.0,0.0,0.0,11565,22843,22887,31946,15028,5
0.0,0.0,0.0,11553,22843,22932,31978,15013,5
0.0,0.0,0.0,11553,22843,22887,31881,14967,5
0.0,0.0,0.0,11578,22798,22887,31881,14967,5
0.0,0.0,0.0,11553,22754,22932,31978,14922,5
0.0,0.0,0.0,11528,22709,22843,31913,14876,5
0.0,0.0,0.0,11453,22599,22754,31881,14816,5
0.0,0.0,0.0,11453,22444,22709,31752,14577,5
0.0,0.0,0.0,11403,22313,22510,31370,14224,5
0.0,0.0,0.0,11379,22140,22335,30622,13935,5
0.0,0.0,0.0,11354,22010,22270,30226,13792,5
0.0,0.0,0.0,11354,21924,22466,30015,13792,5
0.0,0.0,0.0,11317,21882,22423,29895,13735,5
0.0,0.0,0.0,11317,21946,22401,29805,13749,5
0.0,0.0,0.0,11317,21903,22423,29805,13735,5
0.0,0.0,0.0,11304,21924,22401,29775,13749,5
0.0,0.0,0.0,11317,22010,22183,29805,13735,5
0.0,0.0,0.0,11304,22053,22183,29835,13821,5
0.0,0.0,0.0,11304,22161,22401,30226,14166,5
0.0,0.0,0.0,11304,22401,23225,31656,15366,5
0.0,0.0,0.0,11304,22532,24176,32699,16368,5
0.0,0.0,0.0,11280,22665,24799,33645,17634,5
0.0,0.0,0.0,11292,22843,25216,34235,18344,5
0.0,0.0,0.0,11292,22977,25241,34341,18654,5
0.0,0.0,0.0,11280,23112,25142,34271,18581,5
0.0,0.0,0.0,11292,23477,24995,33921,18508,5
0.0,0.0,0.0,11280,23661,24824,33645,18290,5
0.0,0.0,0.0,11255,23661,24630,33439,18093,5
0.0,0.0,0.0,11255,23592,24486,33236,17986,5
0.0,0.0,0.0,11255,23615,24414,33236,17915,5
0.0,0.0,0.0,11231,23546,24342,33134,17792,5
0.0,0.0,0.0,11231,23499,24294,33100,17722,5
0.0,0.0,0.0,11255,23477,24271,33033,17774,5
0.0,0.0,0.0,11243,23431,24271,33067,17634,5
0.0,0.0,0.0,11255,23431,24223,33033,17547,5
0.0,0.0,0.0,11255,23385,24152,33033,17513,5
0.0,0.0,0.0,11231,23385,24176,32932,17530,5
0.0,0.0,0.0,11255,23385,24129,32832,17495,5
0.0,0.0,0.0,11255,23431,24129,32832,17461,5
0.0,0.0,0.0,11231,23385,24081,32765,17443,5
0.0,0.0,0.0,11255,23431,24081,32732,17357,5
0.0,0.0,0.0,11255,23362,24058,32699,17306,5
0.0,0.0,0.0,11219,23339,24058,32732,17237,5
0.0,0.0,0.0,11219,23339,24058,32633,17289,5
0.0,0.0,0.0,11219,23385,24034,32699,17254,5
0.0,0.0,0.0,11157,23294,24034,32765,17272,5
0.0,0.0,0.0,11157,23294,24034,32633,17220,5
0.0,0.0,0.0,11133,23316,23964,32633,17289,5
0.0,0.0,0.0,11121,23316,23964,32566,17220,5
0.0,0.0,0.0,11109,23294,23987,32566,17220,5
0.0,0.0,0.0,11109,23339,23940,32566,17220,5
0.0,0.0,0.0,11109,23294,23987,32566,17254,5
0.0,0.0,0.0,11084,23339,23894,32566,17220,5
0.0,0.0,0.0,11084,23294,23917,32533,17203,5
0.0,0.0,0.0,11072,23316,23847,32500,17254,5
0.0,0.0,0.0,11072,23294,23870,32467,17220,5
0.0,0.0,0.0,11072,23294,23847,32500,17254,5
0.0,0.0,0.0,11060,23225,23870,32500,17254,5
0.0,0.0,0.0,11084,23294,23870,32435,17220,5
0.0,0.0,0.0,11060,23225,23847,32500,17220,5
0.0,0.0,0.0,11060,23248,23847,32467,17237,5
0.0,0.0,0.0,11060,23225,23870,32500,17220,5
0.0,0.0,0.0,11060,23248,23847,32500,17254,5
0.0,0.0,0.0,11060,23248,23847,32533,17237,5
0.0,0.0,0.0,11060,23271,23847,32500,17254,5
0.0,0.0,0.0,11060,23294,23847,32533,17289,5
0.0,0.0,0.0,11109,23225,23847,32566,17323,5
0.0,0.0,0.0,11121,23157,23754,32500,17220,5
0.0,0.0,0.0,11109,23112,23754,32435,17118,5
0.0,0.0,0.0,11109,23157,23661,32435,16949,5
0.0,0.0,0.0,11109,23112,23569,32369,16815,5
0.0,0.0,0.0,11121,23067,23569,32173,16681,5
0.0,0.0,0.0,11121,23022,23499,32173,16648,5
0.0,0.0,0.0,11096,22977,23546,32205,16648,5
0.0,0.0,0.0,11084,23022,23522,32108,16715,5
0.0,0.0,0.0,11084,22977,23569,32108,16748,5
0.0,0.0,0.0,11084,22932,23522,32108,16698,5
0.0,0.0,0.0,11072,22910,23522,32140,16748,5
0.0,0.0,0.0,11109,22932,23569,32238,16781,5
0.0,0.0,0.0,11084,22932,23592,32369,16949,5
0.0,0.0,0.0,11072,23022,23847,33168,17845,5
0.0,0.0,0.0,11084,23112,24176,33714,18727,5
0.0,0.0,0.0,11072,23112,24129,33645,18672,5
0.0,0.0,0.0,11072,23203,24129,33576,18489,5
0.0,0.0,0.0,11072,23294,24105,33508,18453,5
0.0,0.0,0.0,11060,23294,24129,33337,18344,5
0.0,0.0,0.0,11060,23339,24058,33236,18290,5
0.0,0.0,0.0,11060,23316,24058,33236,18272,5
0.0,0.0,0.0,11060,23339,24034,33236,18129,5
0.0,0.0,0.0,11036,23294,23987,33168,17513,5
0.0,0.0,0.0,11072,23316,23847,33033,16434,5
0.0,0.0,0.0,11084,23203,23800,33033,15459,5
0.0,0.0,0.0,11072,23203,23684,32899,14997,5
0.0,0.0,0.0,11072,23203,23661,32899,14997,5
0.0,0.0,0.0,11060,23135,23661,32899,14907,5
0.0,0.0,0.0,11084,23112,23638,32966,14876,5
0.0,0.0,0.0,11060,23044,23615,32932,14861,5
0.0,0.0,0.0,11060,23135,23661,32899,14816,5
0.0,0.0,0.0,11060,23067,23661,32932,14846,5
0.0,0.0,0.0,11084,23112,23615,32932,14846,5
0.0,0.0,0.0,11060,23112,23615,32899,14816,5
0.0,0.0,0.0,11060,23135,23569,32899,14876,5
0.0,0.0,0.0,11060,23067,23592,32832,14907,5
0.0,0.0,0.0,11072,23157,23546,32699,14846,5
0.0,0.0,0.0,11133,23135,23592,32765,14846,5
0.0,0.0,0.0,11182,23135,23615,32666,14846,5
0.0,0.0,0.0,11182,23112,23592,32666,14816,5
0.0,0.0,0.0,11182,23135,23592,32566,14846,5
0.0,0.0,0.0,11182,23135,23592,32666,14816,5
0.0,0.0,0.0,11182,23112,23615,32666,14846,5
0.0,0.0,0.0,11145,23135,23638,32666,14846,5
0.0,0.0,0.0,11121,23067,23592,32533,14861,5
0.0,0.0,0.0,11133,23067,23569,32533,14861,5
0.0,0.0,0.0,11109,23044,23592,32435,14846,5
0.0,0.0,0.0,11109,22977,23569,32435,14816,5
0.0,0.0,0.0,11109,22843,23431,32238,14756,5
0.0,0.0,0.0,11109,22776,23362,31913,14666,5
0.0,0.0,0.0,11109,22709,23385,31913,14666,5
0.0,0.0,0.0,11109,22709,23385,31849,14636,5
0.0,0.0,0.0,11109,22687,23431,31881,14621,5
0.0,0.0,0.0,11109,22709,23431,31978,14666,5
0.0,0.0,0.0,11109,22709,23385,31881,14726,5
0.0,0.0,0.0,11096,22665,23339,31881,14726,5
0.0,0.0,0.0,11084,22665,23385,31881,14711,5
0.0,0.0,0.0,11084,22665,23385,31978,14726,5
0.0,0.0,0.0,11084,22709,23385,31978,14726,5
0.0,0.0,0.0,11072,22665,23385,31978,14741,5
0.0,0.0,0.0,11084,22665,23385,31881,14696,5
0.0,0.0,0.0,11060,22709,23339,31946,14681,5
0.0,0.0,0.0,11060,22665,23339,31849,14666,5
0.0,0.0,0.0,11060,22665,23316,31849,14666,5
0.0,0.0,0.0,11060,22709,23339,31849,14651,5
0.0,0.0,0.0,11024,22643,23339,31849,14666,5
0.0,0.0,0.0,11012,22709,23316,31785,14621,5
0.0,0.0,0.0,11012,22687,23294,31752,14621,5
0.0,0.0,0.0,11084,22709,23362,31720,14666,5
0.0,0.0,0.0,11121,22687,23339,31656,14681,5
0.0,0.0,0.0,11133,22754,23362,31720,14621,5
0.0,0.0,0.0,11133,22776,23385,31593,14696,5
0.0,0.0,0.0,11133,22731,23316,31593,14696,5
0.0,0.0,0.0,11121,22754,23339,31593,14681,5
0.0,0.0,0.0,11109,22687,23339,31529,14666,5
0.0,0.0,0.0,11109,22621,23294,31497,14636,5
0.0,0.0,0.0,11109,22665,23294,31529,14681,5
0.0,0.0,0.0,11109,22687,23225,31497,14666,5
0.0,0.0,0.0,11109,22687,23225,31593,14651,5
0.0,0.0,0.0,11096,22665,23225,31529,14651,5
0.0,0.0,0.0,11072,22599,23225,31593,14607,5
0.0,0.0,0.0,11072,22576,23203,31497,14562,5
0.0,0.0,0.0,11036,22488,23203,31465,14547,5
0.0,0.0,0.0,11060,22510,23157,31529,14607,5
0.0,0.0,0.0,11060,22488,23203,31465,14562,5
0.0,0.0,0.0,11048,22510,23157,31465,14577,5
0.0,0.0,0.0,11036,22444,23157,31402,14562,5
0.0,0.0,0.0,11072,22532,23203,31402,14547,5
0.0,0.0,0.0,11072,22510,23180,31276,14547,5
0.0,0.0,0.0,11084,22488,23203,31434,14621,5
0.0,0.0,0.0,11084,22488,23203,31339,14547,5
0.0,0.0,0.0,11072,22423,23203,31276,14577,5
0.0,0.0,0.0,11109,22444,23135,31276,14607,5
0.0,0.0,0.0,11109,22423,23157,31276,14592,5
0.0,0.0,0.0,11109,22444,23157,31213,14666,5
0.0,0.0,0.0,11109,22444,23157,31213,14621,5
0.0,0.0,0.0,11133,22510,23203,31339,14666,5
0.0,0.0,0.0,11109,22576,23203,31339,14726,5
0.0,0.0,0.0,11109,22621,23248,31402,14741,5
0.0,0.0,0.0,11084,22709,23225,31529,14771,5
0.0,0.0,0.0,11072,22798,23294,31529,14846,5
0.0,0.0,0.0,11072,22843,23248,31624,14967,5
0.0,0.0,0.0,11072,23112,23339,31593,15150,5
0.0,0.0,0.0,11084,23569,23431,31720,15304,5
0.0,0.0,0.0,11072,23824,23431,31624,15397,5
0.0,0.0,0.0,11072,23730,23431,31624,15381,5
0.0,0.0,0.0,11096,23707,23431,31624,15397,5
0.0,0.0,0.0,11072,23754,23385,31561,15366,5
0.0,0.0,0.0,11060,23777,23362,31529,15350,5
0.0,0.0,0.0,11084,23754,23362,31561,15397,5
0.0,0.0,0.0,11060,23754,23316,31529,15459,5
0.0,0.0,0.0,11072,23754,23316,31497,15459,5
0.0,0.0,0.0,11072,23730,23225,31465,15475,5
0.0,0.0,0.0,11060,23684,23225,31465,15412,5
0.0,0.0,0.0,11060,23569,23294,31561,15397,5
0.0,0.0,0.0,11072,23569,23225,31465,15381,5
0.0,0.0,0.0,11060,23477,23203,31529,15335,5
0.0,0.0,0.0,11060,23431,23203,31465,15304,5
0.0,0.0,0.0,11048,23431,23135,31497,15335,5
0.0,0.0,0.0,11060,23431,23157,31529,15350,5
0.0,0.0,0.0,11036,23431,23112,31465,15459,5
0.0,0.0,0.0,11060,23477,23112,31497,15506,5
0.0,0.0,0.0,11024,23431,23135,31497,15490,5
0.0,0.0,0.0,11024,23339,23067,31497,15242,5
0.0,0.0,0.0,11012,23294,23022,31529,15181,5
0.0,0.0,0.0,11012,23203,22955,31497,15058,5
0.0,0.0,0.0,11024,23203,22977,31465,14922,5
0.0,0.0,0.0,10987,23157,22932,31465,14922,5
0.0,0.0,0.0,10975,23112,22865,31465,14922,5
0.0,0.0,0.0,10975,23112,22887,31402,14922,5
0.0,0.0,0.0,10975,23112,22887,31465,14967,5
0.0,0.0,0.0,10963,23112,22887,31402,14967,5
0.0,0.0,0.0,10975,23135,22887,31402,14967,5
0.0,0.0,0.0,10927,23067,22887,31370,14967,5
0.0,0.0,0.0,10915,23135,22887,31402,14967,5
0.0,0.0,0.0,10915,23157,22843,31402,14967,5
0.0,0.0,0.0,10891,23112,22887,31339,14967,5
0.0,0.0,0.0,10867,23112,22887,31370,14982,5
0.0,0.0,0.0,10843,23067,22843,31339,14967,5
0.0,0.0,0.0,10819,23044,22843,31339,15028,5
0.0,0.0,0.0,10819,23112,22843,31370,14982,5
0.0,0.0,0.0,10819,23044,22843,31339,15028,5
0.0,0.0,0.0,10771,23022,22798,31307,15058,5
0.0,0.0,0.0,10795,23022,22754,31339,15028,5
0.0,0.0,0.0,10748,23022,22754,31276,15104,5
0.0,0.0,0.0,10771,22977,22798,31276,15058,5
0.0,0.0,0.0,10748,23022,22754,31339,15058,5
0.0,0.0,0.0,10748,22977,22754,31276,15043,5
0.0,0.0,0.0,10724,22932,22754,31213,15058,5
0.0,0.0,0.0,10748,22999,22798,31276,15089,5
0.0,0.0,0.0,10748,22955,22754,31244,15043,5
0.0,0.0,0.0,10748,22977,22731,31213,15028,5
0.0,0.0,0.0,10724,22932,22754,31244,15043,5
0.0,0.0,0.0,10748,22932,22754,31244,15028,5
0.0,0.0,0.0,10724,22910,22709,31181,15058,5
0.0,0.0,0.0,10724,22932,22665,31181,15089,5
0.0,0.0,0.0,10748,22932,22731,31213,15074,5
0.0,0.0,0.0,10748,22955,22687,31119,15043,5
0.0,0.0,0.0,10771,22932,22709,31150,15058,5
0.0,0.0,0.0,10819,22843,22709,31213,15089,5
0.0,0.0,0.0,10903,22754,22731,31244,14982,5
0.0,0.0,0.0,10963,22599,22820,31276,14846,5
0.0,0.0,0.0,10963,22576,22776,31213,14726,5
0.0,0.0,0.0,10963,22423,22643,30994,14577,5
0.0,0.0,0.0,10939,22444,22576,30715,14429,5
0.0,0.0,0.0,10927,22401,22488,30622,14429,5
0.0,0.0,0.0,10915,22401,22488,30469,14399,5
0.0,0.0,0.0,10867,22313,22488,30499,14429,5
0.0,0.0,0.0,10867,22335,22444,30530,14488,5
0.0,0.0,0.0,10867,22335,22444,30591,14503,5
0.0,0.0,0.0,10843,22401,22466,30591,14547,5
0.0,0.0,0.0,10831,22444,22444,30653,14666,5
0.0,0.0,0.0,10843,22466,22488,30653,14726,5
0.0,0.0,0.0,10819,22510,22709,30838,15119,5
0.0,0.0,0.0,10819,22576,23248,31181,15553,5
0.0,0.0,0.0,10819,22665,23248,31087,15490,5
0.0,0.0,0.0,10795,22731,23294,31213,15459,5
0.0,0.0,0.0,10843,22776,23225,30962,15397,5
0.0,0.0,0.0,10807,22955,23225,31119,15459,5
0.0,0.0,0.0,10783,23022,23203,31087,15568,5
0.0,0.0,0.0,10783,23067,23225,31087,15521,5
0.0,0.0,0.0,10771,23044,23203,31087,15537,5
0.0,0.0,0.0,10724,23022,23203,31056,15443,5
0.0,0.0,0.0,10301,22977,23112,30962,15335,5
0.0,0.0,0.0,10071,22843,23022,30745,15119,5
0.0,0.0,0.0,10221,22709,22977,30591,14967,5
0.0,0.0,0.0,10371,22709,22932,30561,14937,5
0.0,0.0,0.0,10464,22665,22932,30499,14861,5
0.0,0.0,0.0,10394,22621,22865,30469,14907,5
0.0,0.0,0.0,10301,22576,22865,30469,14861,5
0.0,0.0,0.0,10255,22576,22887,30499,14907,5
0.0,0.0,0.0,10371,22576,22843,30469,14891,5
0.0,0.0,0.0,10464,22576,22843,30499,14861,5
0.0,0.0,0.0,10488,22576,22865,30408,14846,5
0.0,0.0,0.0,10488,22576,22843,30469,14801,5
0.0,0.0,0.0,10499,22576,22843,30469,14786,5
0.0,0.0,0.0,10629,22621,22865,30377,14801,5
0.0,0.0,0.0,10748,22599,22865,30469,14756,5
0.0,0.0,0.0,10771,22665,22932,30408,14756,5
0.0,0.0,0.0,10748,22621,22932,30469,14801,5
0.0,0.0,0.0,10700,22621,22977,30469,14816,5
0.0,0.0,0.0,10653,22621,23022,30530,14846,5
0.0,0.0,0.0,10617,22665,22977,30469,14846,5
0.0,0.0,0.0,10605,22576,22955,30469,14786,5
0.0,0.0,0.0,10605,22554,22932,30469,14786,5
0.0,0.0,0.0,10582,22576,22843,30499,14786,5
0.0,0.0,0.0,10594,22621,22932,30653,14786,5
0.0,0.0,0.0,10558,22576,22865,30715,14786,5
0.0,0.0,0.0,10594,22576,22887,30715,14756,5
0.0,0.0,0.0,10582,22532,22910,30684,14831,5
0.0,0.0,0.0,10546,22488,22843,30591,14756,5
0.0,0.0,0.0,10594,22488,22776,30530,14801,5
0.0,0.0,0.0,10605,22401,22731,30469,14786,5
0.0,0.0,0.0,10605,22401,22709,30499,14756,5
0.0,0.0,0.0,10582,22357,22709,30469,14756,5
0.0,0.0,0.0,10582,22357,22754,30530,14756,5
0.0,0.0,0.0,10582,22313,22731,30499,14786,5
0.0,0.0,0.0,10546,22248,22665,30469,14786,5
0.0,0.0,0.0,10546,22270,22709,30469,14786,5
0.0,0.0,0.0,10523,22292,22709,30469,14801,5
0.0,0.0,0.0,10535,22335,22665,30408,14801,5
0.0,0.0,0.0,10546,22357,22665,30377,14846,5
0.0,0.0,0.0,10535,22357,22665,30347,14846,5
0.0,0.0,0.0,10523,22357,22643,30377,14846,5
0.0,0.0,0.0,10535,22357,22621,30408,14846,5
0.0,0.0,0.0,10535,22313,22599,30408,14846,5
0.0,0.0,0.0,10535,22313,22599,30347,14846,5
0.0,0.0,0.0,10535,22313,22621,30347,14876,5
0.0,0.0,0.0,10535,22292,22599,30347,14876,5
0.0,0.0,0.0,10511,22335,22599,30408,14907,5
0.0,0.0,0.0,10511,22357,22576,30347,14907,5
0.0,0.0,0.0,10535,22335,22621,30408,14876,5
0.0,0.0,0.0,10511,22357,22599,30347,14907,5
0.0,0.0,0.0,10511,22401,22643,30408,14922,5
0.0,0.0,0.0,10511,22401,22621,30408,14907,5
0.0,0.0,0.0,10535,22357,22643,30347,14907,5
0.0,0.0,0.0,10535,22423,22576,30347,14907,5
0.0,0.0,0.0,10535,22488,22621,30377,14907,5
0.0,0.0,0.0,10535,22488,22621,30408,14967,5
0.0,0.0,0.0,10535,22488,22621,30469,15058,5
0.0,0.0,0.0,10499,22488,22665,30438,15058,5
0.0,0.0,0.0,10535,22510,22621,30469,15104,5
0.0,0.0,0.0,10535,22599,22665,30530,15104,5
0.0,0.0,0.0,10511,22621,22643,30530,15150,5
0.0,0.0,0.0,10499,22532,22665,30499,15181,5
0.0,0.0,0.0,10535,22576,22621,30591,15196,5
0.0,0.0,0.0,10535,22599,22599,30499,15227,5
0.0,0.0,0.0,10511,22576,22621,30530,15258,5
0.0,0.0,0.0,10535,22621,22599,30530,15459,5
0.0,0.0,0.0,10511,22599,22621,30530,15553,5
0.0,0.0,0.0,10523,22576,22576,30530,15647,5
0.0,0.0,0.0,10511,22621,22576,30591,15773,5
0.0,0.0,0.0,10523,22576,22576,30499,15837,5
0.0,0.0,0.0,10511,22709,22621,30469,15996,5
0.0,0.0,0.0,10523,22798,22665,30530,15980,5
0.0,0.0,0.0,10523,22754,22599,30469,16028,5
0.0,0.0,0.0,10523,22798,22665,30591,16060,5
0.0,0.0,0.0,10499,22776,22665,30561,16093,5
0.0,0.0,0.0,10535,22776,22643,30499,16125,5
0.0,0.0,0.0,10511,22754,22599,30469,16157,5
0.0,0.0,0.0,10511,22754,22621,30499,16157,5
0.0,0.0,0.0,10488,22754,22599,30408,16157,5
0.0,0.0,0.0,10488,22731,22665,30499,16173,5
0.0,0.0,0.0,10499,22754,22599,30469,16173,5
0.0,0.0,0.0,10488,22599,22599,30469,16157,5
0.0,0.0,0.0,10488,22709,22599,30469,16189,5
0.0,0.0,0.0,10488,22665,22599,30469,16157,5
0.0,0.0,0.0,10488,22754,22599,30469,16189,5
0.0,0.0,0.0,10488,22754,22621,30469,16125,5
0.0,0.0,0.0,10476,22687,22599,30499,16189,5
0.0,0.0,0.0,10464,22709,22599,30469,16189,5
0.0,0.0,0.0,10488,22731,22621,30591,16157,5
0.0,0.0,0.0,10464,22731,22576,30469,16189,5
0.0,0.0,0.0,10464,22709,22576,30469,16206,5
0.0,0.0,0.0,10453,22709,22621,30438,16222,5
0.0,0.0,0.0,10441,22709,22576,30469,16254,5
0.0,0.0,0.0,10488,22709,22621,30438,16254,5
0.0,0.0,0.0,10476,22754,22576,30408,16254,5
0.0,0.0,0.0,10453,22754,22576,30408,16238,5
0.0,0.0,0.0,10464,22709,22576,30377,16287,5
0.0,0.0,0.0,10464,22687,22621,30469,16287,5
0.0,0.0,0.0,10441,22709,22621,30408,16287,5
0.0,0.0,0.0,10441,22731,22576,30438,16271,5
0.0,0.0,0.0,10464,22709,22599,30408,16319,5
0.0,0.0,0.0,10441,22754,22599,30408,16287,5
0.0,0.0,0.0,10441,22843,22621,30530,16352,5
0.0,0.0,0.0,10453,22977,22709,30684,16417,5
0.0,0.0,0.0,10453,22955,22709,30591,16417,5
0.0,0.0,0.0,10464,22977,22709,30591,16417,5
0.0,0.0,0.0,10499,22977,22709,30622,16483,5
0.0,0.0,0.0,10535,22955,22665,30530,16499,5
0.0,0.0,0.0,10535,22932,22621,30469,16549,5
0.0,0.0,0.0,10582,22932,22665,30499,16598,5
0.0,0.0,0.0,10605,22887,22621,30317,16648,5
0.0,0.0,0.0,10605,22887,22621,30408,16698,5
0.0,0.0,0.0,10605,22887,22621,30347,16765,5
0.0,0.0,0.0,10605,22843,22665,30347,16848,5
0.0,0.0,0.0,10605,22887,22576,30226,16831,5
0.0,0.0,0.0,10582,22843,22576,30256,16865,5
0.0,0.0,0.0,10582,22843,22576,30226,16831,5
0.0,0.0,0.0,10535,22843,22576,30256,16848,5
0.0,0.0,0.0,10441,22798,22532,30165,16848,5
0.0,0.0,0.0,10429,22776,22510,30195,16748,5
0.0,0.0,0.0,10441,22798,22510,30105,16815,5
0.0,0.0,0.0,10476,22798,22466,30045,16765,5
0.0,0.0,0.0,10488,22754,22488,30045,16781,5
0.0,0.0,0.0,10464,22754,22444,30105,16781,5
0.0,0.0,0.0,10441,22754,22488,30165,16765,5
0.0,0.0,0.0,10418,22887,22510,30105,16681,5
0.0,0.0,0.0,10394,22932,22466,30165,16615,5
0.0,0.0,0.0,10313,23067,22510,30165,16615,5
0.0,0.0,0.0,10348,23203,22621,30408,16615,5
0.0,0.0,0.0,10371,23248,22687,30408,16831,5
0.0,0.0,0.0,10394,23248,22665,30469,17016,5
0.0,0.0,0.0,10394,23294,22665,30347,17033,5
0.0,0.0,0.0,10371,23248,22687,30438,17084,5
0.0,0.0,0.0,10371,23316,22665,30469,17016,5
0.0,0.0,0.0,10406,23477,22665,30653,16698,5
0.0,0.0,0.0,10406,23431,22576,30653,16417,5
0.0,0.0,0.0,10394,23431,22576,30653,16287,5
0.0,0.0,0.0,10394,23339,22532,30469,16254,5
0.0,0.0,0.0,10406,23225,22488,30347,16060,5
0.0,0.0,0.0,10394,23022,22379,30408,15789,5
0.0,0.0,0.0,10394,22865,22313,30622,15397,5
0.0,0.0,0.0,10359,22709,22226,30653,15335,5
0.0,0.0,0.0,10348,22665,22226,30530,15242,5
0.0,0.0,0.0,10348,22665,22140,30469,15181,5
0.0,0.0,0.0,10383,22599,22096,30469,15165,5
0.0,0.0,0.0,10394,22532,22075,30286,15335,5
0.0,0.0,0.0,10418,22510,22010,30195,15319,5
0.0,0.0,0.0,10394,22488,22032,30195,15288,5
0.0,0.0,0.0,10394,22576,22053,30195,15366,5
0.0,0.0,0.0,10441,22754,22096,30226,15490,5
0.0,0.0,0.0,10511,22955,22161,30286,15584,5
0.0,0.0,0.0,10535,23112,22183,30408,15837,5
0.0,0.0,0.0,10535,23157,22313,30530,16352,5
0.0,0.0,0.0,10511,23294,22313,30530,16632,5
0.0,0.0,0.0,10511,23316,22270,30530,16632,5
0.0,0.0,0.0,10488,23294,22313,30530,16648,5
0.0,0.0,0.0,10499,23385,22292,30530,16715,5
0.0,0.0,0.0,10511,23431,22313,30499,16765,5
0.0,0.0,0.0,10488,23431,22248,30499,16748,5
0.0,0.0,0.0,10499,23408,22270,30499,16798,5
0.0,0.0,0.0,10488,23477,22248,30530,16815,5
0.0,0.0,0.0,10453,23431,22226,30591,16765,5
0.0,0.0,0.0,10441,23385,22226,30561,16815,5
0.0,0.0,0.0,10441,23316,22226,30591,16781,5
0.0,0.0,0.0,10406,23294,22226,30469,16815,5
0.0,0.0,0.0,10418,23271,22161,30499,16815,5
0.0,0.0,0.0,10394,23248,22140,30469,16781,5
0.0,0.0,0.0,10394,23135,22140,30469,16815,5
0.0,0.0,0.0,10394,23157,22183,30469,16815,5
0.0,0.0,0.0,10371,23135,22140,30408,16781,5
0.0,0.0,0.0,10394,23157,22140,30347,16748,5
0.0,0.0,0.0,10383,23157,22140,30347,16748,5
0.0,0.0,0.0,10394,23112,22140,30347,16748,5
0.0,0.0,0.0,10394,23112,22140,30347,16681,5
0.0,0.0,0.0,10394,23180,22053,30347,16549,5
0.0,0.0,0.0,10394,23112,22140,30469,16352,5
0.0,0.0,0.0,10394,23135,22096,30469,16222,5
0.0,0.0,0.0,10394,23112,22140,30438,16189,5
0.0,0.0,0.0,10394,23112,22140,30469,16125,5
0.0,0.0,0.0,10371,23090,22075,30408,16141,5
0.0,0.0,0.0,10394,23067,22075,30377,16125,5
0.0,0.0,0.0,10371,23067,22096,30347,16093,5
0.0,0.0,0.0,10371,23112,22096,30377,16157,5
0.0,0.0,0.0,10348,23067,22075,30469,16141,5
0.0,0.0,0.0,10394,23112,22096,30408,16125,5
0.0,0.0,0.0,10383,23067,22075,30377,16093,5
0.0,0.0,0.0,10359,23112,22096,30469,16157,5
0.0,0.0,0.0,10371,23090,22096,30438,16157,5
0.0,0.0,0.0,10371,23044,22053,30408,16157,5
0.0,0.0,0.0,10371,23044,22053,30377,16157,5
0.0,0.0,0.0,10394,23067,22053,30408,16206,5
0.0,0.0,0.0,10418,23112,22053,30377,16222,5
0.0,0.0,0.0,10453,23112,22096,30469,16173,5
0.0,0.0,0.0,10488,23090,22096,30591,16189,5
0.0,0.0,0.0,10453,23112,22140,30591,16189,5
0.0,0.0,0.0,10441,23022,22096,30530,16173,5
0.0,0.0,0.0,10453,23044,22075,30469,16173,5
0.0,0.0,0.0,10453,22977,22096,30469,16206,5
0.0,0.0,0.0,10441,23022,22053,30499,16222,5
0.0,0.0,0.0,10429,22999,22096,30469,16222,5
0.0,0.0,0.0,10441,23022,22096,30408,16238,5
0.0,0.0,0.0,10441,22977,22075,30438,16157,5
0.0,0.0,0.0,10429,23022,22053,30408,16189,5
0.0,0.0,0.0,10441,23022,22053,30469,16189,5
0.0,0.0,0.0,10418,23022,22075,30469,16157,5
0.0,0.0,0.0,10441,23022,22053,30408,16189,5
0.0,0.0,0.0,10441,23022,22053,30408,16222,5
0.0,0.0,0.0,10441,22999,22053,30469,16319,5
0.0,0.0,0.0,10441,22999,22053,30469,16336,5
0.0,0.0,0.0,10429,22977,22053,30438,16417,5
0.0,0.0,0.0,10441,23022,22075,30377,16434,5
0.0,0.0,0.0,10441,23067,22096,30408,16483,5
0.0,0.0,0.0,10418,22977,22053,30347,16499,5
0.0,0.0,0.0,10406,22977,22075,30377,16565,5
0.0,0.0,0.0,10441,22977,22096,30347,16582,5
0.0,0.0,0.0,10441,22977,22075,30286,16615,5
0.0,0.0,0.0,10441,22977,22140,30347,16582,5
0.0,0.0,0.0,10441,22977,22118,30408,16582,5
0.0,0.0,0.0,10441,22977,22140,30438,16615,5
0.0,0.0,0.0,10453,22955,22140,30469,16549,5
0.0,0.0,0.0,10453,22932,22075,30377,16549,5
0.0,0.0,0.0,10464,22843,22053,30377,16516,5
0.0,0.0,0.0,10453,22887,22010,30377,16532,5
0.0,0.0,0.0,10453,22843,22010,30286,16483,5
0.0,0.0,0.0,10441,22798,22010,30256,16549,5
0.0,0.0,0.0,10441,22776,22010,30256,16615,5
0.0,0.0,0.0,10418,22798,21967,30715,16748,5
0.0,0.0,0.0,10406,22731,21967,30715,16781,5
0.0,0.0,0.0,10371,22776,21946,30715,16915,5
0.0,0.0,0.0,10371,22798,22010,30317,17118,5
0.0,0.0,0.0,10371,22820,22010,30286,17289,5
0.0,0.0,0.0,10371,22977,22140,30347,17704,5
0.0,0.0,0.0,10359,23044,22270,30438,17845,5
0.0,0.0,0.0,10348,23067,22270,30377,17704,5
0.0,0.0,0.0,10371,23090,22270,30438,17634,5
0.0,0.0,0.0,10348,23157,22401,30561,17495,5
0.0,0.0,0.0,10359,23180,22466,30530,17495,5
0.0,0.0,0.0,10371,23203,22532,30530,17565,5
0.0,0.0,0.0,10371,23225,22665,30591,17739,5
0.0,0.0,0.0,10359,23203,22665,30653,17722,5
0.0,0.0,0.0,10348,23248,22665,30561,17774,5
0.0,0.0,0.0,10359,23203,22621,30591,17722,5
0.0,0.0,0.0,10371,23203,22599,30499,17704,5
0.0,0.0,0.0,10325,23135,22576,30438,17774,5
0.0,0.0,0.0,10325,23135,22576,30438,17704,5
0.0,0.0,0.0,10325,23112,22532,30469,17739,5
0.0,0.0,0.0,10301,23067,22576,30408,17722,5
0.0,0.0,0.0,10301,23022,22532,30530,17634,5
0.0,0.0,0.0,10313,23022,22488,30408,17357,5
0.0,0.0,0.0,10301,22865,22357,30256,16748,5
0.0,0.0,0.0,10301,22754,22161,30226,16417,5
0.0,0.0,0.0,10301,22599,22118,30165,16157,5
0.0,0.0,0.0,10301,22488,22010,29925,15932,5
0.0,0.0,0.0,10301,22444,21967,30347,15852,5
0.0,0.0,0.0,10394,22444,21924,30286,15837,5
0.0,0.0,0.0,10441,22313,21882,30075,15773,5
0.0,0.0,0.0,10488,22335,21818,30015,15773,5
0.0,0.0,0.0,10453,22313,21796,29984,15631,5
0.0,0.0,0.0,10464,22313,21818,30105,15647,5
0.0,0.0,0.0,10488,22357,21839,30165,15647,5
0.0,0.0,0.0,10488,22444,21882,30469,15710,5
0.0,0.0,0.0,10499,22510,22010,30105,15757,5
0.0,0.0,0.0,10582,22798,22075,30015,15805,5
0.0,0.0,0.0,10605,22599,22032,29835,15805,5
0.0,0.0,0.0,10582,22576,22010,29746,15789,5
0.0,0.0,0.0,10488,22532,21967,30165,15852,5
0.0,0.0,0.0,10488,22466,21924,30165,15900,5
0.0,0.0,0.0,10488,22510,21924,30226,15980,5
0.0,0.0,0.0,10535,22709,21924,30408,16012,5
0.0,0.0,0.0,10582,22776,22053,30226,16060,5
0.0,0.0,0.0,10594,22932,22096,30347,16060,5
0.0,0.0,0.0,10605,22999,22140,30408,16060,5
0.0,0.0,0.0,10594,23112,22096,30286,16157,5
0.0,0.0,0.0,10558,23067,22140,30256,16189,5
0.0,0.0,0.0,10582,23203,22183,30286,16238,5
0.0,0.0,0.0,10546,23294,22140,30226,16254,5
0.0,0.0,0.0,10676,23225,22096,30105,16254,5
0.0,0.0,0.0,10795,23248,22075,30075,16238,5
0.0,0.0,0.0,10843,23203,22096,30045,16287,5
0.0,0.0,0.0,10819,23203,22096,30075,16222,5
0.0,0.0,0.0,10807,23157,22096,30135,16222,5
0.0,0.0,0.0,10783,23180,22140,30317,16287,5
0.0,0.0,0.0,10771,23180,22096,30286,16238,5
0.0,0.0,0.0,10783,23225,22096,30286,16060,5
0.0,0.0,0.0,10891,23385,22053,30347,16044,5
0.0,0.0,0.0,10927,23385,22010,30165,16044,5
0.0,0.0,0.0,10963,23385,21924,30469,16028,5
0.0,0.0,0.0,10963,23248,22010,30015,15932,5
0.0,0.0,0.0,10963,23203,21882,30347,15741,5
0.0,0.0,0.0,10939,23022,21839,30408,15335,5
0.0,0.0,0.0,10963,22977,21796,30377,15288,5
0.0,0.0,0.0,10939,22843,21796,30408,15273,5
0.0,0.0,0.0,10927,22843,21733,30286,15304,5
0.0,0.0,0.0,10927,22754,21711,30347,15319,5
0.0,0.0,0.0,10927,22754,21711,30347,15335,5
0.0,0.0,0.0,10915,22754,21648,30377,15319,5
0.0,0.0,0.0,10915,22798,21711,30469,15335,5
0.0,0.0,0.0,10891,22798,21711,30408,15304,5
0.0,0.0,0.0,10867,22798,21711,30438,15366,5
0.0,0.0,0.0,10819,22843,21690,30408,15366,5
0.0,0.0,0.0,10831,22798,21711,30377,15397,5
0.0,0.0,0.0,10819,22776,21648,30347,15350,5
0.0,0.0,0.0,10831,22754,21669,30377,15397,5
0.0,0.0,0.0,10795,22731,21648,30408,15412,5
0.0,0.0,0.0,10819,22754,21669,30469,15428,5
0.0,0.0,0.0,10819,22709,21711,30530,15335,5
0.0,0.0,0.0,10819,22776,21669,30499,15242,5
0.0,0.0,0.0,10819,22754,21648,30469,15273,5
0.0,0.0,0.0,10795,22754,21669,30438,15273,5
0.0,0.0,0.0,10819,22754,21648,30469,15304,5
0.0,0.0,0.0,10819,22776,21711,30530,15304,5
0.0,0.0,0.0,10819,22843,21733,30653,15350,5
0.0,0.0,0.0,10819,22865,21818,30900,15490,5
0.0,0.0,0.0,10819,22932,21882,31087,15741,5
0.0,0.0,0.0,10819,22887,21924,31213,15900,5
0.0,0.0,0.0,10795,22887,22010,30838,16125,5
0.0,0.0,0.0,10819,22910,22010,30745,16125,5
0.0,0.0,0.0,10795,22887,21903,31181,16157,5
0.0,0.0,0.0,10819,22887,21882,31087,16125,5
0.0,0.0,0.0,10795,22887,21882,31087,16060,5
0.0,0.0,0.0,10795,22843,21818,31056,16028,5
0.0,0.0,0.0,10819,22865,21903,31087,15964,5
0.0,0.0,0.0,10819,22887,21882,31056,15964,5
0.0,0.0,0.0,10831,22887,21839,30962,15868,5
0.0,0.0,0.0,10843,22887,21882,30962,15852,5
0.0,0.0,0.0,10867,22910,21924,30962,15900,5
0.0,0.0,0.0,10867,22887,21903,30900,15852,5
0.0,0.0,0.0,10867,22887,21882,30869,15741,5
0.0,0.0,0.0,10867,22865,21882,30869,15741,5
0.0,0.0,0.0,10879,22865,21818,30838,15710,5
0.0,0.0,0.0,10927,22843,21882,30838,15647,5
0.0,0.0,0.0,10939,22843,21882,30838,15678,5
0.0,0.0,0.0,10951,22776,21818,30776,15663,5
0.0,0.0,0.0,10939,22798,21818,30838,15678,5
0.0,0.0,0.0,10915,22776,21796,30745,15647,5
0.0,0.0,0.0,10915,22754,21796,30715,15741,5
0.0,0.0,0.0,10915,22754,21796,30745,15710,5
0.0,0.0,0.0,10915,22798,21796,30715,15647,5
0.0,0.0,0.0,10903,22798,21796,30715,15678,5
0.0,0.0,0.0,10903,22798,21839,30745,15741,5
0.0,0.0,0.0,10891,22754,21796,30715,15710,5
0.0,0.0,0.0,10891,22776,21818,30715,15710,5
0.0,0.0,0.0,10891,22754,21754,30653,15710,5
0.0,0.0,0.0,10891,22776,21818,30776,15741,5
0.0,0.0,0.0,10879,22776,21775,30715,15741,5
0.0,0.0,0.0,10879,22754,21796,30715,15741,5
0.0,0.0,0.0,10879,22754,21818,30745,15773,5
0.0,0.0,0.0,10867,22754,21818,30745,15773,5
0.0,0.0,0.0,10879,22776,21775,30715,15757,5
0.0,0.0,0.0,10867,22731,21796,30715,15773,5
0.0,0.0,0.0,10867,22731,21775,30715,15726,5
0.0,0.0,0.0,10867,22798,21775,30715,15726,5
0.0,0.0,0.0,10891,22754,21775,30653,15741,5
0.0,0.0,0.0,10867,22776,21754,30653,15726,5
0.0,0.0,0.0,10867,22731,21733,30653,15741,5
0.0,0.0,0.0,10867,22798,21754,30684,15726,5
0.0,0.0,0.0,10879,22754,21796,30715,15757,5
0.0,0.0,0.0,10867,22776,21775,30715,15726,5
0.0,0.0,0.0,10915,22776,21818,30715,15773,5
0.0,0.0,0.0,10903,22820,21796,30715,15773,5
0.0,0.0,0.0,10879,22843,21796,30653,15741,5
0.0,0.0,0.0,10915,22776,21796,30653,15773,5
0.0,0.0,0.0,10903,22754,21796,30622,15789,5
0.0,0.0,0.0,10891,22709,21796,30653,15773,5
0.0,0.0,0.0,10867,22709,21775,30622,15805,5
0.0,0.0,0.0,10891,22731,21711,30684,15789,5
0.0,0.0,0.0,10891,22709,21711,30561,15789,5
0.0,0.0,0.0,10879,22665,21733,30591,15789,5
0.0,0.0,0.0,10879,22709,21711,30530,15773,5
0.0,0.0,0.0,10867,22687,21733,30530,15663,5
0.0,0.0,0.0,10867,22709,21711,30286,15757,5
0.0,0.0,0.0,10867,22665,21627,30105,15916,5
0.0,0.0,0.0,10843,22554,21584,29597,15852,5
0.0,0.0,0.0,10831,22488,21563,29450,15773,5
0.0,0.0,0.0,10843,22423,21542,29509,15631,5
0.0,0.0,0.0,10867,22357,21500,29450,15490,5
0.0,0.0,0.0,10819,22357,21437,29509,15475,5
0.0,0.0,0.0,10819,22357,21458,29686,15475,5
0.0,0.0,0.0,10819,22313,21437,29895,15459,5
0.0,0.0,0.0,10831,22292,21416,29984,15397,5
0.0,0.0,0.0,10855,22357,21416,30105,15443,5
0.0,0.0,0.0,10867,22444,21416,30105,15412,5
0.0,0.0,0.0,10915,22423,21458,30165,15475,5
0.0,0.0,0.0,10927,22488,21542,30286,15459,5
0.0,0.0,0.0,10927,22532,21584,30499,15459,5
0.0,0.0,0.0,10963,22599,21627,30653,15459,5
0.0,0.0,0.0,10927,22665,21627,30653,15459,5
0.0,0.0,0.0,10915,22621,21627,30715,15521,5
0.0,0.0,0.0,10891,22687,21711,30807,15537,5
0.0,0.0,0.0,10819,22709,21818,30994,15615,5
0.0,0.0,0.0,10724,22709,21796,31087,15710,5
0.0,0.0,0.0,10605,22709,21796,31025,15647,5
0.0,0.0,0.0,10488,22709,21796,30962,15615,5
0.0,0.0,0.0,10488,22665,21733,30962,15647,5
0.0,0.0,0.0,10488,22665,21796,31025,15678,5
0.0,0.0,0.0,10488,22776,21818,30994,15805,5
0.0,0.0,0.0,10441,22820,21882,31119,15837,5
0.0,0.0,0.0,10441,22820,21882,31025,15900,5
0.0,0.0,0.0,10464,22798,21882,31056,15932,5
0.0,0.0,0.0,10523,22843,21882,31087,15980,5
0.0,0.0,0.0,10535,22798,21839,31056,15980,5
0.0,0.0,0.0,10558,22798,21860,30962,16028,5
0.0,0.0,0.0,10582,22798,21882,30962,15996,5
0.0,0.0,0.0,10605,22754,21839,30838,15964,5
0.0,0.0,0.0,10641,22687,21796,30776,15964,5
0.0,0.0,0.0,10664,22754,21796,30715,15964,5
0.0,0.0,0.0,10653,22798,21860,30530,15980,5
0.0,0.0,0.0,10641,22955,22010,30226,15980,5
0.0,0.0,0.0,10653,23135,22010,30165,15964,5
0.0,0.0,0.0,10641,23157,22010,30165,15996,5
0.0,0.0,0.0,10653,23044,22010,30165,15964,5
0.0,0.0,0.0,10653,23044,22010,30286,15996,5
0.0,0.0,0.0,10629,23022,22096,30286,15964,5
0.0,0.0,0.0,10629,23022,22096,30286,16028,5
0.0,0.0,0.0,10629,23022,22096,30347,16157,5
0.0,0.0,0.0,10629,23044,22118,30377,16238,5
0.0,0.0,0.0,10641,22977,22118,30347,16319,5
0.0,0.0,0.0,10594,23022,22140,30015,16417,5
0.0,0.0,0.0,10629,22977,22140,29775,16287,5
0.0,0.0,0.0,10629,22977,22053,29686,16173,5
0.0,0.0,0.0,10629,22865,22010,29805,15964,5
0.0,0.0,0.0,10629,22754,22010,30165,15647,5
0.0,0.0,0.0,10605,22709,22010,30165,15600,5
0.0,0.0,0.0,10629,22665,22010,30226,15615,5
0.0,0.0,0.0,10629,22687,22010,30256,15521,5
0.0,0.0,0.0,10605,22687,21903,30715,15521,5
0.0,0.0,0.0,10605,22643,21924,30622,15490,5
0.0,0.0,0.0,10605,22665,21946,30499,15475,5
0.0,0.0,0.0,10605,22621,21924,30408,15506,5
0.0,0.0,0.0,10605,22599,21924,30286,15459,5
0.0,0.0,0.0,10605,22643,21903,30226,15475,5
0.0,0.0,0.0,10594,22576,21924,30226,15490,5
0.0,0.0,0.0,10582,22554,21924,30256,15475,5
0.0,0.0,0.0,10570,22532,21924,30226,15475,5
0.0,0.0,0.0,10605,22532,21903,30256,15521,5
0.0,0.0,0.0,10582,22532,21924,30226,15490,5
0.0,0.0,0.0,10582,22532,21924,30347,15490,5
0.0,0.0,0.0,10546,22510,21924,30408,15459,5
0.0,0.0,0.0,10605,22532,21924,30347,15475,5
0.0,0.0,0.0,10582,22510,22010,29895,15459,5
0.0,0.0,0.0,10582,22488,22010,29925,15459,5
0.0,0.0,0.0,10582,22532,21903,30377,15459,5
0.0,0.0,0.0,10570,22488,21903,30347,15475,5
0.0,0.0,0.0,10582,22510,21903,30347,15475,5
0.0,0.0,0.0,10546,22488,21903,30317,15459,5
0.0,0.0,0.0,10582,22510,21903,30347,15490,5
0.0,0.0,0.0,10546,22532,21882,30347,15521,5
0.0,0.0,0.0,10546,22488,21903,30408,15475,5
0.0,0.0,0.0,10546,22554,21903,30347,15475,5
0.0,0.0,0.0,10535,22532,21924,30408,15475,5
0.0,0.0,0.0,10535,22466,21903,30377,15506,5
0.0,0.0,0.0,10535,22554,21903,30347,15521,5
0.0,0.0,0.0,10535,22510,21882,30347,15568,5
0.0,0.0,0.0,10535,22510,21882,30286,15537,5
0.0,0.0,0.0,10535,22488,21882,30347,15553,5
0.0,0.0,0.0,10535,22532,21903,30347,15521,5
0.0,0.0,0.0,10535,22532,21860,30286,15584,5
0.0,0.0,0.0,10535,22488,21882,30286,15615,5
0.0,0.0,0.0,10535,22488,21903,30256,15600,5
0.0,0.0,0.0,10535,22488,21882,30317,15647,5
0.0,0.0,0.0,10499,22488,21839,30286,15647,5
0.0,0.0,0.0,10488,22488,21839,30256,15647,5
0.0,0.0,0.0,10488,22488,21839,30226,15647,5
0.0,0.0,0.0,10488,22488,21882,30256,15678,5
0.0,0.0,0.0,10488,22488,21839,30226,15710,5
0.0,0.0,0.0,10488,22488,21882,30256,15694,5
0.0,0.0,0.0,10488,22444,21882,30256,15694,5
0.0,0.0,0.0,10464,22444,21860,30256,15726,5
0.0,0.0,0.0,10488,22488,21839,30226,15710,5
0.0,0.0,0.0,10488,22444,21860,30286,15741,5
0.0,0.0,0.0,10453,22444,21839,30256,15773,5
0.0,0.0,0.0,10488,22444,21860,30226,15773,5
0.0,0.0,0.0,10464,22444,21818,30195,15837,5
0.0,0.0,0.0,10453,22401,21839,30286,15805,5
0.0,0.0,0.0,10453,22401,21839,30195,15900,5
0.0,0.0,0.0,10441,22423,21839,30195,15868,5
0.0,0.0,0.0,10441,22401,21818,30165,15916,5
0.0,0.0,0.0,10441,22423,21882,30195,15900,5
0.0,0.0,0.0,10441,22401,21839,30165,15868,5
0.0,0.0,0.0,10453,22401,21882,30226,15900,5
0.0,0.0,0.0,10429,22444,21796,30195,15932,5
0.0,0.0,0.0,10441,22444,21818,30165,15837,5
0.0,0.0,0.0,10441,22401,21839,30165,15868,5
0.0,0.0,0.0,10453,22444,21882,30195,15837,5
0.0,0.0,0.0,10453,22488,21882,30256,15852,5
0.0,0.0,0.0,10441,22444,21882,30256,15852,5
0.0,0.0,0.0,10453,22423,21882,30286,15852,5
0.0,0.0,0.0,10441,22444,21903,30256,15916,5
0.0,0.0,0.0,10441,22444,21882,30195,15900,5
0.0,0.0,0.0,10429,22444,21882,30256,15900,5
0.0,0.0,0.0,10441,22423,21882,30256,15932,5
0.0,0.0,0.0,10453,22444,21882,30226,15964,5
0.0,0.0,0.0,10441,22444,21839,30226,15964,5
0.0,0.0,0.0,10441,22444,21839,30195,15964,5
0.0,0.0,0.0,10441,22444,21839,30226,15980,5
0.0,0.0,0.0,10441,22423,21882,30256,15980,5
0.0,0.0,0.0,10441,22444,21860,30165,15964,5
0.0,0.0,0.0,10429,22444,21839,30165,15980,5
0.0,0.0,0.0,10441,22423,21882,30226,16012,5
0.0,0.0,0.0,10429,22444,21882,30195,16012,5
0.0,0.0,0.0,10418,22401,21882,30226,16060,5
0.0,0.0,0.0,10418,22401,21839,30165,16012,5
0.0,0.0,0.0,10441,22401,21903,30165,15980,5
0.0,0.0,0.0,10441,22401,21882,30226,15964,5
0.0,0.0,0.0,10441,22423,21882,30165,16012,5
0.0,0.0,0.0,10441,22401,21903,30165,15964,5
