GyroX,GyroY,GyroZ,Thumb,Index,Middle,Ring,Pinky,Gesture
0.0,0.0,0.0,12504,22379,11703,15181,13622,1
0.0,0.0,0.0,12490,22401,11703,15150,13608,1
0.0,0.0,0.0,12490,22357,11716,15211,13594,1
0.0,0.0,0.0,12490,22357,11703,15211,13608,1
0.0,0.0,0.0,12490,22357,11703,15211,13650,1
0.0,0.0,0.0,12490,22357,11703,15211,13679,1
0.0,0.0,0.0,12477,22357,11703,15211,13679,1
0.0,0.0,0.0,12477,22357,11703,15165,13679,1
0.0,0.0,0.0,12477,22313,11716,15150,13679,1
0.0,0.0,0.0,12490,22357,11703,15181,13693,1
0.0,0.0,0.0,12477,22313,11703,15150,13693,1
0.0,0.0,0.0,12490,22357,11703,15150,13693,1
0.0,0.0,0.0,12490,22357,11703,15165,13721,1
0.0,0.0,0.0,12490,22357,11716,15150,13735,1
0.0,0.0,0.0,12517,22423,11703,15150,13764,1
0.0,0.0,0.0,12504,22357,11741,15165,13792,1
0.0,0.0,0.0,12490,22401,11741,15181,13764,1
0.0,0.0,0.0,12477,22401,11728,15211,13749,1
0.0,0.0,0.0,12477,22401,11754,15211,13792,1
0.0,0.0,0.0,12530,22335,11728,15181,13749,1
0.0,0.0,0.0,12477,22335,11754,15211,13792,1
0.0,0.0,0.0,12477,22313,11754,15181,13792,1
0.0,0.0,0.0,12504,22335,11754,15150,13764,1
0.0,0.0,0.0,12504,22357,11741,15165,13749,1
0.0,0.0,0.0,12477,22357,11728,15165,13792,1
0.0,0.0,0.0,12477,22357,11754,15150,13806,1
0.0,0.0,0.0,12504,22357,11754,15165,13792,1
0.0,0.0,0.0,12490,22335,11754,15181,13792,1
0.0,0.0,0.0,12477,22357,11754,15181,13849,1
0.0,0.0,0.0,12477,22335,11754,15165,13821,1
0.0,0.0,0.0,12490,22401,11754,15165,13849,1
0.0,0.0,0.0,12490,22357,11754,15165,13849,1
0.0,0.0,0.0,12477,22379,11766,15181,13878,1
0.0,0.0,0.0,12477,22357,11766,15181,13849,1
0.0,0.0,0.0,12477,22401,11754,15211,13892,1
0.0,0.0,0.0,12490,22401,11754,15165,13849,1
0.0,0.0,0.0,12504,22357,11779,15165,13906,1
0.0,0.0,0.0,12477,22313,11779,15165,13935,1
0.0,0.0,0.0,12477,22357,11766,15181,13906,1
0.0,0.0,0.0,12477,22357,11792,15181,13935,1
0.0,0.0,0.0,12490,22357,11779,15150,13935,1
0.0,0.0,0.0,12477,22357,11779,15150,13992,1
0.0,0.0,0.0,12490,22357,11766,15150,13935,1
0.0,0.0,0.0,12477,22313,11779,15165,13935,1
0.0,0.0,0.0,12477,22357,11779,15150,13935,1
0.0,0.0,0.0,12477,22313,11779,15150,13964,1
0.0,0.0,0.0,12477,22379,11779,15165,13921,1
0.0,0.0,0.0,12451,22379,11766,15150,13964,1
0.0,0.0,0.0,12477,22335,11766,15135,13949,1
0.0,0.0,0.0,12477,22357,11766,15150,13964,1
0.0,0.0,0.0,12477,22357,11779,15119,14021,1
0.0,0.0,0.0,12477,22313,11754,15119,13978,1
0.0,0.0,0.0,12438,22313,11779,15104,13978,1
0.0,0.0,0.0,12451,22248,11779,15119,14021,1
0.0,0.0,0.0,12438,22335,11766,15150,14064,1
0.0,0.0,0.0,12477,22335,11766,15104,13992,1
0.0,0.0,0.0,12424,22313,11754,15119,14021,1
0.0,0.0,0.0,12477,22357,11754,15119,13992,1
0.0,0.0,0.0,12424,22313,11779,15104,14021,1
0.0,0.0,0.0,12424,22335,11766,15119,14036,1
0.0,0.0,0.0,12424,22313,11792,15089,14021,1
0.0,0.0,0.0,12438,22313,11779,15104,14036,1
0.0,0.0,0.0,12424,22357,11779,15089,14050,1
0.0,0.0,0.0,12424,22313,11804,15119,14036,1
0.0,0.0,0.0,12424,22357,11779,15104,14050,1
0.0,0.0,0.0,12424,22313,11779,15089,14036,1
0.0,0.0,0.0,12398,22313,11804,15089,14050,1
0.0,0.0,0.0,12424,22313,11792,15089,14064,1
0.0,0.0,0.0,12438,22313,11804,15089,14036,1
0.0,0.0,0.0,12424,22313,11804,15089,14050,1
0.0,0.0,0.0,12398,22270,11804,15089,14079,1
0.0,0.0,0.0,12411,22292,11804,15104,14050,1
0.0,0.0,0.0,12424,22335,11779,15089,14079,1
0.0,0.0,0.0,12424,22335,11792,15150,14079,1
0.0,0.0,0.0,12451,22313,11804,15058,14108,1
0.0,0.0,0.0,12424,22357,11779,15089,14093,1
0.0,0.0,0.0,12424,22270,11779,15089,14108,1
0.0,0.0,0.0,12438,22270,11804,15089,14050,1
0.0,0.0,0.0,12424,22292,11779,15089,14108,1
0.0,0.0,0.0,12424,22313,11804,15028,14108,1
0.0,0.0,0.0,12424,22292,11779,15089,14108,1
0.0,0.0,0.0,12424,22313,11804,15089,14108,1
0.0,0.0,0.0,12424,22313,11779,15089,14108,1
0.0,0.0,0.0,12424,22248,11804,15089,14137,1
0.0,0.0,0.0,12424,22313,11804,15058,14108,1
0.0,0.0,0.0,12424,22313,11779,15074,14108,1
0.0,0.0,0.0,12464,22270,11779,15058,14108,1
0.0,0.0,0.0,12424,22270,11766,15058,14108,1
0.0,0.0,0.0,12424,22270,11779,15089,14108,1
0.0,0.0,0.0,12424,22292,11779,15089,14137,1
0.0,0.0,0.0,12398,22270,11779,15104,14151,1
0.0,0.0,0.0,12424,22313,11779,15089,14166,1
0.0,0.0,0.0,12424,22313,11804,15089,14195,1
0.0,0.0,0.0,12438,22313,11804,15089,14151,1
0.0,0.0,0.0,12424,22313,11804,15089,14195,1
0.0,0.0,0.0,12424,22292,11804,15089,14209,1
0.0,0.0,0.0,12424,22292,11804,15119,14253,1
0.0,0.0,0.0,12424,22270,11804,15119,14268,1
0.0,0.0,0.0,12451,22270,11830,15089,14253,1
0.0,0.0,0.0,12424,22270,11804,15104,14224,1
0.0,0.0,0.0,12438,22313,11817,15104,14253,1
0.0,0.0,0.0,12438,22313,11855,15104,14253,1
0.0,0.0,0.0,12398,22313,11830,15104,14253,1
0.0,0.0,0.0,12438,22313,11817,15119,14268,1
0.0,0.0,0.0,12424,22335,11804,15119,14297,1
0.0,0.0,0.0,12424,22313,11804,15089,14253,1
0.0,0.0,0.0,12372,22292,11804,15104,14326,1
0.0,0.0,0.0,12398,22335,11817,15089,14311,1
0.0,0.0,0.0,12372,22313,11804,15089,14282,1
0.0,0.0,0.0,12398,22248,11817,15104,14311,1
0.0,0.0,0.0,12385,22226,11817,15089,14311,1
0.0,0.0,0.0,12424,22226,11804,15089,14326,1
0.0,0.0,0.0,12398,22270,11817,15089,14326,1
0.0,0.0,0.0,12398,22313,11817,15089,14326,1
0.0,0.0,0.0,12385,22226,11817,15089,14311,1
0.0,0.0,0.0,12398,22313,11817,15089,14311,1
0.0,0.0,0.0,12398,22270,11817,15104,14370,1
0.0,0.0,0.0,12398,22270,11817,15058,14311,1
0.0,0.0,0.0,12398,22292,11817,15058,14326,1
0.0,0.0,0.0,12372,22248,11804,15089,14341,1
0.0,0.0,0.0,12372,22248,11804,15089,14326,1
0.0,0.0,0.0,12372,22248,11855,15089,14370,1
0.0,0.0,0.0,12385,22270,11830,15104,14370,1
0.0,0.0,0.0,12372,22248,11804,15089,14341,1
0.0,0.0,0.0,12398,22226,11817,15089,14341,1
0.0,0.0,0.0,12424,22248,11804,15089,14341,1
0.0,0.0,0.0,12372,22226,11830,15119,14326,1
0.0,0.0,0.0,12424,22270,11817,15104,14341,1
0.0,0.0,0.0,12424,22248,11830,15089,14341,1
0.0,0.0,0.0,12438,22226,11817,15089,14355,1
0.0,0.0,0.0,12424,22226,11842,15089,14311,1
0.0,0.0,0.0,12424,22226,11830,15089,14326,1
0.0,0.0,0.0,12385,22226,11855,15089,14341,1
0.0,0.0,0.0,12398,22226,11830,15104,14326,1
0.0,0.0,0.0,12385,22226,11817,15089,14355,1
0.0,0.0,0.0,12385,22183,11830,15089,14326,1
0.0,0.0,0.0,12411,22226,11830,15089,14341,1
0.0,0.0,0.0,12372,22226,11855,15089,14326,1
0.0,0.0,0.0,12398,22270,11830,15089,14370,1
0.0,0.0,0.0,12411,22205,11817,15089,14297,1
0.0,0.0,0.0,12424,22205,11817,15089,14355,1
0.0,0.0,0.0,12372,22205,11830,15104,14326,1
0.0,0.0,0.0,12398,22205,11855,15089,14311,1
0.0,0.0,0.0,12372,22226,11855,15089,14370,1
0.0,0.0,0.0,12398,22226,11830,15089,14326,1
0.0,0.0,0.0,12398,22183,11830,15074,14311,1
0.0,0.0,0.0,12411,22226,11804,15089,14341,1
0.0,0.0,0.0,12385,22183,11855,15089,14341,1
0.0,0.0,0.0,12372,22226,11830,15089,14370,1
0.0,0.0,0.0,12372,22183,11842,15089,14341,1
0.0,0.0,0.0,12411,22226,11855,15119,14370,1
0.0,0.0,0.0,12398,22183,11817,15089,14370,1
0.0,0.0,0.0,12372,22183,11817,15119,14370,1
0.0,0.0,0.0,12372,22226,11830,15089,14370,1
0.0,0.0,0.0,12372,22226,11855,15089,14385,1
0.0,0.0,0.0,12385,22183,11855,15089,14370,1
0.0,0.0,0.0,12372,22226,11855,15089,14370,1
0.0,0.0,0.0,12398,22183,11817,15089,14399,1
0.0,0.0,0.0,12372,22183,11868,15089,14370,1
0.0,0.0,0.0,12398,22161,11842,15089,14385,1
0.0,0.0,0.0,12385,22183,11855,15089,14370,1
0.0,0.0,0.0,12385,22226,11855,15089,14414,1
0.0,0.0,0.0,12398,22205,11855,15058,14385,1
0.0,0.0,0.0,12385,22205,11868,15074,14429,1
0.0,0.0,0.0,12372,22183,11868,15089,14399,1
0.0,0.0,0.0,12398,22183,11868,15058,14414,1
0.0,0.0,0.0,12385,22183,11881,15058,14399,1
0.0,0.0,0.0,12385,22226,11868,15058,14370,1
0.0,0.0,0.0,12372,22226,11855,15058,14370,1
0.0,0.0,0.0,12385,22226,11855,15074,14399,1
0.0,0.0,0.0,12372,22183,11855,15074,14429,1
0.0,0.0,0.0,12385,22161,11855,15074,14429,1
0.0,0.0,0.0,12411,22183,11855,15089,14385,1
0.0,0.0,0.0,12372,22226,11855,15089,14399,1
0.0,0.0,0.0,12398,22183,11868,15089,14429,1
0.0,0.0,0.0,12398,22226,11881,15058,14429,1
0.0,0.0,0.0,12385,22226,11868,15058,14444,1
0.0,0.0,0.0,12385,22183,11881,15089,14444,1
0.0,0.0,0.0,12372,22161,11868,15089,14473,1
0.0,0.0,0.0,12424,22205,11868,15028,14444,1
0.0,0.0,0.0,12398,22183,11881,15058,14488,1
0.0,0.0,0.0,12398,22226,11881,15089,14429,1
0.0,0.0,0.0,12424,22226,11881,15058,14473,1
0.0,0.0,0.0,12411,22270,11868,15058,14473,1
0.0,0.0,0.0,12385,22183,11868,15089,14488,1
0.0,0.0,0.0,12398,22183,11868,15074,14547,1
0.0,0.0,0.0,12398,22183,11906,15058,14547,1
0.0,0.0,0.0,12372,22161,11893,15089,14547,1
0.0,0.0,0.0,12372,22270,11881,15089,14547,1
0.0,0.0,0.0,12372,22226,11881,15104,14577,1
0.0,0.0,0.0,12372,22226,11906,15089,14592,1
0.0,0.0,0.0,12372,22248,11881,15119,14607,1
0.0,0.0,0.0,12372,22205,11906,15104,14651,1
0.0,0.0,0.0,12385,22248,11881,15089,14636,1
0.0,0.0,0.0,12372,22226,11906,15089,14666,1
0.0,0.0,0.0,12372,22226,11906,15089,14636,1
0.0,0.0,0.0,12372,22226,11906,15119,14651,1
0.0,0.0,0.0,12346,22248,11906,15119,14666,1
0.0,0.0,0.0,12372,22226,11893,15089,14666,1
0.0,0.0,0.0,12346,22226,11906,15089,14666,1
0.0,0.0,0.0,12372,22226,11881,15089,14696,1
0.0,0.0,0.0,12346,22226,11919,15089,14726,1
0.0,0.0,0.0,12346,22248,11932,15089,14726,1
0.0,0.0,0.0,12346,22226,11906,15089,14741,1
0.0,0.0,0.0,12346,22226,11919,15104,14741,1
0.0,0.0,0.0,12346,22226,11919,15104,14756,1
0.0,0.0,0.0,12372,22248,11906,15089,14786,1
0.0,0.0,0.0,12346,22248,11932,15119,14786,1
0.0,0.0,0.0,12346,22226,11893,15104,14786,1
0.0,0.0,0.0,12346,22248,11906,15089,14801,1
0.0,0.0,0.0,12346,22226,11906,15119,14786,1
0.0,0.0,0.0,12346,22205,11906,15104,14846,1
0.0,0.0,0.0,12320,22270,11932,15119,14861,1
0.0,0.0,0.0,12346,22270,11919,15119,14846,1
0.0,0.0,0.0,12346,22226,11919,15150,14891,1
0.0,0.0,0.0,12372,22248,11932,15089,14846,1
0.0,0.0,0.0,12346,22226,11919,15104,14922,1
0.0,0.0,0.0,12346,22270,11919,15089,14907,1
0.0,0.0,0.0,12320,22226,11906,15104,14907,1
0.0,0.0,0.0,12346,22270,11957,15119,14907,1
0.0,0.0,0.0,12346,22226,11932,15119,14891,1
0.0,0.0,0.0,12346,22270,11944,15104,14907,1
0.0,0.0,0.0,12346,22248,11919,15104,14907,1
0.0,0.0,0.0,12346,22226,11919,15104,14907,1
0.0,0.0,0.0,12346,22226,11932,15119,14937,1
0.0,0.0,0.0,12359,22270,11932,15119,14922,1
0.0,0.0,0.0,12346,22226,11932,15089,14967,1
0.0,0.0,0.0,12346,22226,11932,15074,14922,1
0.0,0.0,0.0,12346,22226,11932,15119,14967,1
0.0,0.0,0.0,12372,22226,11932,15089,14937,1
0.0,0.0,0.0,12372,22226,11932,15104,14967,1
0.0,0.0,0.0,12320,22226,11932,15089,14937,1
0.0,0.0,0.0,12359,22226,11932,15119,14967,1
0.0,0.0,0.0,12346,22248,11932,15089,14982,1
0.0,0.0,0.0,12372,22161,11957,15119,15013,1
0.0,0.0,0.0,12346,22226,11944,15104,14937,1
0.0,0.0,0.0,12359,22226,11906,15089,14997,1
0.0,0.0,0.0,12346,22248,11932,15058,14982,1
0.0,0.0,0.0,12346,22226,11957,15089,14982,1
0.0,0.0,0.0,12346,22183,11932,15089,14967,1
0.0,0.0,0.0,12359,22226,11957,15119,14982,1
0.0,0.0,0.0,12346,22270,11932,15089,14967,1
0.0,0.0,0.0,12346,22226,11919,15058,14997,1
0.0,0.0,0.0,12385,22226,11919,15089,14982,1
0.0,0.0,0.0,12359,22226,11957,15089,15043,1
0.0,0.0,0.0,12359,22226,11932,15104,14982,1
0.0,0.0,0.0,12346,22226,11932,15104,14967,1
0.0,0.0,0.0,12346,22270,11957,15104,15028,1
0.0,0.0,0.0,12346,22205,11932,15089,15043,1
0.0,0.0,0.0,12372,22248,11932,15089,14997,1
0.0,0.0,0.0,12372,22270,11919,15089,15028,1
0.0,0.0,0.0,12346,22248,11932,15119,15028,1
0.0,0.0,0.0,12372,22183,11932,15104,14997,1
0.0,0.0,0.0,12372,22226,11919,15104,15043,1
0.0,0.0,0.0,12372,22226,11957,15119,15028,1
0.0,0.0,0.0,12359,22226,11944,15089,14982,1
0.0,0.0,0.0,12372,22248,11957,15089,15028,1
0.0,0.0,0.0,12372,22183,11957,15119,15028,1
0.0,0.0,0.0,12346,22161,11957,15119,15013,1
0.0,0.0,0.0,12372,22248,11919,15089,14997,1
0.0,0.0,0.0,12372,22183,11957,15089,14997,1
0.0,0.0,0.0,12372,22183,11957,15104,14982,1
0.0,0.0,0.0,12359,22205,11957,15119,15028,1
0.0,0.0,0.0,12372,22226,11957,15104,15028,1
0.0,0.0,0.0,12372,22292,11957,15104,15028,1
0.0,0.0,0.0,12398,22226,11957,15089,15028,1
0.0,0.0,0.0,12346,22226,11957,15089,14982,1
0.0,0.0,0.0,12372,22161,11944,15089,15028,1
0.0,0.0,0.0,12372,22161,11957,15104,15013,1
0.0,0.0,0.0,12372,22226,11944,15089,15058,1
0.0,0.0,0.0,12359,22183,11932,15089,14997,1
0.0,0.0,0.0,12372,22205,11957,15104,15028,1
0.0,0.0,0.0,12359,22226,11970,15089,15028,1
0.0,0.0,0.0,12359,22205,11970,15089,15028,1
0.0,0.0,0.0,12385,22205,11932,15089,15013,1
0.0,0.0,0.0,12385,22226,11957,15089,15058,1
0.0,0.0,0.0,12385,22183,11932,15089,14982,1
0.0,0.0,0.0,12372,22226,11957,15089,15028,1
0.0,0.0,0.0,12372,22183,11957,15089,14997,1
0.0,0.0,0.0,12372,22183,11970,15104,15028,1
0.0,0.0,0.0,12398,22183,11957,15089,14967,1
0.0,0.0,0.0,12372,22226,11957,15119,14982,1
0.0,0.0,0.0,12372,22183,11970,15104,14982,1
0.0,0.0,0.0,12385,22205,11957,15089,15028,1
0.0,0.0,0.0,12385,22183,11944,15089,15028,1
0.0,0.0,0.0,12372,22183,11957,15089,14997,1
0.0,0.0,0.0,12372,22161,11932,15119,14982,1
0.0,0.0,0.0,12372,22205,11957,15089,14997,1
0.0,0.0,0.0,12385,22183,11957,15089,15028,1
0.0,0.0,0.0,12372,22183,11932,15089,15043,1
0.0,0.0,0.0,12424,22205,11932,15089,14982,1
0.0,0.0,0.0,12490,22357,11957,15089,14997,1
0.0,0.0,0.0,12530,22357,12009,15119,14967,1
0.0,0.0,0.0,12490,22357,11983,15119,15028,1
0.0,0.0,0.0,12477,22335,12009,15119,15013,1
0.0,0.0,0.0,12477,22270,12034,15089,14937,1
0.0,0.0,0.0,12398,22140,12060,15089,14967,1
0.0,0.0,0.0,12346,22140,12086,15104,14967,1
0.0,0.0,0.0,12372,22053,12060,15089,14937,1
0.0,0.0,0.0,12372,22096,12060,15104,14967,1
0.0,0.0,0.0,12372,22053,12034,15104,14967,1
0.0,0.0,0.0,12385,22075,12021,15089,14907,1
0.0,0.0,0.0,12530,22032,11983,14967,14846,1
0.0,0.0,0.0,12676,22053,11716,14385,14756,1
0.0,0.0,0.0,12610,22075,11503,14021,14547,1
0.0,0.0,0.0,12596,22096,11366,13906,14458,1
0.0,0.0,0.0,12583,22053,11255,13608,14399,1
0.0,0.0,0.0,12636,21967,10987,12743,14108,1
0.0,0.0,0.0,12716,21882,10748,11804,13566,1
0.0,0.0,0.0,12663,21796,10582,11453,13246,1
0.0,0.0,0.0,12583,21754,10511,11366,13068,1
0.0,0.0,0.0,12543,21733,10488,11280,13013,1
0.0,0.0,0.0,12504,21711,10418,11219,12905,1
0.0,0.0,0.0,12504,21648,10371,11182,12797,1
0.0,0.0,0.0,12530,21754,10325,11157,12676,1
0.0,0.0,0.0,12477,21796,10301,11157,12623,1
0.0,0.0,0.0,12490,21754,10267,11157,12583,1
0.0,0.0,0.0,12543,21754,10290,11109,12636,1
0.0,0.0,0.0,13013,21669,10301,11157,12596,1
0.0,0.0,0.0,13622,21584,10301,11145,12636,1
0.0,0.0,0.0,14079,21500,10313,11219,12610,1
0.0,0.0,0.0,14195,21479,10348,11255,12649,1
0.0,0.0,0.0,14166,21458,10313,11255,12663,1
0.0,0.0,0.0,14108,21416,10313,11255,12649,1
0.0,0.0,0.0,14108,21458,10325,11280,12663,1
0.0,0.0,0.0,14079,21395,10325,11280,12690,1
0.0,0.0,0.0,13921,21375,10313,11268,12690,1
0.0,0.0,0.0,13849,21312,10325,11317,12690,1
0.0,0.0,0.0,13806,21291,10348,11280,12743,1
0.0,0.0,0.0,13778,21270,10348,11379,12743,1
0.0,0.0,0.0,13764,21291,10348,11379,12743,1
0.0,0.0,0.0,13749,21312,10325,11403,12716,1
0.0,0.0,0.0,13735,21291,10221,11354,12649,1
0.0,0.0,0.0,13735,21270,10163,11304,12556,1
0.0,0.0,0.0,13735,21250,10174,11280,12543,1
0.0,0.0,0.0,13707,21229,10174,11255,12556,1
0.0,0.0,0.0,13679,21146,10186,11231,12583,1
0.0,0.0,0.0,13679,21125,10174,11231,12556,1
0.0,0.0,0.0,13679,21167,10197,11255,12556,1
0.0,0.0,0.0,13622,21167,10255,11206,12583,1
0.0,0.0,0.0,13636,21146,10313,11206,12649,1
0.0,0.0,0.0,13650,21125,10394,11206,12636,1
0.0,0.0,0.0,13622,21125,10406,11157,12649,1
0.0,0.0,0.0,13594,21125,10453,11157,12690,1
0.0,0.0,0.0,13566,21125,10511,11157,12690,1
0.0,0.0,0.0,13566,21125,10558,11121,12703,1
0.0,0.0,0.0,13566,21146,10605,11109,12690,1
0.0,0.0,0.0,13538,21146,10653,11109,12703,1
0.0,0.0,0.0,13468,21084,10629,11109,12756,1
0.0,0.0,0.0,13454,21146,10629,11072,12743,1
0.0,0.0,0.0,13412,21125,10594,11084,12770,1
0.0,0.0,0.0,13412,21125,10546,11109,12797,1
0.0,0.0,0.0,13440,21064,10546,11109,12824,1
0.0,0.0,0.0,13454,21125,10546,11096,12810,1
0.0,0.0,0.0,13426,21125,10594,11109,12824,1
0.0,0.0,0.0,13412,21084,10676,11109,12864,1
0.0,0.0,0.0,13398,21084,10724,11084,12864,1
0.0,0.0,0.0,13412,21043,10771,11084,12864,1
0.0,0.0,0.0,13412,21002,10771,11109,12878,1
0.0,0.0,0.0,13398,21105,10771,11109,12905,1
0.0,0.0,0.0,13412,21064,10795,11109,12905,1
0.0,0.0,0.0,13412,21064,10771,11109,12851,1
0.0,0.0,0.0,13454,21064,10819,11109,12851,1
0.0,0.0,0.0,13412,21043,10771,11109,12891,1
0.0,0.0,0.0,13412,21043,10771,11072,12878,1
0.0,0.0,0.0,13412,21043,10771,11109,12864,1
0.0,0.0,0.0,13412,21002,10783,11109,12905,1
0.0,0.0,0.0,13440,21043,10819,11109,12851,1
0.0,0.0,0.0,13412,21043,10831,11109,12824,1
0.0,0.0,0.0,13398,20961,10819,11109,12824,1
0.0,0.0,0.0,13398,21043,10819,11109,12851,1
0.0,0.0,0.0,13384,21043,10795,11084,12851,1
0.0,0.0,0.0,13398,21043,10748,11109,12797,1
0.0,0.0,0.0,13371,21043,10724,11072,12837,1
0.0,0.0,0.0,13371,21002,10712,11084,12824,1
0.0,0.0,0.0,13357,21043,10629,11109,12824,1
0.0,0.0,0.0,13371,21043,10629,11096,12824,1
0.0,0.0,0.0,13371,21043,10629,11072,12770,1
0.0,0.0,0.0,13371,21002,10629,11072,12851,1
0.0,0.0,0.0,13343,20981,10676,11084,12851,1
0.0,0.0,0.0,13343,20981,10724,11084,12824,1
0.0,0.0,0.0,13343,20981,10700,11096,12824,1
0.0,0.0,0.0,13343,20981,10748,11084,12824,1
0.0,0.0,0.0,13343,20981,10748,11072,12810,1
0.0,0.0,0.0,13329,20981,10748,11084,12797,1
0.0,0.0,0.0,13343,20961,10724,11072,12770,1
0.0,0.0,0.0,13343,20961,10748,11060,12743,1
0.0,0.0,0.0,13315,20920,10724,11060,12703,1
0.0,0.0,0.0,13343,21002,10700,11036,12770,1
0.0,0.0,0.0,13343,20961,10724,11060,12743,1
0.0,0.0,0.0,13343,20961,10700,11048,12743,1
0.0,0.0,0.0,13315,20899,10700,11060,12716,1
0.0,0.0,0.0,13343,20961,10700,11060,12716,1
0.0,0.0,0.0,13343,20940,10688,11036,12743,1
0.0,0.0,0.0,13343,20920,10688,11024,12716,1
0.0,0.0,0.0,13371,20961,10688,11036,12743,1
0.0,0.0,0.0,13329,20961,10676,11060,12716,1
0.0,0.0,0.0,13315,20961,10688,11060,12743,1
0.0,0.0,0.0,13301,20920,10664,11036,12716,1
0.0,0.0,0.0,13287,20961,10664,11048,12756,1
0.0,0.0,0.0,13301,20940,10629,11060,12743,1
0.0,0.0,0.0,13315,20899,10617,11060,12743,1
0.0,0.0,0.0,13287,20940,10605,11060,12743,1
0.0,0.0,0.0,13274,20920,10582,11060,12743,1
0.0,0.0,0.0,13287,20920,10582,11084,12770,1
0.0,0.0,0.0,13301,20940,10582,11072,12797,1
0.0,0.0,0.0,13343,20920,10582,11072,12783,1
0.0,0.0,0.0,13287,20981,10582,11072,12783,1
0.0,0.0,0.0,13343,20920,10582,11072,12810,1
0.0,0.0,0.0,13315,20920,10558,11084,12797,1
0.0,0.0,0.0,13287,20920,10546,11109,12783,1
0.0,0.0,0.0,13301,20961,10546,11109,12797,1
0.0,0.0,0.0,13287,20940,10558,11109,12810,1
0.0,0.0,0.0,13315,20920,10535,11109,12797,1
0.0,0.0,0.0,13287,20899,10546,11109,12851,1
0.0,0.0,0.0,13301,20920,10535,11109,12824,1
0.0,0.0,0.0,13287,20879,10546,11109,12810,1
0.0,0.0,0.0,13287,20961,10535,11109,12810,1
0.0,0.0,0.0,13315,20899,10546,11109,12797,1
0.0,0.0,0.0,13260,20879,10535,11109,12810,1
0.0,0.0,0.0,13287,20899,10535,11109,12810,1
0.0,0.0,0.0,13315,20920,10546,11109,12851,1
0.0,0.0,0.0,13287,20899,10535,11084,12851,1
0.0,0.0,0.0,13287,20879,10535,11109,12810,1
0.0,0.0,0.0,13287,20899,10499,11133,12824,1
0.0,0.0,0.0,13315,20879,10535,11133,12851,1
0.0,0.0,0.0,13287,20838,10535,11157,12824,1
0.0,0.0,0.0,13287,20899,10535,11145,12851,1
0.0,0.0,0.0,13301,20899,10535,11157,12864,1
0.0,0.0,0.0,13287,20879,10535,11170,12851,1
0.0,0.0,0.0,13287,20879,10535,11157,12824,1
0.0,0.0,0.0,13287,20920,10499,11157,12837,1
0.0,0.0,0.0,13274,20879,10535,11182,12851,1
0.0,0.0,0.0,13274,20879,10511,11170,12851,1
0.0,0.0,0.0,13274,20879,10523,11206,12905,1
0.0,0.0,0.0,13274,20879,10511,11206,12864,1
0.0,0.0,0.0,13287,20879,10511,11206,12905,1
0.0,0.0,0.0,13260,20859,10523,11219,12905,1
0.0,0.0,0.0,13246,20879,10511,11231,12864,1
0.0,0.0,0.0,13246,20879,10511,11231,12851,1
0.0,0.0,0.0,13287,20879,10499,11255,12824,1
0.0,0.0,0.0,13287,20879,10464,11243,12797,1
0.0,0.0,0.0,13274,20838,10535,11219,12770,1
0.0,0.0,0.0,13343,20879,10605,11206,12810,1
0.0,0.0,0.0,13260,20859,10594,11206,12797,1
0.0,0.0,0.0,13260,20879,10594,11182,12824,1
0.0,0.0,0.0,13260,20879,10582,11182,12797,1
0.0,0.0,0.0,13260,20899,10582,11182,12797,1
0.0,0.0,0.0,13232,20879,10582,11206,12770,1
0.0,0.0,0.0,13205,20879,10582,11170,12864,1
0.0,0.0,0.0,13068,20838,10546,11219,12918,1
0.0,0.0,0.0,12918,20838,10582,11219,12918,1
0.0,0.0,0.0,12905,20818,10582,11231,12986,1
0.0,0.0,0.0,12851,20798,10582,11219,12986,1
0.0,0.0,0.0,12851,20716,10594,11219,12986,1
0.0,0.0,0.0,12824,20696,10629,11255,13013,1
0.0,0.0,0.0,12824,20716,10617,11243,12959,1
0.0,0.0,0.0,12824,20716,10594,11219,12824,1
0.0,0.0,0.0,12810,20676,10629,11219,12824,1
0.0,0.0,0.0,12810,20656,10629,11280,12837,1
0.0,0.0,0.0,12824,20676,10629,11255,12824,1
0.0,0.0,0.0,12824,20676,10605,11206,12797,1
0.0,0.0,0.0,12824,20636,10546,11170,12716,1
0.0,0.0,0.0,12824,20656,10594,11157,12703,1
0.0,0.0,0.0,12824,20636,10605,11133,12556,1
0.0,0.0,0.0,12824,20636,10594,11157,12385,1
0.0,0.0,0.0,12851,20676,10582,11133,12320,1
0.0,0.0,0.0,12851,20636,10582,11084,12280,1
0.0,0.0,0.0,12837,20636,10605,11084,12293,1
0.0,0.0,0.0,12824,20656,10535,11060,12280,1
0.0,0.0,0.0,12837,20636,10453,11024,12267,1
0.0,0.0,0.0,12797,20656,10441,10987,12215,1
0.0,0.0,0.0,12797,20737,10453,10975,12424,1
0.0,0.0,0.0,12716,20777,10441,10987,12636,1
0.0,0.0,0.0,12703,20818,10464,11072,13468,1
0.0,0.0,0.0,12676,20777,10464,11157,13580,1
0.0,0.0,0.0,12649,20716,10488,11219,13454,1
0.0,0.0,0.0,12583,20676,10700,11416,13510,1
0.0,0.0,0.0,12530,20636,10867,11804,13735,1
0.0,0.0,0.0,12451,20656,11109,12959,14195,1
0.0,0.0,0.0,12424,20716,11453,14326,14311,1
0.0,0.0,0.0,12398,20757,11754,16303,14937,1
0.0,0.0,0.0,12385,20716,12009,17933,15647,1
0.0,0.0,0.0,12372,20737,12073,18746,15932,1
0.0,0.0,0.0,12346,20656,12124,19708,16352,1
0.0,0.0,0.0,12320,20636,12112,20157,16765,1
0.0,0.0,0.0,12320,20636,12124,20157,16932,1
0.0,0.0,0.0,12346,20575,12112,19999,16815,1
0.0,0.0,0.0,12293,20636,12073,19458,16665,1
0.0,0.0,0.0,12306,20575,12112,18987,16565,1
0.0,0.0,0.0,12293,20636,12073,18727,16516,1
0.0,0.0,0.0,12320,20595,12086,18654,16434,1
0.0,0.0,0.0,12293,20595,12137,18635,16385,1
0.0,0.0,0.0,12293,20595,12163,18562,16417,1
0.0,0.0,0.0,12293,20555,12137,18417,16368,1
0.0,0.0,0.0,12267,20595,12189,18308,16368,1
0.0,0.0,0.0,12320,20595,12241,18200,16368,1
0.0,0.0,0.0,12372,20798,12241,17951,16319,1
0.0,0.0,0.0,12477,20879,12372,17845,16254,1
0.0,0.0,0.0,12583,21125,12543,17809,16125,1
0.0,0.0,0.0,12583,21584,12824,17845,16028,1
0.0,0.0,0.0,12610,21839,12878,17915,15900,1
0.0,0.0,0.0,12583,21796,12851,17862,15837,1
0.0,0.0,0.0,12583,21711,12810,17845,15789,1
0.0,0.0,0.0,12570,21711,12770,17809,15694,1
0.0,0.0,0.0,12570,21669,12663,17845,15615,1
0.0,0.0,0.0,12743,21669,12543,17652,15521,1
0.0,0.0,0.0,12797,21796,12504,17565,15459,1
0.0,0.0,0.0,12716,21796,12372,17495,15397,1
0.0,0.0,0.0,12663,21733,12346,17443,15412,1
0.0,0.0,0.0,12636,21648,12215,17220,15397,1
0.0,0.0,0.0,12583,21711,12086,16966,15304,1
0.0,0.0,0.0,12556,21648,12073,16949,15304,1
0.0,0.0,0.0,12530,21627,12034,16865,15227,1
0.0,0.0,0.0,12477,21606,11932,16417,15211,1
0.0,0.0,0.0,12477,21584,11754,15710,15074,1
0.0,0.0,0.0,12477,21563,11603,14967,14861,1
0.0,0.0,0.0,12451,21458,11528,14607,14876,1
0.0,0.0,0.0,12464,21458,11503,14607,14846,1
0.0,0.0,0.0,12424,21416,11478,14429,14816,1
0.0,0.0,0.0,12438,21375,11453,14151,14846,1
0.0,0.0,0.0,12438,21458,11428,13935,14771,1
0.0,0.0,0.0,12438,21395,11428,14021,14666,1
0.0,0.0,0.0,12451,21395,11403,14064,14636,1
0.0,0.0,0.0,12451,21333,11403,14021,14636,1
0.0,0.0,0.0,12451,21375,11416,14021,14666,1
0.0,0.0,0.0,12438,21312,11403,14253,14846,1
0.0,0.0,0.0,12424,21375,11416,14224,14846,1
0.0,0.0,0.0,12424,21333,11416,14268,14801,1
0.0,0.0,0.0,12438,21333,11403,14253,14846,1
0.0,0.0,0.0,12424,21375,11416,14253,14861,1
0.0,0.0,0.0,12424,21291,11403,14253,14846,1
0.0,0.0,0.0,12424,21291,11391,14253,14861,1
0.0,0.0,0.0,12424,21312,11416,14253,14997,1
0.0,0.0,0.0,12424,21375,11465,14253,15150,1
0.0,0.0,0.0,12424,21291,11478,14253,15165,1
0.0,0.0,0.0,12398,21312,11553,14268,15196,1
0.0,0.0,0.0,12424,21291,11578,14224,15227,1
0.0,0.0,0.0,12398,21291,11603,14166,15227,1
0.0,0.0,0.0,12398,21270,11628,14166,15227,1
0.0,0.0,0.0,12424,21312,11615,14166,15227,1
0.0,0.0,0.0,12424,21291,11603,14195,15227,1
0.0,0.0,0.0,12398,21291,11628,14137,15273,1
0.0,0.0,0.0,12372,21291,11628,14108,15227,1
0.0,0.0,0.0,12398,21291,11615,14108,15242,1
0.0,0.0,0.0,12372,21312,11603,14108,15211,1
0.0,0.0,0.0,12398,21291,11578,14137,15211,1
0.0,0.0,0.0,12398,21291,11565,14108,15181,1
0.0,0.0,0.0,12385,21250,11553,14079,15181,1
0.0,0.0,0.0,12398,21291,11553,14079,15150,1
0.0,0.0,0.0,12372,21250,11565,14108,15150,1
0.0,0.0,0.0,12372,21270,11553,14108,15104,1
0.0,0.0,0.0,12398,21229,11565,14137,15119,1
0.0,0.0,0.0,12372,21250,11553,14108,15119,1
0.0,0.0,0.0,12398,21229,11565,14108,15089,1
0.0,0.0,0.0,12398,21208,11553,14108,15150,1
0.0,0.0,0.0,12398,21291,11553,14108,15104,1
0.0,0.0,0.0,12398,21250,11553,14079,15089,1
0.0,0.0,0.0,12372,21229,11565,14079,15119,1
0.0,0.0,0.0,12385,21270,11553,14079,15104,1
0.0,0.0,0.0,12372,21250,11540,14079,15089,1
0.0,0.0,0.0,12372,21208,11503,14050,14997,1
0.0,0.0,0.0,12372,21229,11528,14050,14982,1
0.0,0.0,0.0,12359,21229,11528,14021,15013,1
0.0,0.0,0.0,12359,21250,11503,14021,15028,1
0.0,0.0,0.0,12359,21250,11528,14021,14967,1
0.0,0.0,0.0,12372,21291,11503,14036,15028,1
0.0,0.0,0.0,12385,21270,11490,13992,14982,1
0.0,0.0,0.0,12385,21250,11515,13992,14997,1
0.0,0.0,0.0,12372,21250,11515,13992,14997,1
0.0,0.0,0.0,12385,21208,11528,14021,14982,1
0.0,0.0,0.0,12372,21208,11503,14021,14997,1
0.0,0.0,0.0,12372,21270,11503,14021,14997,1
0.0,0.0,0.0,12372,21208,11503,13992,15013,1
0.0,0.0,0.0,12385,21229,11515,14021,14997,1
0.0,0.0,0.0,12385,21229,11503,13992,14967,1
0.0,0.0,0.0,12372,21146,11515,14021,14997,1
0.0,0.0,0.0,12372,21208,11503,14021,14967,1
0.0,0.0,0.0,12385,21208,11515,14021,14982,1
0.0,0.0,0.0,12372,21208,11503,14021,14967,1
0.0,0.0,0.0,12385,21167,11503,14007,14997,1
0.0,0.0,0.0,12372,21208,11515,14021,14967,1
0.0,0.0,0.0,12372,21208,11515,14021,14982,1
0.0,0.0,0.0,12398,21229,11515,13978,14982,1
0.0,0.0,0.0,12398,21208,11528,14021,14967,1
0.0,0.0,0.0,12372,21208,11528,14021,14982,1
0.0,0.0,0.0,12424,21208,11528,14021,14982,1
0.0,0.0,0.0,12398,21250,11528,14021,14997,1
0.0,0.0,0.0,12398,21208,11528,14021,14967,1
0.0,0.0,0.0,12385,21208,11553,14021,14997,1
0.0,0.0,0.0,12385,21229,11540,14036,14982,1
0.0,0.0,0.0,12385,21208,11528,14036,14982,1
0.0,0.0,0.0,12385,21208,11528,14021,14967,1
0.0,0.0,0.0,12372,21208,11553,14021,14967,1
0.0,0.0,0.0,12372,21167,11528,14036,14952,1
0.0,0.0,0.0,12372,21167,11540,14007,14937,1
0.0,0.0,0.0,12372,21208,11528,14021,14967,1
0.0,0.0,0.0,12372,21167,11528,13964,14937,1
0.0,0.0,0.0,12424,21208,11515,13978,14922,1
0.0,0.0,0.0,12385,21208,11515,13992,14937,1
0.0,0.0,0.0,12385,21208,11528,13992,14922,1
0.0,0.0,0.0,12385,21146,11528,13978,14922,1
0.0,0.0,0.0,12398,21229,11528,13964,14907,1
0.0,0.0,0.0,12372,21208,11528,13964,14967,1
0.0,0.0,0.0,12372,21167,11540,13992,14937,1
0.0,0.0,0.0,12372,21208,11528,13964,14922,1
0.0,0.0,0.0,12385,21167,11503,13964,14907,1
0.0,0.0,0.0,12372,21208,11515,13978,14922,1
0.0,0.0,0.0,12372,21146,11553,13978,14937,1
0.0,0.0,0.0,12385,21208,11540,13978,14967,1
0.0,0.0,0.0,12372,21187,11515,13964,14907,1
0.0,0.0,0.0,12372,21146,11553,13978,14907,1
0.0,0.0,0.0,12372,21167,11553,14021,14982,1
0.0,0.0,0.0,12372,21146,11540,14021,14922,1
0.0,0.0,0.0,12346,21167,11528,13992,14922,1
0.0,0.0,0.0,12372,21146,11553,14021,14907,1
0.0,0.0,0.0,12372,21084,11553,13964,14922,1
0.0,0.0,0.0,12346,21125,11553,13964,14967,1
0.0,0.0,0.0,12385,21146,11528,13978,14937,1
0.0,0.0,0.0,12372,21125,11515,13964,14937,1
0.0,0.0,0.0,12372,21146,11553,13964,14922,1
0.0,0.0,0.0,12372,21167,11553,13964,14907,1
0.0,0.0,0.0,12359,21146,11565,13964,14937,1
0.0,0.0,0.0,12372,21125,11553,13964,14922,1
0.0,0.0,0.0,12346,21125,11565,13964,14907,1
0.0,0.0,0.0,12372,21125,11553,13964,14907,1
0.0,0.0,0.0,12346,21125,11553,13978,14967,1
0.0,0.0,0.0,12346,21105,11553,13964,14907,1
0.0,0.0,0.0,12346,21125,11565,13921,14937,1
0.0,0.0,0.0,12359,21125,11478,13693,14967,1
0.0,0.0,0.0,12372,21125,11304,13482,14846,1
0.0,0.0,0.0,12372,21125,11157,13412,14786,1
0.0,0.0,0.0,12346,21105,11109,13412,14786,1
0.0,0.0,0.0,12320,21043,11121,13412,14816,1
0.0,0.0,0.0,12346,21043,11109,13412,14786,1
0.0,0.0,0.0,12293,21043,11084,13315,14846,1
0.0,0.0,0.0,12306,21043,10879,12610,14592,1
0.0,0.0,0.0,12346,21002,10582,11779,13510,1
0.0,0.0,0.0,12346,20940,10441,11503,13027,1
0.0,0.0,0.0,12333,20920,10464,11403,12905,1
0.0,0.0,0.0,12320,20676,10488,11329,12959,1
0.0,0.0,0.0,12320,20575,10441,11354,12959,1
0.0,0.0,0.0,12280,20615,10418,11329,12959,1
0.0,0.0,0.0,12306,20575,10371,11354,12932,1
0.0,0.0,0.0,12280,20615,10383,11366,12932,1
0.0,0.0,0.0,12293,20555,10325,11354,12851,1
0.0,0.0,0.0,12346,20495,10301,11354,12824,1
0.0,0.0,0.0,12424,20475,10267,11304,12797,1
0.0,0.0,0.0,12398,20435,10255,11280,12797,1
0.0,0.0,0.0,12385,20435,10301,11317,12810,1
0.0,0.0,0.0,12398,20395,10325,11354,12797,1
0.0,0.0,0.0,12477,20395,10348,11391,12851,1
0.0,0.0,0.0,12663,20256,10476,11553,12864,1
0.0,0.0,0.0,12716,20275,10535,11754,12864,1
0.0,0.0,0.0,12716,20236,10546,11766,12905,1
0.0,0.0,0.0,12797,20236,10535,11792,12864,1
0.0,0.0,0.0,12918,20275,10546,11804,12864,1
0.0,0.0,0.0,13068,20315,10535,11804,12905,1
0.0,0.0,0.0,13027,20236,10535,11817,12878,1
0.0,0.0,0.0,13040,20335,10488,11703,12797,1
0.0,0.0,0.0,13068,20415,10418,11553,12690,1
0.0,0.0,0.0,13040,20335,10418,11515,12690,1
0.0,0.0,0.0,13013,20315,10406,11515,12690,1
0.0,0.0,0.0,13013,20335,10406,11503,12690,1
0.0,0.0,0.0,12972,20395,10383,11503,12663,1
0.0,0.0,0.0,12972,20355,10418,11515,12690,1
0.0,0.0,0.0,12959,20375,10441,11453,12636,1
0.0,0.0,0.0,12972,20395,10499,11403,12610,1
0.0,0.0,0.0,12959,20335,10488,11403,12583,1
0.0,0.0,0.0,12945,20315,10453,11354,12477,1
0.0,0.0,0.0,12959,20315,10441,11329,12424,1
0.0,0.0,0.0,12932,20315,10441,11304,12398,1
0.0,0.0,0.0,12905,20315,10418,11304,12398,1
0.0,0.0,0.0,12878,20256,10348,11255,12385,1
0.0,0.0,0.0,12864,20176,10278,11206,12424,1
0.0,0.0,0.0,12864,20236,10371,11182,12398,1
0.0,0.0,0.0,12851,20176,10511,11157,12359,1
0.0,0.0,0.0,12851,20157,10582,11133,12398,1
0.0,0.0,0.0,12797,20157,10605,11133,12372,1
0.0,0.0,0.0,12797,20117,10535,11157,12346,1
0.0,0.0,0.0,12756,20098,10325,11133,12293,1
0.0,0.0,0.0,12743,20117,10140,11109,12241,1
0.0,0.0,0.0,12743,20078,10026,11109,12215,1
0.0,0.0,0.0,12703,19999,9935,11060,12241,1
0.0,0.0,0.0,12703,19999,9845,11024,12241,1
0.0,0.0,0.0,12690,19882,9811,10987,12424,1
0.0,0.0,0.0,12636,19766,9845,10963,12583,1
0.0,0.0,0.0,12636,19631,9890,10963,12663,1
0.0,0.0,0.0,12636,19554,9912,10963,12690,1
0.0,0.0,0.0,12556,19458,9890,10963,12663,1
0.0,0.0,0.0,12583,19363,9867,10939,12596,1
0.0,0.0,0.0,12556,19344,9845,10963,12583,1
0.0,0.0,0.0,12530,19344,9800,10975,12530,1
0.0,0.0,0.0,12530,19306,9800,10951,12530,1
0.0,0.0,0.0,12530,19306,9755,10927,12477,1
0.0,0.0,0.0,12543,19231,9688,10927,12424,1
0.0,0.0,0.0,12543,19306,9666,10915,12424,1
0.0,0.0,0.0,12530,19458,9643,10891,12346,1
0.0,0.0,0.0,12543,19382,9632,10891,12372,1
0.0,0.0,0.0,12530,19382,9632,10891,12346,1
0.0,0.0,0.0,12517,19382,9632,10891,12333,1
0.0,0.0,0.0,12543,19363,9643,10903,12293,1
0.0,0.0,0.0,12530,19344,9621,10891,12320,1
0.0,0.0,0.0,12530,19458,9621,10879,12280,1
0.0,0.0,0.0,12530,19535,9621,10879,12267,1
0.0,0.0,0.0,12530,19612,9632,10891,12267,1
0.0,0.0,0.0,12543,19612,9621,10891,12280,1
0.0,0.0,0.0,12530,19612,9621,10879,12267,1
0.0,0.0,0.0,12530,19689,9621,10867,12241,1
0.0,0.0,0.0,12570,19766,9610,10879,12241,1
0.0,0.0,0.0,12583,19727,9588,10879,12215,1
0.0,0.0,0.0,12596,19727,9621,10879,12215,1
0.0,0.0,0.0,12610,19785,9621,10867,12189,1
0.0,0.0,0.0,12610,19766,9599,10891,12176,1
0.0,0.0,0.0,12583,19766,9588,10879,12176,1
0.0,0.0,0.0,12596,19785,9599,10879,12163,1
0.0,0.0,0.0,12583,19727,9610,10867,12163,1
0.0,0.0,0.0,12583,19766,9621,10867,12189,1
0.0,0.0,0.0,12610,19746,9599,10867,12202,1
0.0,0.0,0.0,12583,19746,9599,10867,12163,1
0.0,0.0,0.0,12583,19766,9621,10867,12202,1
0.0,0.0,0.0,12583,19746,9621,10891,12189,1
0.0,0.0,0.0,12583,19727,9621,10855,12163,1
0.0,0.0,0.0,12583,19727,9599,10867,12176,1
0.0,0.0,0.0,12610,19766,9621,10867,12163,1
0.0,0.0,0.0,12583,19708,9621,10867,12176,1
0.0,0.0,0.0,12556,19766,9599,10867,12163,1
0.0,0.0,0.0,12583,19766,9621,10867,12150,1
0.0,0.0,0.0,12583,19727,9621,10867,12163,1
0.0,0.0,0.0,12583,19727,9621,10867,12163,1
0.0,0.0,0.0,12583,19708,9621,10867,12189,1
0.0,0.0,0.0,12583,19766,9599,10867,12176,1
0.0,0.0,0.0,12583,19727,9610,10867,12163,1
0.0,0.0,0.0,12583,19727,9621,10879,12176,1
0.0,0.0,0.0,12583,19766,9610,10867,12189,1
0.0,0.0,0.0,12596,19727,9588,10879,12163,1
0.0,0.0,0.0,12583,19746,9621,10843,12176,1
0.0,0.0,0.0,12583,19727,9621,10879,12189,1
0.0,0.0,0.0,12610,19746,9599,10867,12163,1
0.0,0.0,0.0,12556,19708,9621,10867,12176,1
0.0,0.0,0.0,12583,19689,9599,10891,12163,1
0.0,0.0,0.0,12583,19708,9621,10891,12163,1
0.0,0.0,0.0,12583,19727,9621,10879,12150,1
0.0,0.0,0.0,12583,19708,9599,10891,12163,1
0.0,0.0,0.0,12596,19727,9621,10867,12163,1
0.0,0.0,0.0,12583,19689,9599,10867,12163,1
0.0,0.0,0.0,12596,19708,9621,10879,12163,1
0.0,0.0,0.0,12583,19708,9610,10867,12176,1
0.0,0.0,0.0,12583,19727,9621,10867,12137,1
0.0,0.0,0.0,12583,19708,9621,10867,12163,1
0.0,0.0,0.0,12583,19727,9610,10879,12137,1
0.0,0.0,0.0,12596,19689,9599,10867,12163,1
0.0,0.0,0.0,12583,19746,9599,10879,12124,1
0.0,0.0,0.0,12583,19746,9621,10879,12176,1
0.0,0.0,0.0,12636,19766,9621,10867,12137,1
0.0,0.0,0.0,12636,19882,9621,10879,12189,1
0.0,0.0,0.0,12636,19843,9621,10891,12176,1
0.0,0.0,0.0,12649,19863,9632,10915,12215,1
0.0,0.0,0.0,12663,19921,9666,10927,12202,1
0.0,0.0,0.0,12690,19921,9632,10927,12215,1
0.0,0.0,0.0,12690,19882,9643,10927,12176,1
0.0,0.0,0.0,12690,19921,9632,10939,12189,1
0.0,0.0,0.0,12690,19882,9666,10939,12215,1
0.0,0.0,0.0,12663,19882,9621,10915,12189,1
0.0,0.0,0.0,12690,19921,9621,10927,12215,1
0.0,0.0,0.0,12703,19863,9643,10927,12176,1
0.0,0.0,0.0,12703,19882,9621,10927,12163,1
0.0,0.0,0.0,12690,19863,9621,10927,12176,1
0.0,0.0,0.0,12690,19843,9643,10915,12163,1
0.0,0.0,0.0,12690,19843,9621,10915,12189,1
0.0,0.0,0.0,12690,19902,9621,10915,12189,1
0.0,0.0,0.0,12690,19843,9621,10915,12215,1
0.0,0.0,0.0,12703,19902,9632,10915,12176,1
0.0,0.0,0.0,12703,19882,9621,10915,12163,1
0.0,0.0,0.0,12716,19902,9621,10903,12163,1
0.0,0.0,0.0,12770,19843,9632,10891,12163,1
0.0,0.0,0.0,12716,19863,9632,10891,12163,1
0.0,0.0,0.0,12730,19863,9621,10891,12163,1
0.0,0.0,0.0,12716,19863,9621,10879,12137,1
0.0,0.0,0.0,12703,19805,9621,10879,12124,1
0.0,0.0,0.0,12743,19882,9621,10915,12137,1
0.0,0.0,0.0,12716,19843,9621,10915,12163,1
0.0,0.0,0.0,12716,19843,9621,10891,12124,1
0.0,0.0,0.0,12716,19843,9621,10891,12163,1
0.0,0.0,0.0,12703,19843,9621,10915,12163,1
0.0,0.0,0.0,12743,19843,9621,10915,12163,1
0.0,0.0,0.0,12703,19805,9621,10915,12163,1
0.0,0.0,0.0,12716,19843,9632,10915,12150,1
0.0,0.0,0.0,12716,19805,9643,10915,12112,1
0.0,0.0,0.0,12690,19843,9632,10903,12112,1
0.0,0.0,0.0,12703,19805,9666,10891,12137,1
0.0,0.0,0.0,12690,19766,9643,10903,12086,1
0.0,0.0,0.0,12703,19727,9654,10879,12112,1
0.0,0.0,0.0,12690,19766,9643,10903,12112,1
0.0,0.0,0.0,12690,19727,9666,10879,12124,1
0.0,0.0,0.0,12690,19766,9621,10891,12112,1
0.0,0.0,0.0,12690,19746,9632,10915,12137,1
0.0,0.0,0.0,12690,19708,9621,10891,12137,1
0.0,0.0,0.0,12690,19766,9621,10891,12124,1
0.0,0.0,0.0,12690,19727,9621,10891,12124,1
0.0,0.0,0.0,12690,19689,9621,10879,12112,1
0.0,0.0,0.0,12690,19766,9632,10891,12137,1
0.0,0.0,0.0,12690,19708,9588,10879,12112,1
0.0,0.0,0.0,12676,19727,9599,10891,12137,1
0.0,0.0,0.0,12663,19708,9621,10891,12124,1
0.0,0.0,0.0,12663,19727,9610,10903,12137,1
0.0,0.0,0.0,12690,19708,9588,10891,12137,1
0.0,0.0,0.0,12676,19727,9621,10879,12124,1
0.0,0.0,0.0,12636,19766,9621,10891,12137,1
0.0,0.0,0.0,12663,19708,9610,10879,12124,1
0.0,0.0,0.0,12690,19689,9621,10891,12163,1
0.0,0.0,0.0,12690,19727,9632,10891,12163,1
0.0,0.0,0.0,12690,19708,9632,10891,12163,1
0.0,0.0,0.0,12649,19708,9621,10891,12150,1
0.0,0.0,0.0,12676,19766,9621,10915,12176,1
0.0,0.0,0.0,12676,19708,9621,10903,12163,1
0.0,0.0,0.0,12663,19689,9621,10915,12163,1
0.0,0.0,0.0,12690,19708,9632,10915,12163,1
0.0,0.0,0.0,12676,19689,9632,10915,12163,1
0.0,0.0,0.0,12649,19689,9643,10915,12189,1
0.0,0.0,0.0,12649,19689,9654,10891,12163,1
0.0,0.0,0.0,12663,19689,9643,10915,12176,1
0.0,0.0,0.0,12649,19689,9643,10915,12137,1
0.0,0.0,0.0,12649,19689,9666,10927,12163,1
0.0,0.0,0.0,12636,19650,9643,10915,12163,1
0.0,0.0,0.0,12636,19689,9643,10915,12163,1
0.0,0.0,0.0,12649,19708,9632,10927,12137,1
0.0,0.0,0.0,12636,19746,9643,10939,12189,1
0.0,0.0,0.0,12649,19708,9643,10927,12176,1
0.0,0.0,0.0,12623,19669,9632,10927,12163,1
0.0,0.0,0.0,12636,19669,9643,10915,12215,1
0.0,0.0,0.0,12636,19689,9632,10927,12163,1
0.0,0.0,0.0,12636,19689,9632,10915,12163,1
0.0,0.0,0.0,12649,19689,9666,10915,12189,1
0.0,0.0,0.0,12636,19689,9643,10927,12176,1
0.0,0.0,0.0,12636,19669,9632,10939,12176,1
0.0,0.0,0.0,12649,19689,9643,10939,12163,1
0.0,0.0,0.0,12649,19689,9643,10927,12176,1
0.0,0.0,0.0,12636,19689,9666,10915,12189,1
0.0,0.0,0.0,12649,19689,9666,10927,12176,1
0.0,0.0,0.0,12663,19689,9666,10927,12215,1
0.0,0.0,0.0,12649,19689,9666,10915,12176,1
0.0,0.0,0.0,12623,19689,9643,10939,12215,1
0.0,0.0,0.0,12636,19689,9666,10915,12202,1
0.0,0.0,0.0,12636,19669,9654,10927,12176,1
0.0,0.0,0.0,12636,19689,9643,10939,12163,1
0.0,0.0,0.0,12636,19689,9677,10963,12215,1
0.0,0.0,0.0,12636,19689,9666,10963,12176,1
0.0,0.0,0.0,12610,19689,9666,10939,12202,1
0.0,0.0,0.0,12636,19669,9666,10939,12189,1
0.0,0.0,0.0,12649,19689,9666,10939,12176,1
0.0,0.0,0.0,12663,19689,9677,10963,12163,1
0.0,0.0,0.0,12690,19708,9666,10963,12163,1
0.0,0.0,0.0,12676,19689,9666,10939,12163,1
0.0,0.0,0.0,12636,19708,9677,10939,12150,1
0.0,0.0,0.0,12690,19766,9677,10939,12150,1
0.0,0.0,0.0,12690,19766,9688,10963,12163,1
0.0,0.0,0.0,12690,19727,9688,10927,12163,1
0.0,0.0,0.0,12663,19708,9666,10939,12112,1
0.0,0.0,0.0,12649,19689,9666,10939,12163,1
0.0,0.0,0.0,12690,19689,9666,10927,12137,1
0.0,0.0,0.0,12690,19689,9666,10939,12163,1
0.0,0.0,0.0,12690,19727,9677,10963,12163,1
0.0,0.0,0.0,12663,19708,9666,10939,12124,1
0.0,0.0,0.0,12663,19689,9666,10927,12124,1
0.0,0.0,0.0,12636,19708,9710,10939,12163,1
0.0,0.0,0.0,12663,19708,9677,10939,12112,1
0.0,0.0,0.0,12663,19689,9688,10939,12163,1
0.0,0.0,0.0,12649,19689,9710,10939,12163,1
0.0,0.0,0.0,12663,19689,9688,10927,12137,1
0.0,0.0,0.0,12663,19689,9677,10915,12163,1
0.0,0.0,0.0,12636,19689,9666,10927,12163,1
0.0,0.0,0.0,12676,19689,9666,10927,12163,1
0.0,0.0,0.0,12636,19689,9666,10915,12163,1
0.0,0.0,0.0,12636,19650,9666,10915,12163,1
0.0,0.0,0.0,12610,19689,9666,10915,12163,1
0.0,0.0,0.0,12663,19689,9666,10963,12176,1
0.0,0.0,0.0,12636,19650,9666,10927,12163,1
0.0,0.0,0.0,12636,19689,9666,10927,12163,1
0.0,0.0,0.0,12649,19631,9666,10939,12150,1
0.0,0.0,0.0,12636,19669,9666,10963,12163,1
0.0,0.0,0.0,12636,19708,9677,10927,12202,1
0.0,0.0,0.0,12636,19689,9677,10939,12189,1
0.0,0.0,0.0,12623,19689,9688,10963,12176,1
0.0,0.0,0.0,12636,19708,9677,10939,12189,1
0.0,0.0,0.0,12636,19650,9688,10987,12215,1
0.0,0.0,0.0,12636,19631,9688,10963,12215,1
0.0,0.0,0.0,12636,19669,9688,10963,12215,1
0.0,0.0,0.0,12610,19689,9710,10963,12163,1
0.0,0.0,0.0,12636,19689,9710,10963,12215,1
0.0,0.0,0.0,12610,19650,9721,10963,12202,1
0.0,0.0,0.0,12649,19689,9721,10963,12228,1
0.0,0.0,0.0,12636,19669,9755,10975,12215,1
0.0,0.0,0.0,12623,19708,9755,10975,12228,1
0.0,0.0,0.0,12636,19689,9777,10963,12189,1
0.0,0.0,0.0,12583,19631,9777,10963,12189,1
0.0,0.0,0.0,12636,19689,9800,10975,12215,1
0.0,0.0,0.0,12610,19650,9811,10975,12228,1
0.0,0.0,0.0,12636,19669,9811,10975,12228,1
0.0,0.0,0.0,12636,19689,9845,10963,12215,1
0.0,0.0,0.0,12610,19669,9856,11012,12215,1
0.0,0.0,0.0,12623,19689,9890,10987,12228,1
0.0,0.0,0.0,12636,19689,9890,11012,12241,1
0.0,0.0,0.0,12636,19650,9958,11012,12228,1
0.0,0.0,0.0,12610,19650,9946,11012,12267,1
0.0,0.0,0.0,12610,19631,9980,11012,12228,1
0.0,0.0,0.0,12623,19650,10003,11012,12267,1
0.0,0.0,0.0,12610,19650,9980,11012,12215,1
0.0,0.0,0.0,12596,19689,10026,11012,12241,1
0.0,0.0,0.0,12610,19650,10049,11012,12267,1
0.0,0.0,0.0,12610,19650,10026,11012,12228,1
0.0,0.0,0.0,12610,19650,10049,11012,12267,1
0.0,0.0,0.0,12610,19631,10026,11024,12267,1
0.0,0.0,0.0,12596,19631,10026,11036,12267,1
0.0,0.0,0.0,12583,19631,10049,11036,12254,1
0.0,0.0,0.0,12583,19612,10037,11024,12267,1
0.0,0.0,0.0,12583,19612,10060,11024,12267,1
0.0,0.0,0.0,12583,19650,10049,11036,12280,1
0.0,0.0,0.0,12583,19631,10071,11048,12306,1
0.0,0.0,0.0,12583,19612,10083,11060,12293,1
0.0,0.0,0.0,12583,19631,10117,11036,12320,1
0.0,0.0,0.0,12596,19612,10117,11060,12280,1
0.0,0.0,0.0,12583,19650,10117,11036,12320,1
0.0,0.0,0.0,12583,19592,10129,11084,12320,1
0.0,0.0,0.0,12583,19612,10209,11072,12320,1
0.0,0.0,0.0,12583,19612,10221,11084,12320,1
0.0,0.0,0.0,12556,19612,10255,11109,12359,1
0.0,0.0,0.0,12530,19573,10301,11084,12320,1
0.0,0.0,0.0,12543,19573,10348,11109,12346,1
0.0,0.0,0.0,12530,19612,10313,11109,12333,1
0.0,0.0,0.0,12530,19573,10325,11109,12346,1
0.0,0.0,0.0,12530,19554,10348,11133,12346,1
0.0,0.0,0.0,12530,19573,10313,11109,12372,1
0.0,0.0,0.0,12504,19573,10313,11109,12372,1
0.0,0.0,0.0,12424,19554,10313,11109,12372,1
0.0,0.0,0.0,12424,19573,10313,11121,12346,1
0.0,0.0,0.0,12398,19535,10313,11157,12372,1
0.0,0.0,0.0,12398,19516,10325,11157,12385,1
0.0,0.0,0.0,12398,19535,10313,11133,12372,1
0.0,0.0,0.0,12424,19535,10301,11157,12346,1
0.0,0.0,0.0,12424,19497,10313,11133,12346,1
0.0,0.0,0.0,12372,19477,10313,11121,12359,1
0.0,0.0,0.0,12346,19535,10313,11157,12372,1
0.0,0.0,0.0,12320,19497,10348,11157,12372,1
0.0,0.0,0.0,12320,19477,10348,11157,12372,1
0.0,0.0,0.0,12293,19458,10348,11157,12372,1
0.0,0.0,0.0,12293,19497,10348,11157,12372,1
0.0,0.0,0.0,12267,19477,10359,11182,12424,1
0.0,0.0,0.0,12267,19497,10348,11182,12372,1
0.0,0.0,0.0,12189,19420,10359,11182,12477,1
0.0,0.0,0.0,12073,19382,10488,11379,13398,1
0.0,0.0,0.0,12099,19344,10594,11553,13679,1
0.0,0.0,0.0,12112,19344,10629,11565,13622,1
0.0,0.0,0.0,12163,19382,10688,11628,13566,1
0.0,0.0,0.0,12280,19420,10700,11653,13510,1
0.0,0.0,0.0,12385,19689,10700,11628,13398,1
0.0,0.0,0.0,12504,19863,10653,11515,13122,1
0.0,0.0,0.0,12504,19805,10605,11453,12959,1
0.0,0.0,0.0,12477,19766,10594,11403,12932,1
0.0,0.0,0.0,12464,19746,10582,11403,12851,1
0.0,0.0,0.0,12477,19766,10546,11379,12810,1
0.0,0.0,0.0,12477,19727,10511,11354,12797,1
0.0,0.0,0.0,12610,19805,10488,11317,12743,1
0.0,0.0,0.0,12810,19960,10464,11280,12636,1
0.0,0.0,0.0,12851,20078,10453,11304,12610,1
0.0,0.0,0.0,12851,20157,10464,11317,12583,1
0.0,0.0,0.0,12837,20117,10535,11304,12583,1
0.0,0.0,0.0,12851,20117,10511,11304,12543,1
0.0,0.0,0.0,12851,20058,10441,11219,12438,1
0.0,0.0,0.0,12851,20019,10418,11133,12398,1
0.0,0.0,0.0,12824,20078,10441,11060,12583,1
0.0,0.0,0.0,12797,20078,10441,11060,13343,1
0.0,0.0,0.0,12797,20039,10535,11072,13412,1
0.0,0.0,0.0,12743,20078,10605,11060,13454,1
0.0,0.0,0.0,12743,20078,10700,11096,13343,1
0.0,0.0,0.0,12649,20078,10783,11304,13013,1
0.0,0.0,0.0,12583,19941,10819,11366,12851,1
0.0,0.0,0.0,12543,19960,10676,11354,13013,1
0.0,0.0,0.0,12543,19882,10629,11329,13163,1
0.0,0.0,0.0,12570,19921,10629,11304,13068,1
0.0,0.0,0.0,12543,19980,10629,11317,13040,1
0.0,0.0,0.0,12570,20039,10629,11366,13232,1
0.0,0.0,0.0,12490,20078,10629,11453,13792,1
0.0,0.0,0.0,12267,19843,10629,11779,16141,1
0.0,0.0,0.0,12176,19805,10700,12267,16848,1
0.0,0.0,0.0,12189,19708,10867,12810,16632,1
0.0,0.0,0.0,12267,19708,11072,13510,16368,1
0.0,0.0,0.0,12320,19708,11317,14341,16028,1
0.0,0.0,0.0,11957,20078,11703,15459,15726,1
0.0,0.0,0.0,11578,20315,11817,15852,15710,1
0.0,0.0,0.0,11478,20275,11817,15916,15600,1
0.0,0.0,0.0,11478,20395,11881,16141,15537,1
0.0,0.0,0.0,11553,20716,12163,16949,15412,1
0.0,0.0,0.0,11842,20920,12398,17357,15366,1
0.0,0.0,0.0,12060,21084,12346,17067,15211,1
0.0,0.0,0.0,12372,21563,12124,16287,14861,1
0.0,0.0,0.0,12703,21882,11754,15273,14429,1
0.0,0.0,0.0,12959,21967,11578,14636,14137,1
0.0,0.0,0.0,13027,21903,11503,14488,14036,1
0.0,0.0,0.0,13122,21967,11255,14007,13863,1
0.0,0.0,0.0,13095,21818,10987,13068,13650,1
0.0,0.0,0.0,13054,21818,10927,12690,13566,1
0.0,0.0,0.0,12986,21754,10927,12690,13482,1
0.0,0.0,0.0,12918,21733,10939,12824,13468,1
0.0,0.0,0.0,12905,21754,10963,12797,13496,1
0.0,0.0,0.0,12905,21711,10987,12477,13538,1
0.0,0.0,0.0,12905,21711,10975,12346,13524,1
0.0,0.0,0.0,12878,21648,10975,12451,13510,1
0.0,0.0,0.0,12905,21669,10963,12398,13566,1
0.0,0.0,0.0,12918,21648,10903,12112,13468,1
0.0,0.0,0.0,12905,21648,10843,11804,13482,1
0.0,0.0,0.0,12918,21627,10795,11678,13454,1
0.0,0.0,0.0,12918,21627,10771,11691,13398,1
0.0,0.0,0.0,12932,21584,10783,11653,13398,1
0.0,0.0,0.0,12945,21627,10771,11628,13343,1
0.0,0.0,0.0,12932,21542,10700,11553,13274,1
0.0,0.0,0.0,12945,21542,10653,11515,13232,1
0.0,0.0,0.0,12932,21542,10712,11503,13177,1
0.0,0.0,0.0,12959,21563,10819,11478,13177,1
0.0,0.0,0.0,12972,21479,10975,11465,13081,1
0.0,0.0,0.0,12972,21458,11012,11453,13040,1
0.0,0.0,0.0,12918,21458,10975,11453,12986,1
0.0,0.0,0.0,12918,21416,10915,11453,12878,1
0.0,0.0,0.0,12905,21458,10915,11465,12730,1
0.0,0.0,0.0,12959,21416,10867,11440,12610,1
0.0,0.0,0.0,12945,21375,10819,11453,12583,1
0.0,0.0,0.0,12932,21333,10795,11403,12530,1
0.0,0.0,0.0,12959,21333,10771,11416,12583,1
0.0,0.0,0.0,12918,21312,10759,11391,12530,1
0.0,0.0,0.0,12918,21312,10724,11354,12543,1
0.0,0.0,0.0,12959,21312,10700,11317,12556,1
0.0,0.0,0.0,12918,21291,10688,11304,12556,1
0.0,0.0,0.0,12932,21291,10664,11304,12556,1
