GyroX,GyroY,GyroZ,Thumb,Index,Middle,Ring,Pinky,Gesture
0.0,0.0,0.0,16157,10371,28527,28301,35236,2
0.0,0.0,0.0,16109,10371,28470,28301,35163,2
0.0,0.0,0.0,16093,10371,28470,28245,35127,2
0.0,0.0,0.0,16125,10371,28442,28301,35199,2
0.0,0.0,0.0,16125,10394,28470,28245,35163,2
0.0,0.0,0.0,16109,10371,28470,28245,35163,2
0.0,0.0,0.0,16141,10371,28470,28245,35199,2
0.0,0.0,0.0,16109,10394,28414,28301,35163,2
0.0,0.0,0.0,16093,10371,28414,28245,35163,2
0.0,0.0,0.0,16109,10371,28470,28301,35127,2
0.0,0.0,0.0,16093,10394,28385,28217,35055,2
0.0,0.0,0.0,16093,10394,28470,28189,35127,2
0.0,0.0,0.0,16109,10371,28442,28189,35091,2
0.0,0.0,0.0,16125,10394,28470,28189,35127,2
0.0,0.0,0.0,16093,10371,28470,28301,35127,2
0.0,0.0,0.0,16157,10371,28470,28245,35163,2
0.0,0.0,0.0,16093,10371,28414,28301,35236,2
0.0,0.0,0.0,16109,10371,28414,28245,35127,2
0.0,0.0,0.0,16109,10371,28385,28189,35127,2
0.0,0.0,0.0,16109,10371,28414,28245,35127,2
0.0,0.0,0.0,16125,10371,28385,28245,35127,2
0.0,0.0,0.0,16109,10383,28414,28245,35127,2
0.0,0.0,0.0,16141,10394,28301,28189,35199,2
0.0,0.0,0.0,16287,10371,28133,28697,35861,2
0.0,0.0,0.0,16125,10418,27994,28640,35935,2
0.0,0.0,0.0,15932,10453,27800,28669,36160,2
0.0,0.0,0.0,15615,10488,27828,28927,36576,2
0.0,0.0,0.0,15335,10523,27911,29100,36998,2
0.0,0.0,0.0,14997,10535,27939,29158,37075,2
0.0,0.0,0.0,14607,10582,27966,29129,36920,2
0.0,0.0,0.0,14326,10605,27911,29158,37191,2
0.0,0.0,0.0,14021,10641,27828,29391,37701,2
0.0,0.0,0.0,13566,10724,27800,29538,38260,2
0.0,0.0,0.0,12932,10748,27773,29746,38789,2
0.0,0.0,0.0,13040,10771,27939,29805,38789,2
0.0,0.0,0.0,12610,10771,28077,30105,38995,2
0.0,0.0,0.0,12530,10795,28273,30286,39077,2
0.0,0.0,0.0,12810,10771,28301,30347,39119,2
0.0,0.0,0.0,13068,10771,28245,30226,38830,2
0.0,0.0,0.0,13150,10771,28133,30165,38912,2
0.0,0.0,0.0,13232,10759,28133,30165,38912,2
0.0,0.0,0.0,13232,10795,28133,30045,38789,2
0.0,0.0,0.0,13287,10771,28049,30045,38748,2
0.0,0.0,0.0,13301,10771,27911,30075,38789,2
0.0,0.0,0.0,13329,10807,27966,29984,38789,2
0.0,0.0,0.0,13426,10795,27911,30045,38748,2
0.0,0.0,0.0,13735,10819,27718,29984,38666,2
0.0,0.0,0.0,13906,10819,27636,29895,38585,2
0.0,0.0,0.0,13849,10819,27472,29835,38666,2
0.0,0.0,0.0,13792,10795,27472,29805,38585,2
0.0,0.0,0.0,13792,10819,27391,29805,38585,2
0.0,0.0,0.0,13935,10795,27337,29746,38341,2
0.0,0.0,0.0,14021,10819,27472,29805,38503,2
0.0,0.0,0.0,14224,10831,27691,29895,38503,2
0.0,0.0,0.0,14429,10867,27828,29895,38503,2
0.0,0.0,0.0,14547,10867,27966,29984,38503,2
0.0,0.0,0.0,14666,10891,28217,30226,38707,2
0.0,0.0,0.0,14861,10891,28612,30653,38871,2
0.0,0.0,0.0,15119,10915,29187,31213,39244,2
0.0,0.0,0.0,15335,10927,29509,31497,39244,2
0.0,0.0,0.0,15443,10963,29835,31752,39327,2
0.0,0.0,0.0,15490,10963,30165,31946,39327,2
0.0,0.0,0.0,15412,10939,30347,32043,39202,2
0.0,0.0,0.0,15273,10939,30622,32271,39160,2
0.0,0.0,0.0,15288,10915,30776,32402,39036,2
0.0,0.0,0.0,15710,10927,31087,32500,39160,2
0.0,0.0,0.0,16125,10891,31276,32666,39244,2
0.0,0.0,0.0,16385,10915,31497,32765,39244,2
0.0,0.0,0.0,16582,10927,31720,32799,39244,2
0.0,0.0,0.0,16582,10915,31720,32832,39244,2
0.0,0.0,0.0,16483,10915,31624,32732,39160,2
0.0,0.0,0.0,16434,10915,31720,32699,39119,2
0.0,0.0,0.0,16483,10915,31593,32699,39077,2
0.0,0.0,0.0,16549,10915,31593,32699,39077,2
0.0,0.0,0.0,16781,10915,31656,32765,39077,2
0.0,0.0,0.0,17169,10867,32140,32899,39244,2
0.0,0.0,0.0,17600,10915,32500,33100,39327,2
0.0,0.0,0.0,18057,10939,32666,32966,39327,2
0.0,0.0,0.0,18057,10951,32336,32336,38707,2
0.0,0.0,0.0,18057,10975,32173,31465,38180,2
0.0,0.0,0.0,18022,10963,32173,31276,38019,2
0.0,0.0,0.0,18057,10963,32108,30994,37940,2
0.0,0.0,0.0,18039,10963,32140,31119,38220,2
0.0,0.0,0.0,18075,10963,32173,31244,38260,2
0.0,0.0,0.0,18039,10963,32173,31213,38422,2
0.0,0.0,0.0,18057,10987,32140,31213,38422,2
0.0,0.0,0.0,18057,10963,32043,31276,38422,2
0.0,0.0,0.0,18057,10987,32043,31244,38382,2
0.0,0.0,0.0,18022,10963,32010,31150,38341,2
0.0,0.0,0.0,18022,10963,31978,31150,38341,2
0.0,0.0,0.0,18022,10939,31978,31119,38301,2
0.0,0.0,0.0,17933,10939,31913,31025,38180,2
0.0,0.0,0.0,17986,10927,31849,31056,38341,2
0.0,0.0,0.0,17933,10915,31849,31087,38180,2
0.0,0.0,0.0,17915,10891,31849,31025,38220,2
0.0,0.0,0.0,17915,10795,31656,30838,38180,2
0.0,0.0,0.0,17880,10748,31213,30561,37940,2
0.0,0.0,0.0,17862,10700,31056,30408,37781,2
0.0,0.0,0.0,17862,10653,30994,30408,37701,2
0.0,0.0,0.0,17792,10629,30962,30286,37701,2
0.0,0.0,0.0,17704,10582,30962,29835,37426,2
0.0,0.0,0.0,17652,10594,30715,29657,37152,2
0.0,0.0,0.0,17634,10558,30653,29686,37075,2
0.0,0.0,0.0,17617,10582,30622,29538,36998,2
0.0,0.0,0.0,17530,10582,30591,29627,36998,2
0.0,0.0,0.0,17461,10582,30591,29597,37075,2
0.0,0.0,0.0,17392,10594,30561,29509,36998,2
0.0,0.0,0.0,17374,10605,30561,29509,37036,2
0.0,0.0,0.0,17357,10582,30561,29597,36998,2
0.0,0.0,0.0,17306,10629,30591,29568,36920,2
0.0,0.0,0.0,17357,10641,30591,29597,36998,2
0.0,0.0,0.0,17289,10629,30653,29568,36959,2
0.0,0.0,0.0,17289,10653,30776,29627,36998,2
0.0,0.0,0.0,17289,10653,30715,29509,36959,2
0.0,0.0,0.0,17254,10641,30715,29627,36998,2
0.0,0.0,0.0,17254,10676,30838,29568,36959,2
0.0,0.0,0.0,17203,10676,30745,29627,36998,2
0.0,0.0,0.0,17186,10676,30715,29509,36882,2
0.0,0.0,0.0,17203,10676,30776,29627,36959,2
0.0,0.0,0.0,17152,10676,30776,29568,36920,2
0.0,0.0,0.0,17152,10676,30776,29568,36843,2
0.0,0.0,0.0,17118,10700,30869,29597,36920,2
0.0,0.0,0.0,17118,10676,30776,29627,36959,2
0.0,0.0,0.0,17135,10676,30715,29568,36920,2
0.0,0.0,0.0,17118,10676,30684,29627,36920,2
0.0,0.0,0.0,17118,10676,30653,29686,36920,2
0.0,0.0,0.0,17118,10676,30715,29568,36843,2
0.0,0.0,0.0,17135,10653,30745,29627,36920,2
0.0,0.0,0.0,17152,10676,30745,29538,36843,2
0.0,0.0,0.0,17152,10676,30653,29568,36805,2
0.0,0.0,0.0,17152,10676,30715,29568,36843,2
0.0,0.0,0.0,17169,10676,30684,29509,36882,2
0.0,0.0,0.0,17101,10676,30622,29509,36843,2
0.0,0.0,0.0,17152,10676,30715,29509,36805,2
0.0,0.0,0.0,17118,10676,30684,29509,36843,2
0.0,0.0,0.0,17101,10676,30622,29538,36920,2
0.0,0.0,0.0,17152,10676,30591,29479,36805,2
0.0,0.0,0.0,17084,10676,30622,29509,36882,2
0.0,0.0,0.0,17050,10676,30591,29479,36805,2
0.0,0.0,0.0,17033,10676,30591,29391,36843,2
0.0,0.0,0.0,17067,10676,30530,29479,36767,2
0.0,0.0,0.0,17084,10664,30591,29450,36767,2
0.0,0.0,0.0,17050,10664,30591,29450,36805,2
0.0,0.0,0.0,17050,10676,30591,29421,36690,2
0.0,0.0,0.0,17050,10676,30622,29450,36805,2
0.0,0.0,0.0,16966,10653,30469,29450,36767,2
0.0,0.0,0.0,16499,10629,30408,29158,36462,2
0.0,0.0,0.0,16483,10629,30347,29042,36386,2
0.0,0.0,0.0,16467,10582,30165,29013,36348,2
0.0,0.0,0.0,16483,10605,30165,28955,36386,2
0.0,0.0,0.0,16483,10605,30015,28984,36348,2
0.0,0.0,0.0,16499,10594,29955,28955,36386,2
0.0,0.0,0.0,16499,10594,29984,29042,36386,2
0.0,0.0,0.0,16483,10605,30015,29042,36348,2
0.0,0.0,0.0,16549,10582,29984,29042,36310,2
0.0,0.0,0.0,16582,10582,30045,29013,36348,2
0.0,0.0,0.0,16632,10582,30015,29042,36310,2
0.0,0.0,0.0,16615,10558,30045,28984,36348,2
0.0,0.0,0.0,16598,10594,29925,29042,36462,2
0.0,0.0,0.0,16254,10629,29657,28955,36386,2
0.0,0.0,0.0,15884,10641,29627,29013,36462,2
0.0,0.0,0.0,15181,10641,29333,28984,36462,2
0.0,0.0,0.0,14801,10676,29158,28927,36462,2
0.0,0.0,0.0,14326,10724,28697,29071,36920,2
0.0,0.0,0.0,13792,10819,28612,29216,37543,2
0.0,0.0,0.0,13357,10831,28498,29450,37860,2
0.0,0.0,0.0,13315,10915,28470,29538,38019,2
0.0,0.0,0.0,13679,10987,28470,29538,38019,2
0.0,0.0,0.0,13821,11012,28470,29627,38180,2
0.0,0.0,0.0,13622,11012,28385,29657,38301,2
0.0,0.0,0.0,13622,11012,28385,29716,38503,2
0.0,0.0,0.0,13707,10975,28414,29716,38382,2
0.0,0.0,0.0,13764,10975,28385,29657,38260,2
0.0,0.0,0.0,13792,10963,28385,29716,38301,2
0.0,0.0,0.0,13863,10963,28414,29746,38260,2
0.0,0.0,0.0,13906,10963,28357,29686,38260,2
0.0,0.0,0.0,13992,10963,28329,29627,38341,2
0.0,0.0,0.0,13921,10939,28301,29627,38180,2
0.0,0.0,0.0,13978,10975,28357,29627,38180,2
0.0,0.0,0.0,13949,10963,28357,29627,38180,2
0.0,0.0,0.0,13935,10975,28357,29657,38100,2
0.0,0.0,0.0,13964,10963,28217,29568,38100,2
0.0,0.0,0.0,13906,10963,28273,29509,38059,2
0.0,0.0,0.0,13906,10963,28301,29568,37980,2
0.0,0.0,0.0,13935,10987,28301,29538,38019,2
0.0,0.0,0.0,13978,10987,28301,29509,38019,2
0.0,0.0,0.0,13978,10975,28245,29509,37860,2
0.0,0.0,0.0,14007,10963,28189,29391,37900,2
0.0,0.0,0.0,14036,10975,28189,29421,37860,2
0.0,0.0,0.0,14021,10951,28245,29450,37860,2
0.0,0.0,0.0,14108,10963,28245,29391,37781,2
0.0,0.0,0.0,14137,10963,28161,29450,37860,2
0.0,0.0,0.0,14253,10963,28133,29450,38019,2
0.0,0.0,0.0,14311,10975,28133,29479,38019,2
0.0,0.0,0.0,14399,10987,28133,29450,38019,2
0.0,0.0,0.0,14473,10963,28133,29568,38100,2
0.0,0.0,0.0,14562,10987,28133,29509,38100,2
0.0,0.0,0.0,14636,10987,28189,29568,38260,2
0.0,0.0,0.0,14846,10975,28133,29657,38503,2
0.0,0.0,0.0,15150,11012,28161,29984,39077,2
0.0,0.0,0.0,15412,10975,28133,30226,39494,2
0.0,0.0,0.0,15647,10987,28273,30622,39917,2
0.0,0.0,0.0,16109,10963,28357,31213,40519,2
0.0,0.0,0.0,16141,10915,28301,31213,40259,2
0.0,0.0,0.0,16093,10891,28245,31025,40088,2
0.0,0.0,0.0,16093,10915,28217,31087,40088,2
0.0,0.0,0.0,16093,10891,28245,31025,40045,2
0.0,0.0,0.0,16060,10903,28161,30962,39917,2
0.0,0.0,0.0,16060,10891,28189,30869,39747,2
0.0,0.0,0.0,16060,10891,28189,30838,39705,2
0.0,0.0,0.0,16060,10903,28161,30838,39705,2
0.0,0.0,0.0,16060,10903,28133,30838,39663,2
0.0,0.0,0.0,16060,10915,28105,30838,39578,2
0.0,0.0,0.0,16060,10879,28077,30869,39747,2
0.0,0.0,0.0,16060,10891,28133,30838,39621,2
0.0,0.0,0.0,16060,10915,28133,30807,39621,2
0.0,0.0,0.0,15964,10915,28022,30715,39578,2
0.0,0.0,0.0,15964,10939,28049,30745,39578,2
0.0,0.0,0.0,15980,10939,28022,30715,39411,2
0.0,0.0,0.0,15916,10939,27966,30807,39663,2
0.0,0.0,0.0,15710,10915,27828,30745,39705,2
0.0,0.0,0.0,15584,10915,27745,30745,39705,2
0.0,0.0,0.0,15490,10927,27800,30776,39578,2
0.0,0.0,0.0,15181,10963,27828,30715,39578,2
0.0,0.0,0.0,14891,10963,27911,30838,39578,2
0.0,0.0,0.0,14726,10963,27939,30962,39578,2
0.0,0.0,0.0,14503,10963,28049,30962,39663,2
0.0,0.0,0.0,14195,10963,28189,30994,39663,2
0.0,0.0,0.0,14036,10975,28245,31025,39621,2
0.0,0.0,0.0,14137,10975,28470,31119,39663,2
0.0,0.0,0.0,14756,11024,28754,31150,39663,2
0.0,0.0,0.0,15663,11036,29158,31370,39578,2
0.0,0.0,0.0,16303,11024,29391,31561,39621,2
0.0,0.0,0.0,16831,11036,29568,31624,39663,2
0.0,0.0,0.0,17237,11060,29865,31720,39960,2
0.0,0.0,0.0,17582,11036,30105,31785,39917,2
0.0,0.0,0.0,17739,11036,30256,31785,39874,2
0.0,0.0,0.0,17986,11012,30591,31720,39790,2
0.0,0.0,0.0,18380,10879,30653,31561,39494,2
0.0,0.0,0.0,18562,10807,30561,31339,39327,2
0.0,0.0,0.0,18581,10783,30469,31370,39327,2
0.0,0.0,0.0,18635,10795,30469,31276,39327,2
0.0,0.0,0.0,18562,10748,30377,31276,39244,2
0.0,0.0,0.0,18489,10724,30347,31213,39369,2
0.0,0.0,0.0,18435,10736,30347,31213,39244,2
0.0,0.0,0.0,18435,10724,30286,31181,39244,2
0.0,0.0,0.0,18380,10724,30165,31119,39160,2
0.0,0.0,0.0,18362,10676,30165,31025,39160,2
0.0,0.0,0.0,18344,10676,30105,31087,39077,2
0.0,0.0,0.0,18290,10688,30075,30994,39077,2
0.0,0.0,0.0,18272,10700,30105,31025,39036,2
0.0,0.0,0.0,18308,10688,30015,30962,38995,2
0.0,0.0,0.0,18236,10700,30015,31025,39036,2
0.0,0.0,0.0,18236,10676,30015,31025,38912,2
0.0,0.0,0.0,18164,10676,30015,30962,38912,2
0.0,0.0,0.0,18164,10676,30015,30962,38912,2
0.0,0.0,0.0,18164,10676,29984,30869,38995,2
0.0,0.0,0.0,18129,10676,29925,30994,38912,2
0.0,0.0,0.0,18111,10688,29984,30962,38912,2
0.0,0.0,0.0,18093,10676,29925,30994,38871,2
0.0,0.0,0.0,18057,10688,29865,30900,38830,2
0.0,0.0,0.0,18022,10676,29865,30900,38953,2
0.0,0.0,0.0,17986,10676,29865,30962,38953,2
0.0,0.0,0.0,18004,10676,29805,30931,38830,2
0.0,0.0,0.0,18022,10676,29805,30900,38871,2
0.0,0.0,0.0,17986,10676,29805,30838,38871,2
0.0,0.0,0.0,17986,10676,29746,30869,38830,2
0.0,0.0,0.0,17951,10676,29775,30838,38707,2
0.0,0.0,0.0,17968,10700,29746,30869,38912,2
0.0,0.0,0.0,17880,10676,29775,30807,38748,2
0.0,0.0,0.0,17933,10664,29805,30838,38748,2
0.0,0.0,0.0,17951,10688,29716,30776,38830,2
0.0,0.0,0.0,17915,10676,29746,30715,38666,2
0.0,0.0,0.0,17880,10664,29746,30776,38830,2
0.0,0.0,0.0,17862,10676,29746,30776,38789,2
0.0,0.0,0.0,17862,10676,29686,30715,38748,2
0.0,0.0,0.0,17862,10676,29746,30715,38707,2
0.0,0.0,0.0,17845,10641,29775,30745,38830,2
0.0,0.0,0.0,17845,10653,29746,30745,38871,2
0.0,0.0,0.0,17845,10641,29746,30776,38830,2
0.0,0.0,0.0,17827,10676,29746,30715,38748,2
0.0,0.0,0.0,17845,10676,29686,30715,38748,2
0.0,0.0,0.0,17792,10664,29657,30715,38707,2
0.0,0.0,0.0,17774,10676,29746,30684,38748,2
0.0,0.0,0.0,17774,10653,29686,30745,38748,2
0.0,0.0,0.0,17774,10653,29686,30684,38666,2
0.0,0.0,0.0,17774,10676,29657,30622,38585,2
0.0,0.0,0.0,17792,10676,29627,30715,38707,2
0.0,0.0,0.0,17774,10676,29657,30715,38748,2
0.0,0.0,0.0,17774,10688,29627,30591,38707,2
0.0,0.0,0.0,17774,10676,29657,30653,38748,2
0.0,0.0,0.0,17722,10641,29627,30653,38666,2
0.0,0.0,0.0,17739,10653,29627,30715,38666,2
0.0,0.0,0.0,17722,10664,29657,30622,38666,2
0.0,0.0,0.0,17704,10653,29627,30653,38625,2
0.0,0.0,0.0,17704,10664,29568,30622,38503,2
0.0,0.0,0.0,17704,10653,29627,30684,38625,2
0.0,0.0,0.0,17704,10629,29538,30591,38666,2
0.0,0.0,0.0,17704,10641,29509,30653,38585,2
0.0,0.0,0.0,17669,10629,29568,30622,38544,2
0.0,0.0,0.0,17669,10641,29538,30591,38625,2
0.0,0.0,0.0,17739,10676,29568,30653,38585,2
0.0,0.0,0.0,17669,10664,29568,30653,38666,2
0.0,0.0,0.0,17669,10653,29538,30622,38544,2
0.0,0.0,0.0,17634,10676,29509,30591,38503,2
0.0,0.0,0.0,17652,10676,29509,30622,38585,2
0.0,0.0,0.0,17634,10653,29450,30591,38544,2
0.0,0.0,0.0,17634,10676,29450,30530,38544,2
0.0,0.0,0.0,17634,10653,29450,30530,38544,2
0.0,0.0,0.0,17582,10641,29509,30530,38544,2
0.0,0.0,0.0,17600,10653,29479,30499,38503,2
0.0,0.0,0.0,17634,10653,29509,30561,38585,2
0.0,0.0,0.0,17582,10653,29450,30530,38585,2
0.0,0.0,0.0,17565,10676,29391,30530,38503,2
0.0,0.0,0.0,17565,10676,29450,30530,38463,2
0.0,0.0,0.0,17565,10676,29421,30530,38503,2
0.0,0.0,0.0,17530,10641,29391,30530,38382,2
0.0,0.0,0.0,17513,10676,29391,30499,38503,2
0.0,0.0,0.0,17547,10676,29391,30499,38503,2
0.0,0.0,0.0,17513,10653,29391,30469,38503,2
0.0,0.0,0.0,17530,10664,29391,30530,38382,2
0.0,0.0,0.0,17513,10676,29362,30469,38463,2
0.0,0.0,0.0,17495,10653,29333,30469,38544,2
0.0,0.0,0.0,17513,10676,29391,30530,38585,2
0.0,0.0,0.0,17495,10688,29391,30438,38503,2
0.0,0.0,0.0,17461,10688,29421,30499,38503,2
0.0,0.0,0.0,17495,10629,29333,30530,38422,2
0.0,0.0,0.0,17443,10688,29333,30530,38382,2
0.0,0.0,0.0,17495,10688,29333,30530,38422,2
0.0,0.0,0.0,17495,10688,29304,30469,38503,2
0.0,0.0,0.0,17478,10688,29304,30499,38341,2
0.0,0.0,0.0,17478,10688,29274,30499,38341,2
0.0,0.0,0.0,17443,10676,29333,30499,38463,2
0.0,0.0,0.0,17426,10688,29333,30469,38463,2
0.0,0.0,0.0,17478,10688,29333,30469,38422,2
0.0,0.0,0.0,17478,10700,29333,30469,38382,2
0.0,0.0,0.0,17461,10700,29274,30408,38341,2
0.0,0.0,0.0,17443,10676,29304,30438,38422,2
0.0,0.0,0.0,17426,10688,29304,30438,38341,2
0.0,0.0,0.0,17426,10688,29274,30408,38341,2
0.0,0.0,0.0,17443,10676,29304,30499,38382,2
0.0,0.0,0.0,17426,10676,29274,30469,38422,2
0.0,0.0,0.0,17426,10688,29187,30347,38422,2
0.0,0.0,0.0,17409,10676,29304,30438,38422,2
0.0,0.0,0.0,17426,10676,29274,30377,38463,2
0.0,0.0,0.0,17374,10676,29274,30408,38422,2
0.0,0.0,0.0,17374,10688,29245,30377,38260,2
0.0,0.0,0.0,17357,10688,29216,30347,38382,2
0.0,0.0,0.0,17357,10664,29304,30408,38260,2
0.0,0.0,0.0,17374,10676,29216,30347,38220,2
0.0,0.0,0.0,17357,10676,29274,30377,38341,2
0.0,0.0,0.0,17357,10676,29216,30438,38260,2
0.0,0.0,0.0,17357,10676,29216,30377,38180,2
0.0,0.0,0.0,17374,10688,29274,30438,38260,2
0.0,0.0,0.0,17323,10676,29216,30286,38260,2
0.0,0.0,0.0,17357,10700,29245,30408,38180,2
0.0,0.0,0.0,17323,10676,29245,30347,38220,2
0.0,0.0,0.0,17323,10676,29216,30347,38260,2
0.0,0.0,0.0,17323,10700,29245,30347,38220,2
0.0,0.0,0.0,17323,10688,29245,30408,38341,2
0.0,0.0,0.0,17289,10676,29216,30317,38220,2
0.0,0.0,0.0,17323,10688,29216,30286,38260,2
0.0,0.0,0.0,17323,10688,29274,30347,38220,2
0.0,0.0,0.0,17306,10688,29216,30347,38180,2
0.0,0.0,0.0,17306,10700,29187,30286,38180,2
0.0,0.0,0.0,17323,10700,29216,30317,38260,2
0.0,0.0,0.0,17289,10712,29158,30286,38220,2
0.0,0.0,0.0,17254,10724,29216,30286,38140,2
0.0,0.0,0.0,17306,10724,29216,30256,38260,2
0.0,0.0,0.0,17289,10724,29216,30286,38220,2
0.0,0.0,0.0,17289,10700,29158,30286,38220,2
0.0,0.0,0.0,17289,10724,29158,30256,38260,2
0.0,0.0,0.0,17289,10700,29158,30256,38180,2
0.0,0.0,0.0,17254,10700,29187,30195,38260,2
0.0,0.0,0.0,17289,10700,29245,30286,38180,2
0.0,0.0,0.0,17323,10700,29129,30317,38180,2
0.0,0.0,0.0,17289,10688,29187,30286,38180,2
0.0,0.0,0.0,17289,10724,29158,30256,38100,2
0.0,0.0,0.0,17289,10688,29216,30347,38180,2
0.0,0.0,0.0,17254,10688,29158,30256,38140,2
0.0,0.0,0.0,17272,10724,29158,30347,38140,2
0.0,0.0,0.0,17254,10688,29158,30226,38140,2
0.0,0.0,0.0,17254,10688,29158,30226,38220,2
0.0,0.0,0.0,17289,10700,29158,30286,38140,2
0.0,0.0,0.0,17254,10712,29129,30256,38019,2
0.0,0.0,0.0,17254,10724,29100,30226,38140,2
0.0,0.0,0.0,17237,10688,29042,30226,38100,2
0.0,0.0,0.0,17272,10700,29100,30256,38019,2
0.0,0.0,0.0,17220,10688,29071,30226,38100,2
0.0,0.0,0.0,17254,10700,29071,30195,38180,2
0.0,0.0,0.0,17220,10724,29071,30226,38059,2
0.0,0.0,0.0,17254,10688,29158,30226,38100,2
0.0,0.0,0.0,17237,10700,29100,30195,38180,2
0.0,0.0,0.0,17254,10748,29100,30256,38140,2
0.0,0.0,0.0,17220,10724,29100,30165,38140,2
0.0,0.0,0.0,17237,10700,29042,30226,38100,2
0.0,0.0,0.0,17220,10724,29071,30226,38019,2
0.0,0.0,0.0,17220,10724,29071,30226,38019,2
0.0,0.0,0.0,17220,10712,29071,30286,38100,2
0.0,0.0,0.0,17203,10724,29042,30165,38100,2
0.0,0.0,0.0,17220,10676,29100,30165,38100,2
0.0,0.0,0.0,17220,10724,29100,30226,38180,2
0.0,0.0,0.0,17186,10724,29100,30226,38059,2
0.0,0.0,0.0,17186,10700,29071,30165,38100,2
0.0,0.0,0.0,17186,10724,29042,30165,38019,2
0.0,0.0,0.0,17220,10724,29071,30165,38100,2
0.0,0.0,0.0,17203,10724,29042,30195,38100,2
0.0,0.0,0.0,17220,10724,29013,30195,38019,2
0.0,0.0,0.0,17186,10748,29042,30165,37980,2
0.0,0.0,0.0,17220,10724,29013,30226,38059,2
0.0,0.0,0.0,17152,10700,29042,30226,38019,2
0.0,0.0,0.0,17169,10724,29042,30195,38100,2
0.0,0.0,0.0,17186,10712,29071,30226,38180,2
0.0,0.0,0.0,17186,10700,29042,30226,38100,2
0.0,0.0,0.0,17152,10700,29042,30165,38059,2
0.0,0.0,0.0,17152,10700,28984,30165,38019,2
0.0,0.0,0.0,17203,10688,29042,30165,38100,2
0.0,0.0,0.0,17186,10724,29042,30165,38019,2
0.0,0.0,0.0,16966,10724,29042,30195,38059,2
0.0,0.0,0.0,16932,10724,29013,30165,38180,2
0.0,0.0,0.0,16949,10724,28984,30165,38059,2
0.0,0.0,0.0,17084,10724,28984,30165,38019,2
0.0,0.0,0.0,17118,10700,28955,30195,38100,2
0.0,0.0,0.0,17118,10700,29042,30105,38100,2
0.0,0.0,0.0,17067,10700,28984,30165,38220,2
0.0,0.0,0.0,16949,10688,28984,30165,38059,2
0.0,0.0,0.0,16848,10700,28927,30135,38059,2
0.0,0.0,0.0,16781,10724,28869,30105,38019,2
0.0,0.0,0.0,16499,10712,28840,30165,38019,2
0.0,0.0,0.0,16385,10724,28697,30165,37940,2
0.0,0.0,0.0,16093,10724,28583,30105,37940,2
0.0,0.0,0.0,15397,10724,28527,30045,38019,2
0.0,0.0,0.0,14801,10748,28414,29984,37940,2
0.0,0.0,0.0,14137,10748,28357,30045,37940,2
0.0,0.0,0.0,13636,10795,28245,30045,37940,2
0.0,0.0,0.0,13792,10795,28189,29984,37940,2
0.0,0.0,0.0,13863,10819,28133,30015,38100,2
0.0,0.0,0.0,13906,10831,28133,30045,38059,2
0.0,0.0,0.0,14429,10843,28022,29984,38059,2
0.0,0.0,0.0,15273,10867,27966,29925,38019,2
0.0,0.0,0.0,15996,10867,27828,29865,38019,2
0.0,0.0,0.0,16681,10879,27636,29716,37940,2
0.0,0.0,0.0,16949,10879,27472,29509,38100,2
0.0,0.0,0.0,17101,10915,27256,29333,38100,2
0.0,0.0,0.0,16815,10891,27148,29216,38100,2
0.0,0.0,0.0,16615,10879,27095,29100,38059,2
0.0,0.0,0.0,16450,10891,27095,29042,37980,2
0.0,0.0,0.0,16385,10879,27095,29071,37940,2
0.0,0.0,0.0,16319,10867,27095,29013,37980,2
0.0,0.0,0.0,16303,10867,27095,28984,37820,2
0.0,0.0,0.0,16303,10879,27148,29042,37860,2
0.0,0.0,0.0,16287,10867,27095,29042,37860,2
0.0,0.0,0.0,16254,10879,27068,28984,37781,2
0.0,0.0,0.0,16254,10879,27041,28984,37820,2
0.0,0.0,0.0,16222,10891,27095,28927,37781,2
0.0,0.0,0.0,16189,10891,27068,28984,37701,2
0.0,0.0,0.0,16173,10891,27068,28927,37701,2
0.0,0.0,0.0,16157,10879,27041,28927,37701,2
0.0,0.0,0.0,16109,10891,27015,28927,37741,2
0.0,0.0,0.0,16109,10891,27041,28869,37662,2
0.0,0.0,0.0,16076,10891,27041,28927,37583,2
0.0,0.0,0.0,16093,10915,27068,28927,37622,2
0.0,0.0,0.0,16093,10903,27095,28869,37583,2
0.0,0.0,0.0,16060,10891,27068,28869,37622,2
0.0,0.0,0.0,16060,10915,27068,28869,37583,2
0.0,0.0,0.0,16060,10891,27068,28812,37583,2
0.0,0.0,0.0,16060,10891,27068,28812,37543,2
0.0,0.0,0.0,16060,10903,27068,28840,37662,2
0.0,0.0,0.0,16060,10915,27041,28812,37662,2
0.0,0.0,0.0,15996,10915,27041,28754,37465,2
0.0,0.0,0.0,15964,10915,26961,28812,37583,2
0.0,0.0,0.0,15964,10891,27068,28812,37622,2
0.0,0.0,0.0,15964,10915,27041,28812,37583,2
0.0,0.0,0.0,15964,10915,27041,28783,37543,2
0.0,0.0,0.0,15932,10915,27041,28783,37543,2
0.0,0.0,0.0,15932,10915,26988,28754,37426,2
0.0,0.0,0.0,15900,10915,27041,28697,37465,2
0.0,0.0,0.0,15916,10915,27041,28697,37583,2
0.0,0.0,0.0,15964,10903,27015,28726,37504,2
0.0,0.0,0.0,15900,10915,27015,28640,37504,2
0.0,0.0,0.0,15916,10915,26988,28697,37465,2
0.0,0.0,0.0,15900,10903,26988,28697,37543,2
0.0,0.0,0.0,15900,10915,26935,28640,37386,2
0.0,0.0,0.0,15996,10879,26961,28697,37308,2
0.0,0.0,0.0,16076,10891,26935,28726,37583,2
0.0,0.0,0.0,16060,10891,26855,28812,37504,2
0.0,0.0,0.0,15916,10915,26908,28697,37426,2
0.0,0.0,0.0,15773,10867,27015,28697,37465,2
0.0,0.0,0.0,15710,10867,26935,28669,37386,2
0.0,0.0,0.0,15741,10867,26961,28697,37465,2
0.0,0.0,0.0,15726,10879,26935,28669,37465,2
0.0,0.0,0.0,15710,10867,26988,28697,37386,2
0.0,0.0,0.0,15647,10879,26988,28640,37308,2
0.0,0.0,0.0,15663,10915,26935,28669,37465,2
0.0,0.0,0.0,15710,10867,26855,28640,37347,2
0.0,0.0,0.0,15678,10867,26776,28583,37386,2
0.0,0.0,0.0,15584,10867,26697,28640,37386,2
0.0,0.0,0.0,15428,10867,26566,28697,37386,2
0.0,0.0,0.0,15335,10867,26513,28612,37386,2
0.0,0.0,0.0,14997,10867,26566,28697,37465,2
0.0,0.0,0.0,14518,10843,26513,28697,37386,2
0.0,0.0,0.0,14311,10843,26592,28697,37465,2
0.0,0.0,0.0,14488,10915,26670,28697,37465,2
0.0,0.0,0.0,14846,10867,26882,28812,37465,2
0.0,0.0,0.0,14997,10879,27095,28812,37543,2
0.0,0.0,0.0,15089,10939,27202,28955,37543,2
0.0,0.0,0.0,15089,10963,27391,28984,37741,2
0.0,0.0,0.0,15104,10963,27581,29158,37701,2
0.0,0.0,0.0,15397,10963,27966,29216,37701,2
0.0,0.0,0.0,15600,10963,28414,29333,37900,2
0.0,0.0,0.0,15773,10963,28697,29391,37860,2
0.0,0.0,0.0,15900,10963,28869,29391,37860,2
0.0,0.0,0.0,15996,10927,29042,29479,37940,2
0.0,0.0,0.0,16060,10927,29042,29479,38019,2
0.0,0.0,0.0,16060,10927,28927,29479,38019,2
0.0,0.0,0.0,16173,10915,28927,29509,38019,2
0.0,0.0,0.0,16173,10915,28927,29538,37980,2
0.0,0.0,0.0,16125,10891,28898,29568,38019,2
0.0,0.0,0.0,16060,10891,28898,29538,38019,2
0.0,0.0,0.0,16125,10867,28754,29538,37860,2
0.0,0.0,0.0,16109,10879,28754,29538,37860,2
0.0,0.0,0.0,16093,10867,28812,29568,37900,2
0.0,0.0,0.0,16012,10879,28726,29538,37860,2
0.0,0.0,0.0,15964,10891,28669,29538,37860,2
0.0,0.0,0.0,15964,10867,28612,29509,37900,2
0.0,0.0,0.0,15916,10903,28583,29538,37741,2
0.0,0.0,0.0,15900,10879,28640,29538,37860,2
0.0,0.0,0.0,15868,10891,28640,29538,37781,2
0.0,0.0,0.0,15884,10879,28697,29509,37900,2
0.0,0.0,0.0,15868,10891,28583,29538,37940,2
0.0,0.0,0.0,15837,10867,28640,29538,37781,2
0.0,0.0,0.0,15837,10867,28612,29538,37860,2
0.0,0.0,0.0,15837,10867,28640,29509,37900,2
0.0,0.0,0.0,15837,10879,28583,29509,37781,2
0.0,0.0,0.0,15789,10867,28555,29509,37781,2
0.0,0.0,0.0,15773,10879,28583,29509,37701,2
0.0,0.0,0.0,15789,10867,28527,29538,37860,2
0.0,0.0,0.0,15773,10867,28583,29509,37820,2
0.0,0.0,0.0,15773,10843,28498,29479,37741,2
0.0,0.0,0.0,15789,10843,28527,29450,37701,2
0.0,0.0,0.0,15837,10831,28498,29333,37940,2
0.0,0.0,0.0,15773,10843,28470,29509,37701,2
0.0,0.0,0.0,15789,10795,28527,29509,37701,2
0.0,0.0,0.0,15789,10771,28470,29391,37583,2
0.0,0.0,0.0,15805,10748,28442,29421,37465,2
0.0,0.0,0.0,15773,10748,28414,29391,37583,2
0.0,0.0,0.0,15773,10748,28385,29450,37543,2
0.0,0.0,0.0,15773,10748,28357,29421,37465,2
0.0,0.0,0.0,15789,10771,28414,29391,37426,2
0.0,0.0,0.0,15789,10771,28357,29421,37465,2
0.0,0.0,0.0,15773,10748,28357,29421,37465,2
0.0,0.0,0.0,15789,10748,28385,29421,37543,2
0.0,0.0,0.0,15773,10748,28357,29391,37543,2
0.0,0.0,0.0,15726,10748,28357,29333,37504,2
0.0,0.0,0.0,15773,10748,28329,29391,37465,2
0.0,0.0,0.0,15741,10748,28301,29333,37504,2
0.0,0.0,0.0,15741,10748,28329,29391,37543,2
0.0,0.0,0.0,15710,10748,28301,29391,37426,2
0.0,0.0,0.0,15678,10748,28301,29333,37426,2
0.0,0.0,0.0,15663,10748,28357,29362,37426,2
0.0,0.0,0.0,15678,10748,28245,29274,37347,2
0.0,0.0,0.0,15678,10748,28301,29362,37347,2
0.0,0.0,0.0,15647,10748,28301,29304,37426,2
0.0,0.0,0.0,15663,10748,28245,29216,37386,2
0.0,0.0,0.0,15647,10748,28245,29245,37426,2
0.0,0.0,0.0,15647,10748,28245,29216,37426,2
0.0,0.0,0.0,15647,10748,28189,29216,37426,2
0.0,0.0,0.0,15647,10748,28161,29245,37308,2
0.0,0.0,0.0,15647,10771,28217,29274,37308,2
0.0,0.0,0.0,15647,10759,28189,29216,37347,2
0.0,0.0,0.0,15647,10759,28189,29216,37308,2
0.0,0.0,0.0,15647,10748,28245,29304,37465,2
0.0,0.0,0.0,15663,10748,28161,29216,37308,2
0.0,0.0,0.0,15647,10748,28189,29274,37347,2
0.0,0.0,0.0,15663,10748,28189,29216,37386,2
0.0,0.0,0.0,15647,10771,28245,29304,37386,2
0.0,0.0,0.0,15647,10771,28189,29187,37230,2
0.0,0.0,0.0,15663,10771,28189,29274,37347,2
0.0,0.0,0.0,15584,10771,28161,29158,37386,2
0.0,0.0,0.0,15521,10783,28245,29245,37269,2
0.0,0.0,0.0,15211,10771,28105,29245,37191,2
0.0,0.0,0.0,14967,10795,27911,29187,37308,2
0.0,0.0,0.0,15757,10795,27745,29129,37386,2
0.0,0.0,0.0,16287,10843,27691,29071,37308,2
0.0,0.0,0.0,16287,10867,27581,28984,37269,2
0.0,0.0,0.0,16028,10915,27418,28984,37386,2
0.0,0.0,0.0,15773,10915,27175,28955,37465,2
0.0,0.0,0.0,15537,10939,27095,28869,37465,2
0.0,0.0,0.0,15335,10939,27068,28812,37347,2
0.0,0.0,0.0,15227,10963,26988,28812,37386,2
0.0,0.0,0.0,15211,10963,27068,28754,37465,2
0.0,0.0,0.0,15150,10939,27041,28840,37308,2
0.0,0.0,0.0,15150,10963,27041,28783,37386,2
0.0,0.0,0.0,15150,10927,27041,28754,37386,2
0.0,0.0,0.0,15119,10927,26935,28812,37308,2
0.0,0.0,0.0,15089,10951,26988,28726,37386,2
0.0,0.0,0.0,15089,10927,27041,28754,37308,2
0.0,0.0,0.0,15104,10927,26935,28754,37308,2
0.0,0.0,0.0,15089,10939,26988,28612,37230,2
0.0,0.0,0.0,15119,10963,27015,28812,37308,2
0.0,0.0,0.0,15119,10939,26961,28697,37386,2
0.0,0.0,0.0,15104,10927,26961,28754,37308,2
0.0,0.0,0.0,15119,10927,26988,28726,37230,2
0.0,0.0,0.0,15150,10927,26935,28783,37386,2
0.0,0.0,0.0,15135,10927,26961,28697,37308,2
0.0,0.0,0.0,15181,10927,26935,28697,37269,2
0.0,0.0,0.0,15165,10939,26882,28697,37230,2
0.0,0.0,0.0,15150,10927,26935,28697,37230,2
0.0,0.0,0.0,15196,10939,26988,28812,37269,2
0.0,0.0,0.0,15165,10915,26935,28726,37269,2
0.0,0.0,0.0,15227,10927,26908,28754,37308,2
0.0,0.0,0.0,15196,10939,26908,28669,37230,2
0.0,0.0,0.0,15227,10963,26935,28697,37269,2
0.0,0.0,0.0,15181,10915,26935,28726,37152,2
0.0,0.0,0.0,15196,10939,26935,28697,37230,2
0.0,0.0,0.0,15181,10939,26855,28669,37230,2
0.0,0.0,0.0,15211,10939,26935,28697,37152,2
0.0,0.0,0.0,15211,10915,26882,28697,37152,2
0.0,0.0,0.0,15181,10927,26882,28697,37114,2
0.0,0.0,0.0,15150,10915,26908,28697,37269,2
0.0,0.0,0.0,15150,10939,26935,28697,37269,2
0.0,0.0,0.0,15165,10927,26908,28754,37152,2
0.0,0.0,0.0,15181,10927,26882,28726,37230,2
0.0,0.0,0.0,15165,10939,26882,28754,37230,2
0.0,0.0,0.0,15181,10939,26935,28697,37230,2
0.0,0.0,0.0,15150,10963,26908,28697,37230,2
0.0,0.0,0.0,15181,10939,26882,28640,37152,2
0.0,0.0,0.0,15181,10963,26935,28697,37191,2
0.0,0.0,0.0,15227,10963,26935,28669,37152,2
0.0,0.0,0.0,15196,10963,26908,28669,37230,2
0.0,0.0,0.0,15211,10963,26882,28754,37269,2
0.0,0.0,0.0,15211,10963,26882,28697,37230,2
0.0,0.0,0.0,15181,10987,26829,28726,37230,2
0.0,0.0,0.0,15181,10963,26882,28726,37075,2
0.0,0.0,0.0,15181,10975,26882,28697,37269,2
0.0,0.0,0.0,15150,10975,26829,28697,37075,2
0.0,0.0,0.0,15165,10963,26855,28669,37152,2
0.0,0.0,0.0,15165,10987,26882,28726,37152,2
0.0,0.0,0.0,15181,10975,26882,28697,37191,2
0.0,0.0,0.0,15165,10963,26855,28640,37075,2
0.0,0.0,0.0,15165,10963,26776,28640,37075,2
0.0,0.0,0.0,15211,10987,26829,28697,37114,2
0.0,0.0,0.0,15181,10975,26855,28726,37152,2
0.0,0.0,0.0,15181,10975,26829,28697,37191,2
0.0,0.0,0.0,15165,10975,26855,28697,37152,2
0.0,0.0,0.0,15181,10963,26829,28640,37230,2
0.0,0.0,0.0,15181,10975,26829,28612,37191,2
0.0,0.0,0.0,15211,10963,26802,28640,37152,2
0.0,0.0,0.0,15397,10987,26749,28640,37114,2
0.0,0.0,0.0,15553,10975,26749,28640,37075,2
0.0,0.0,0.0,15647,10975,26644,28697,37230,2
0.0,0.0,0.0,15521,10963,26618,28697,37075,2
0.0,0.0,0.0,15089,10963,26566,28697,37114,2
0.0,0.0,0.0,14786,10963,26618,28697,37114,2
0.0,0.0,0.0,14726,10963,26566,28669,37075,2
0.0,0.0,0.0,14681,10963,26592,28697,37075,2
0.0,0.0,0.0,14607,10963,26566,28697,37114,2
0.0,0.0,0.0,14607,10963,26618,28640,36998,2
0.0,0.0,0.0,14607,10975,26566,28640,36998,2
0.0,0.0,0.0,14726,10963,26566,28669,36998,2
0.0,0.0,0.0,14786,10963,26566,28640,36959,2
0.0,0.0,0.0,14846,10963,26618,28640,37075,2
0.0,0.0,0.0,15058,10963,26566,28697,37075,2
0.0,0.0,0.0,15428,10927,26566,28697,36998,2
0.0,0.0,0.0,15726,10915,26670,28697,37075,2
0.0,0.0,0.0,15932,10963,27041,28812,37308,2
0.0,0.0,0.0,16093,10963,27418,29100,37701,2
0.0,0.0,0.0,16287,10963,27883,29216,37900,2
0.0,0.0,0.0,16549,10975,28640,29568,38260,2
0.0,0.0,0.0,16698,10963,29216,29686,38260,2
0.0,0.0,0.0,16748,10963,29509,29865,38260,2
0.0,0.0,0.0,16681,10963,29509,29925,38180,2
0.0,0.0,0.0,16615,10939,29450,29805,38019,2
0.0,0.0,0.0,16565,10951,29450,29865,37940,2
0.0,0.0,0.0,16532,10927,29421,29835,37940,2
0.0,0.0,0.0,16516,10939,29479,29746,37940,2
0.0,0.0,0.0,16483,10927,29450,29746,37781,2
0.0,0.0,0.0,16483,10927,29538,29686,37860,2
0.0,0.0,0.0,16450,10915,29538,29627,37622,2
0.0,0.0,0.0,16483,10939,29568,29627,37543,2
0.0,0.0,0.0,16483,10915,29509,29627,37504,2
0.0,0.0,0.0,16450,10915,29450,29627,37543,2
0.0,0.0,0.0,16450,10915,29391,29597,37386,2
0.0,0.0,0.0,16385,10915,29391,29568,37230,2
0.0,0.0,0.0,16352,10915,29333,29568,37230,2
0.0,0.0,0.0,16352,10915,29274,29509,37191,2
0.0,0.0,0.0,16385,10915,29274,29509,37152,2
0.0,0.0,0.0,16303,10915,29216,29509,37230,2
0.0,0.0,0.0,16352,10915,29274,29568,37152,2
0.0,0.0,0.0,16352,10903,29216,29509,37152,2
0.0,0.0,0.0,16385,10915,29216,29509,37191,2
0.0,0.0,0.0,16385,10915,29158,29509,37114,2
0.0,0.0,0.0,16368,10891,29100,29538,37152,2
0.0,0.0,0.0,16385,10915,29042,29479,37114,2
0.0,0.0,0.0,16352,10915,29071,29450,37152,2
0.0,0.0,0.0,16352,10879,29071,29450,37152,2
0.0,0.0,0.0,16319,10915,29042,29450,36998,2
0.0,0.0,0.0,16303,10915,29042,29538,37075,2
0.0,0.0,0.0,16254,10915,28955,29450,37075,2
0.0,0.0,0.0,16303,10915,29042,29450,37075,2
0.0,0.0,0.0,16222,10915,29042,29509,37191,2
0.0,0.0,0.0,16254,10915,28984,29450,37036,2
0.0,0.0,0.0,16287,10915,29042,29450,37075,2
0.0,0.0,0.0,16254,10915,28927,29450,37075,2
0.0,0.0,0.0,15932,10915,28840,29333,37075,2
0.0,0.0,0.0,15900,10927,28783,29274,36843,2
0.0,0.0,0.0,15726,10915,28640,29274,36920,2
0.0,0.0,0.0,15459,10927,28470,29245,36959,2
0.0,0.0,0.0,15397,10927,28385,29187,36843,2
0.0,0.0,0.0,14967,10939,28245,29274,36959,2
0.0,0.0,0.0,14311,10963,28077,29274,36920,2
0.0,0.0,0.0,13735,10963,28077,29304,36920,2
0.0,0.0,0.0,13566,10999,28022,29333,36920,2
0.0,0.0,0.0,13357,11024,28077,29391,37075,2
0.0,0.0,0.0,13122,11048,28049,29509,37230,2
0.0,0.0,0.0,12690,11072,28022,29597,37308,2
0.0,0.0,0.0,12372,11072,27966,29538,37308,2
0.0,0.0,0.0,12438,11072,27911,29450,37114,2
0.0,0.0,0.0,13821,11060,27911,29421,37230,2
0.0,0.0,0.0,14518,11060,27911,29479,37152,2
0.0,0.0,0.0,14937,11024,27636,29391,37504,2
0.0,0.0,0.0,15397,11060,27581,29450,37543,2
0.0,0.0,0.0,16222,11060,27527,29421,37662,2
0.0,0.0,0.0,16615,11060,27499,29391,37583,2
0.0,0.0,0.0,16648,11060,27472,29391,37741,2
0.0,0.0,0.0,16565,11060,27499,29391,37781,2
0.0,0.0,0.0,16483,11060,27581,29362,37860,2
0.0,0.0,0.0,16434,11036,27527,29391,37781,2
0.0,0.0,0.0,16417,11048,27527,29391,37940,2
0.0,0.0,0.0,16319,11036,27554,29391,37741,2
0.0,0.0,0.0,16352,11036,27527,29391,37781,2
0.0,0.0,0.0,16336,11036,27581,29391,37860,2
0.0,0.0,0.0,16303,11024,27554,29391,37701,2
0.0,0.0,0.0,16303,11012,27445,29362,37701,2
0.0,0.0,0.0,16303,11012,27472,29362,37583,2
0.0,0.0,0.0,16319,11012,27418,29391,37583,2
0.0,0.0,0.0,16352,11012,27445,29304,37701,2
0.0,0.0,0.0,16319,11012,27445,29304,37701,2
0.0,0.0,0.0,16287,11012,27364,29304,37583,2
0.0,0.0,0.0,16352,10987,27364,29216,37662,2
0.0,0.0,0.0,16303,11012,27364,29304,37622,2
0.0,0.0,0.0,16287,10987,27310,29245,37583,2
0.0,0.0,0.0,16287,10963,27391,29274,37622,2
0.0,0.0,0.0,16287,11012,27337,29216,37662,2
0.0,0.0,0.0,16303,10987,27310,29274,37622,2
0.0,0.0,0.0,16303,10999,27310,29245,37543,2
0.0,0.0,0.0,16271,10999,27310,29274,37662,2
0.0,0.0,0.0,16287,10999,27337,29216,37583,2
0.0,0.0,0.0,16222,11012,27283,29216,37583,2
0.0,0.0,0.0,16254,10987,27283,29274,37543,2
0.0,0.0,0.0,16254,10975,27256,29274,37543,2
0.0,0.0,0.0,16222,10963,27256,29187,37386,2
0.0,0.0,0.0,16222,10975,27310,29187,37465,2
0.0,0.0,0.0,16254,10975,27256,29187,37465,2
0.0,0.0,0.0,16238,10975,27256,29216,37583,2
0.0,0.0,0.0,16222,10987,27283,29187,37543,2
0.0,0.0,0.0,16254,10975,27283,29216,37543,2
0.0,0.0,0.0,16222,10975,27256,29216,37426,2
0.0,0.0,0.0,16157,10963,27256,29216,37543,2
0.0,0.0,0.0,16189,10987,27256,29187,37386,2
0.0,0.0,0.0,16173,10975,27256,29187,37465,2
0.0,0.0,0.0,16189,10963,27256,29187,37465,2
0.0,0.0,0.0,16173,10963,27256,29158,37504,2
0.0,0.0,0.0,16189,10975,27256,29158,37386,2
0.0,0.0,0.0,16206,10963,27229,29158,37504,2
0.0,0.0,0.0,16189,10975,27202,29158,37347,2
0.0,0.0,0.0,16173,10963,27229,29129,37308,2
0.0,0.0,0.0,16189,10963,27256,29187,37465,2
0.0,0.0,0.0,16173,10963,27175,29100,37308,2
0.0,0.0,0.0,16189,10951,27148,29158,37308,2
0.0,0.0,0.0,16189,10915,27122,29158,37308,2
0.0,0.0,0.0,16157,10915,27148,29071,37386,2
0.0,0.0,0.0,16206,10879,27175,29100,37347,2
0.0,0.0,0.0,16173,10891,27122,29071,37230,2
0.0,0.0,0.0,16173,10915,27148,29071,37308,2
0.0,0.0,0.0,16189,10915,27148,28984,37308,2
0.0,0.0,0.0,16173,10891,27148,29042,37308,2
0.0,0.0,0.0,16157,10915,27148,29100,37230,2
0.0,0.0,0.0,16189,10903,27148,29071,37269,2
0.0,0.0,0.0,16157,10891,27095,29100,37230,2
0.0,0.0,0.0,16157,10903,27122,29042,37230,2
0.0,0.0,0.0,16173,10915,27148,29042,37269,2
0.0,0.0,0.0,16157,10915,27095,29042,37230,2
0.0,0.0,0.0,16157,10915,27095,28984,37230,2
0.0,0.0,0.0,16157,10915,27068,29042,37308,2
0.0,0.0,0.0,16173,10915,27068,28984,37191,2
0.0,0.0,0.0,16125,10915,27041,29042,37269,2
0.0,0.0,0.0,16157,10915,27068,29100,37152,2
0.0,0.0,0.0,16157,10915,27041,29071,37191,2
0.0,0.0,0.0,16157,10915,27041,29071,37152,2
0.0,0.0,0.0,16157,10939,27095,29042,37269,2
0.0,0.0,0.0,16157,10915,27068,29013,37230,2
0.0,0.0,0.0,16173,10915,27015,29042,37152,2
0.0,0.0,0.0,16157,10915,27041,29042,37191,2
0.0,0.0,0.0,16125,10915,27041,29071,37114,2
0.0,0.0,0.0,16157,10915,27041,29042,37230,2
0.0,0.0,0.0,16173,10927,27041,28984,37230,2
0.0,0.0,0.0,16157,10927,27041,29013,37114,2
0.0,0.0,0.0,16157,10939,27041,28984,37230,2
0.0,0.0,0.0,16173,10927,27041,29013,37152,2
0.0,0.0,0.0,16173,10927,27041,29013,37114,2
0.0,0.0,0.0,16157,10939,27041,29042,37075,2
0.0,0.0,0.0,16189,10963,27041,28984,37075,2
0.0,0.0,0.0,16157,10963,27041,28955,37152,2
0.0,0.0,0.0,16173,10963,26908,29042,37230,2
0.0,0.0,0.0,16157,10927,26988,28927,37075,2
0.0,0.0,0.0,16189,10939,27015,29042,37152,2
0.0,0.0,0.0,16157,10939,27041,28984,37152,2
0.0,0.0,0.0,16157,10963,27041,28984,37152,2
0.0,0.0,0.0,16173,10963,27041,29013,37230,2
0.0,0.0,0.0,16157,10927,27041,28927,37114,2
0.0,0.0,0.0,16157,10939,27041,29042,37114,2
0.0,0.0,0.0,16157,10915,27041,28955,37152,2
0.0,0.0,0.0,16173,10927,26961,28955,37152,2
0.0,0.0,0.0,16125,10927,26935,29013,37152,2
0.0,0.0,0.0,16157,10939,26935,28955,37114,2
0.0,0.0,0.0,16157,10939,26988,28955,37114,2
0.0,0.0,0.0,16157,10927,26935,28955,37075,2
0.0,0.0,0.0,16157,10939,26988,28955,37075,2
0.0,0.0,0.0,16157,10927,26961,28955,37152,2
0.0,0.0,0.0,16157,10927,26961,28955,37075,2
0.0,0.0,0.0,16157,10915,26961,28927,36998,2
0.0,0.0,0.0,16157,10915,26935,28955,37036,2
0.0,0.0,0.0,16157,10915,26935,28955,37075,2
0.0,0.0,0.0,16141,10915,26961,28984,37075,2
0.0,0.0,0.0,16125,10939,26908,28927,36998,2
0.0,0.0,0.0,16157,10939,26961,28927,37075,2
0.0,0.0,0.0,16125,10927,26988,28955,37036,2
0.0,0.0,0.0,16125,10915,26961,28927,37114,2
0.0,0.0,0.0,16141,10939,26961,28927,37152,2
0.0,0.0,0.0,16109,10915,26935,28927,37075,2
0.0,0.0,0.0,16125,10939,26961,28955,37075,2
0.0,0.0,0.0,16157,10927,26961,28955,37114,2
0.0,0.0,0.0,16125,10939,26935,28955,37075,2
0.0,0.0,0.0,16157,10939,26988,28927,37075,2
0.0,0.0,0.0,16093,10927,26935,28984,37075,2
0.0,0.0,0.0,16125,10939,26961,28984,37075,2
0.0,0.0,0.0,16109,10963,26935,28927,36998,2
0.0,0.0,0.0,16125,10963,26935,28955,37036,2
0.0,0.0,0.0,16157,10927,26961,28869,37075,2
0.0,0.0,0.0,16157,10927,26935,28927,36998,2
0.0,0.0,0.0,16093,10939,26935,28869,36920,2
0.0,0.0,0.0,16093,10915,26935,28927,37075,2
0.0,0.0,0.0,16125,10915,26935,28955,37075,2
0.0,0.0,0.0,16109,10939,26961,28955,37075,2
0.0,0.0,0.0,16109,10927,26935,28927,36959,2
0.0,0.0,0.0,16093,10939,26961,28927,36998,2
0.0,0.0,0.0,16125,10939,26935,28927,36998,2
0.0,0.0,0.0,16093,10927,26935,28898,36920,2
0.0,0.0,0.0,16109,10915,26935,29013,37152,2
0.0,0.0,0.0,16157,10915,26935,28984,36998,2
0.0,0.0,0.0,16222,10915,26855,28927,37075,2
0.0,0.0,0.0,16254,10915,26882,28927,36998,2
0.0,0.0,0.0,16222,10915,26882,28927,36843,2
0.0,0.0,0.0,16028,10927,26409,28812,36959,2
0.0,0.0,0.0,15397,10915,26202,28869,37075,2
0.0,0.0,0.0,14937,10915,26253,28840,36998,2
0.0,0.0,0.0,14997,10915,26202,28898,37191,2
0.0,0.0,0.0,15150,10915,26202,28898,37152,2
0.0,0.0,0.0,15165,10963,26435,28869,37269,2
0.0,0.0,0.0,15397,10963,27256,29042,37583,2
0.0,0.0,0.0,15615,10963,28301,29450,37860,2
0.0,0.0,0.0,15773,10939,29216,29746,37940,2
0.0,0.0,0.0,16028,10939,29925,30347,38019,2
0.0,0.0,0.0,16222,10915,30347,30745,37860,2
0.0,0.0,0.0,16352,10915,30591,30962,37860,2
0.0,0.0,0.0,16434,10903,30745,31056,37860,2
0.0,0.0,0.0,16483,10879,30838,31087,37701,2
0.0,0.0,0.0,16516,10879,30776,31087,37465,2
0.0,0.0,0.0,16516,10879,30715,31056,37543,2
0.0,0.0,0.0,16483,10867,30684,30931,37347,2
0.0,0.0,0.0,16434,10867,30591,30994,37347,2
0.0,0.0,0.0,16450,10867,30530,30931,37386,2
0.0,0.0,0.0,16417,10867,30469,30838,37230,2
0.0,0.0,0.0,16385,10867,30408,30807,37269,2
0.0,0.0,0.0,16368,10867,30377,30745,37465,2
0.0,0.0,0.0,16352,10843,30286,30776,37230,2
0.0,0.0,0.0,16319,10867,30317,30715,37191,2
0.0,0.0,0.0,16287,10867,30286,30776,37230,2
0.0,0.0,0.0,16287,10843,30286,30745,37230,2
0.0,0.0,0.0,16287,10867,30286,30622,37075,2
0.0,0.0,0.0,16287,10867,30195,30653,37152,2
0.0,0.0,0.0,16287,10867,30226,30653,37230,2
0.0,0.0,0.0,16238,10879,30165,30653,37075,2
0.0,0.0,0.0,16238,10867,30195,30622,37114,2
0.0,0.0,0.0,16173,10867,30165,30591,37152,2
0.0,0.0,0.0,16109,10867,30165,30591,37075,2
0.0,0.0,0.0,16141,10867,30045,30499,36998,2
0.0,0.0,0.0,16109,10867,30045,30530,37075,2
0.0,0.0,0.0,16093,10867,30105,30499,36998,2
0.0,0.0,0.0,16060,10879,30105,30469,37114,2
0.0,0.0,0.0,16028,10891,30135,30530,37114,2
0.0,0.0,0.0,15996,10879,30045,30561,36920,2
0.0,0.0,0.0,16060,10879,30045,30469,37152,2
0.0,0.0,0.0,16028,10879,30105,30469,37075,2
0.0,0.0,0.0,16028,10867,30105,30499,37075,2
0.0,0.0,0.0,15996,10891,30105,30499,37036,2
0.0,0.0,0.0,16028,10879,30015,30499,37036,2
0.0,0.0,0.0,15980,10891,29984,30499,36998,2
0.0,0.0,0.0,16028,10879,30045,30469,37075,2
0.0,0.0,0.0,16060,10915,30045,30499,37036,2
0.0,0.0,0.0,16028,10891,29984,30469,37075,2
0.0,0.0,0.0,16060,10915,30015,30499,37075,2
0.0,0.0,0.0,16028,10879,29984,30499,37036,2
0.0,0.0,0.0,16028,10915,29984,30438,36959,2
0.0,0.0,0.0,16028,10879,29984,30469,37075,2
0.0,0.0,0.0,16028,10879,29865,30469,37075,2
0.0,0.0,0.0,16076,10891,29925,30499,37075,2
0.0,0.0,0.0,16028,10939,29925,30408,37036,2
0.0,0.0,0.0,15773,10939,29984,30347,37075,2
0.0,0.0,0.0,15412,10963,30015,30226,37075,2
0.0,0.0,0.0,15089,10987,29865,30195,36959,2
0.0,0.0,0.0,14861,10987,29627,30135,36920,2
0.0,0.0,0.0,14756,10987,29274,30045,36959,2
0.0,0.0,0.0,14636,11012,29216,30045,36920,2
0.0,0.0,0.0,14607,11012,29042,29984,36959,2
0.0,0.0,0.0,14636,11012,29013,29895,36920,2
0.0,0.0,0.0,14621,11012,28812,29865,36920,2
0.0,0.0,0.0,14370,11024,28812,29835,36998,2
0.0,0.0,0.0,14036,11048,28697,29746,36998,2
0.0,0.0,0.0,13806,11024,28697,29657,36843,2
0.0,0.0,0.0,13693,11036,28583,29627,36843,2
0.0,0.0,0.0,13622,11048,28640,29627,36920,2
0.0,0.0,0.0,13566,11060,28527,29568,36805,2
0.0,0.0,0.0,13524,11060,28527,29509,36690,2
0.0,0.0,0.0,13608,11060,28470,29509,36728,2
0.0,0.0,0.0,13679,11060,28470,29509,36767,2
0.0,0.0,0.0,13764,11036,28414,29568,36767,2
0.0,0.0,0.0,13792,11048,28357,29479,36690,2
0.0,0.0,0.0,13849,11060,28301,29509,36805,2
0.0,0.0,0.0,13863,11060,28301,29450,36690,2
0.0,0.0,0.0,13906,11036,28301,29509,36767,2
0.0,0.0,0.0,13921,11012,28189,29421,36690,2
0.0,0.0,0.0,13935,11012,28189,29421,36690,2
0.0,0.0,0.0,13964,11012,28133,29391,36614,2
0.0,0.0,0.0,13992,10987,28133,29391,36690,2
0.0,0.0,0.0,14021,11012,28105,29391,36614,2
0.0,0.0,0.0,14079,11024,28133,29391,36690,2
0.0,0.0,0.0,14064,11012,28077,29333,36690,2
0.0,0.0,0.0,14108,11012,28105,29391,36690,2
0.0,0.0,0.0,14108,11012,28077,29391,36690,2
0.0,0.0,0.0,14137,10987,28077,29304,36652,2
0.0,0.0,0.0,14122,11012,28049,29304,36576,2
0.0,0.0,0.0,14166,10999,28022,29421,36690,2
0.0,0.0,0.0,14122,10999,28077,29274,36538,2
0.0,0.0,0.0,14151,11012,28022,29333,36690,2
0.0,0.0,0.0,14137,10987,27966,29362,36576,2
0.0,0.0,0.0,14209,10963,27911,29333,36538,2
0.0,0.0,0.0,14224,10915,27856,29362,36690,2
0.0,0.0,0.0,14195,10915,27911,29333,36499,2
0.0,0.0,0.0,14166,10915,27911,29333,36614,2
0.0,0.0,0.0,14195,10915,27828,29274,36538,2
0.0,0.0,0.0,14195,10927,27856,29274,36576,2
0.0,0.0,0.0,14166,10915,27800,29274,36614,2
0.0,0.0,0.0,14195,10891,27856,29245,36499,2
0.0,0.0,0.0,14224,10879,27800,29274,36462,2
0.0,0.0,0.0,14209,10915,27800,29245,36538,2
0.0,0.0,0.0,14180,10891,27800,29216,36462,2
0.0,0.0,0.0,14195,10891,27856,29304,36576,2
0.0,0.0,0.0,14224,10891,27800,29216,36462,2
0.0,0.0,0.0,14224,10891,27828,29274,36576,2
0.0,0.0,0.0,14253,10891,27800,29245,36499,2
0.0,0.0,0.0,14253,10915,27773,29216,36499,2
0.0,0.0,0.0,14224,10879,27800,29216,36499,2
0.0,0.0,0.0,14238,10879,27800,29274,36538,2
0.0,0.0,0.0,14238,10879,27856,29274,36538,2
0.0,0.0,0.0,14224,10915,27828,29274,36499,2
0.0,0.0,0.0,14195,10915,27828,29274,36462,2
0.0,0.0,0.0,14166,10915,27856,29274,36386,2
0.0,0.0,0.0,14166,10915,27828,29216,36348,2
0.0,0.0,0.0,14151,10915,27911,29216,36462,2
0.0,0.0,0.0,14180,10927,27883,29245,36462,2
0.0,0.0,0.0,14137,10927,27883,29216,36348,2
0.0,0.0,0.0,14137,10915,27828,29216,36235,2
0.0,0.0,0.0,14166,10939,27911,29274,36462,2
0.0,0.0,0.0,14137,10939,27828,29216,36386,2
0.0,0.0,0.0,14166,10939,27828,29187,36310,2
0.0,0.0,0.0,14195,10963,27745,29187,36272,2
0.0,0.0,0.0,14311,10963,27773,29216,36386,2
0.0,0.0,0.0,14311,10963,27718,29158,36310,2
0.0,0.0,0.0,14282,10939,27800,29158,36310,2
0.0,0.0,0.0,14370,10963,27718,29158,36310,2
0.0,0.0,0.0,14607,10939,27581,29158,36348,2
0.0,0.0,0.0,14922,10939,27256,29216,36614,2
0.0,0.0,0.0,14967,10915,26935,29187,36767,2
0.0,0.0,0.0,14846,10915,26855,29158,36805,2
0.0,0.0,0.0,14816,10915,26829,29100,36767,2
0.0,0.0,0.0,14907,10915,26802,29158,36843,2
0.0,0.0,0.0,14907,10915,26749,29100,36805,2
0.0,0.0,0.0,14756,10927,26776,29042,36805,2
0.0,0.0,0.0,14741,10927,26829,29158,36843,2
0.0,0.0,0.0,14681,10927,26776,29071,36767,2
0.0,0.0,0.0,14681,10915,26802,29129,36843,2
0.0,0.0,0.0,14726,10915,26776,29100,36920,2
0.0,0.0,0.0,14741,10915,26829,29100,36843,2
0.0,0.0,0.0,14681,10915,26829,29042,36805,2
0.0,0.0,0.0,14696,10867,26855,29042,36805,2
0.0,0.0,0.0,14726,10915,26802,29100,36690,2
0.0,0.0,0.0,14696,10891,26802,29100,36767,2
0.0,0.0,0.0,14681,10891,26802,29071,36690,2
0.0,0.0,0.0,14726,10915,26776,29100,36843,2
0.0,0.0,0.0,14681,10915,26802,29042,36767,2
0.0,0.0,0.0,14726,10891,26829,29042,36767,2
0.0,0.0,0.0,14696,10915,26829,29100,36767,2
0.0,0.0,0.0,14666,10915,26723,28984,36690,2
0.0,0.0,0.0,14681,10891,26723,29042,36728,2
0.0,0.0,0.0,14696,10903,26776,29042,36728,2
0.0,0.0,0.0,14741,10915,26935,29071,36767,2
0.0,0.0,0.0,14726,10915,27068,29071,36576,2
0.0,0.0,0.0,14786,10891,27148,29158,36690,2
0.0,0.0,0.0,14726,10915,27041,29158,36614,2
0.0,0.0,0.0,14726,10903,26988,29158,36690,2
0.0,0.0,0.0,14726,10891,27041,29100,36690,2
0.0,0.0,0.0,14681,10915,27041,29100,36690,2
0.0,0.0,0.0,14696,10891,26882,29042,36576,2
0.0,0.0,0.0,14666,10891,26988,29071,36728,2
0.0,0.0,0.0,14666,10915,26988,29042,36690,2
0.0,0.0,0.0,14726,10891,26988,29071,36690,2
0.0,0.0,0.0,14681,10915,27068,29071,36614,2
0.0,0.0,0.0,14681,10915,27041,29071,36614,2
0.0,0.0,0.0,14696,10915,27041,29100,36690,2
0.0,0.0,0.0,14651,10915,27041,29042,36614,2
0.0,0.0,0.0,14666,10915,27041,29071,36576,2
0.0,0.0,0.0,14681,10915,26961,28984,36614,2
0.0,0.0,0.0,14801,10915,26882,28984,36614,2
0.0,0.0,0.0,14907,10915,26776,29042,36690,2
0.0,0.0,0.0,15043,10915,26618,29042,36728,2
0.0,0.0,0.0,15089,10927,26670,28984,36767,2
0.0,0.0,0.0,15165,10927,26723,29042,36843,2
0.0,0.0,0.0,15304,10951,26776,29100,36843,2
0.0,0.0,0.0,15459,10951,27041,29158,36920,2
0.0,0.0,0.0,15584,10963,27310,29158,36882,2
0.0,0.0,0.0,15710,10963,27636,29158,36843,2
0.0,0.0,0.0,15868,10963,27939,29187,36920,2
0.0,0.0,0.0,16028,10975,28189,29274,36920,2
0.0,0.0,0.0,16157,11012,28470,29333,36920,2
0.0,0.0,0.0,16206,11012,28869,29391,36920,2
0.0,0.0,0.0,16287,11024,28984,29421,36959,2
0.0,0.0,0.0,16303,11012,29158,29421,37075,2
0.0,0.0,0.0,16173,11024,29216,29391,37075,2
0.0,0.0,0.0,16076,11048,29158,29450,36805,2
0.0,0.0,0.0,16028,11024,29100,29421,36920,2
0.0,0.0,0.0,15996,11012,29071,29421,36920,2
0.0,0.0,0.0,16028,11012,28984,29362,36920,2
0.0,0.0,0.0,15964,11024,29042,29362,36843,2
0.0,0.0,0.0,15964,11024,28984,29391,36805,2
0.0,0.0,0.0,15900,11024,28927,29362,36843,2
0.0,0.0,0.0,15916,11012,28927,29391,36805,2
0.0,0.0,0.0,15900,11012,28927,29391,36805,2
0.0,0.0,0.0,15900,11024,28869,29333,36920,2
0.0,0.0,0.0,15900,11036,28898,29391,36805,2
0.0,0.0,0.0,15868,11024,28869,29391,36920,2
0.0,0.0,0.0,15852,11012,28869,29391,36882,2
0.0,0.0,0.0,15868,11036,28869,29333,36843,2
0.0,0.0,0.0,15868,11012,28869,29333,36843,2
0.0,0.0,0.0,15837,11012,28812,29333,36805,2
0.0,0.0,0.0,15900,11012,28783,29421,36767,2
0.0,0.0,0.0,15837,11012,28812,29304,36767,2
0.0,0.0,0.0,15837,10999,28812,29362,36690,2
0.0,0.0,0.0,15837,11012,28840,29333,36767,2
0.0,0.0,0.0,15837,11012,28812,29333,36805,2
0.0,0.0,0.0,15837,11012,28812,29421,36805,2
0.0,0.0,0.0,15805,11036,28812,29391,36690,2
0.0,0.0,0.0,15837,11012,28812,29391,36843,2
0.0,0.0,0.0,15837,10987,28812,29333,36767,2
0.0,0.0,0.0,15837,11024,28754,29362,36843,2
0.0,0.0,0.0,15773,11060,28754,29304,36767,2
0.0,0.0,0.0,15837,11012,28754,29333,36728,2
0.0,0.0,0.0,15789,11024,28783,29362,36690,2
