GyroX,GyroY,GyroZ,Thumb,Index,Middle,Ring,Pinky,Gesture
0.0,0.0,0.0,15584,11881,9946,29158,34767,3
0.0,0.0,0.0,15600,11868,9969,29100,34767,3
0.0,0.0,0.0,15584,11868,9980,29042,34767,3
0.0,0.0,0.0,15584,11881,9958,29071,34696,3
0.0,0.0,0.0,15584,11855,9980,29129,34696,3
0.0,0.0,0.0,15553,11881,9958,29100,34696,3
0.0,0.0,0.0,15521,11868,9980,29013,34803,3
0.0,0.0,0.0,15553,11868,9958,29042,34696,3
0.0,0.0,0.0,15521,11881,9980,29042,34624,3
0.0,0.0,0.0,15553,11855,9980,29100,34696,3
0.0,0.0,0.0,15537,11881,9980,29042,34696,3
0.0,0.0,0.0,15553,11868,9969,29042,34660,3
0.0,0.0,0.0,15537,11893,9980,29042,34589,3
0.0,0.0,0.0,15490,11881,9969,29042,34553,3
0.0,0.0,0.0,15521,11868,9980,29013,34589,3
0.0,0.0,0.0,15475,11906,9980,29042,34553,3
0.0,0.0,0.0,15475,11893,9980,29013,34553,3
0.0,0.0,0.0,15490,11906,10003,29071,34624,3
0.0,0.0,0.0,15490,11868,9980,28955,34589,3
0.0,0.0,0.0,15475,11855,10003,29013,34553,3
0.0,0.0,0.0,15459,11906,9980,28955,34553,3
0.0,0.0,0.0,15459,11868,10003,28984,34696,3
0.0,0.0,0.0,15428,11881,10003,28898,34482,3
0.0,0.0,0.0,15475,11906,10003,28955,34553,3
0.0,0.0,0.0,15459,11893,9980,28927,34553,3
0.0,0.0,0.0,15412,11868,10003,28955,34482,3
0.0,0.0,0.0,15459,11881,10003,28927,34553,3
0.0,0.0,0.0,15428,11906,10003,28927,34518,3
0.0,0.0,0.0,15475,11881,10003,28955,34518,3
0.0,0.0,0.0,15428,11881,10003,28927,34482,3
0.0,0.0,0.0,15443,11906,10003,28927,34482,3
0.0,0.0,0.0,15443,11906,10003,28955,34518,3
0.0,0.0,0.0,15428,11868,10014,28898,34482,3
0.0,0.0,0.0,15412,11906,9992,28869,34482,3
0.0,0.0,0.0,15428,11881,10003,28898,34482,3
0.0,0.0,0.0,15459,11906,10003,28840,34482,3
0.0,0.0,0.0,15412,11881,10026,28812,34482,3
0.0,0.0,0.0,15397,11881,10026,28869,34482,3
0.0,0.0,0.0,15412,11906,10026,28840,34447,3
0.0,0.0,0.0,15397,11881,9992,28812,34447,3
0.0,0.0,0.0,15412,11881,10026,28812,34447,3
0.0,0.0,0.0,15397,11881,10026,28869,34412,3
0.0,0.0,0.0,15412,11919,10026,28812,34482,3
0.0,0.0,0.0,15397,11881,10026,28783,34482,3
0.0,0.0,0.0,15397,11893,10003,28754,34447,3
0.0,0.0,0.0,15381,11906,10026,28754,34412,3
0.0,0.0,0.0,15397,11906,10026,28640,34412,3
0.0,0.0,0.0,15397,11855,10026,28812,34482,3
0.0,0.0,0.0,15366,11881,10026,28726,34412,3
0.0,0.0,0.0,15381,11881,10026,28754,34412,3
0.0,0.0,0.0,15366,11881,10026,28697,34376,3
0.0,0.0,0.0,15366,11906,10026,28640,34412,3
0.0,0.0,0.0,15366,11906,10026,28697,34412,3
0.0,0.0,0.0,15335,11906,10037,28697,34341,3
0.0,0.0,0.0,15350,11906,10026,28726,34412,3
0.0,0.0,0.0,15366,11906,10026,28697,34412,3
0.0,0.0,0.0,15366,11906,10037,28640,34412,3
0.0,0.0,0.0,15335,11906,10026,28640,34271,3
0.0,0.0,0.0,15350,11881,10026,28697,34412,3
0.0,0.0,0.0,15350,11906,10026,28697,34341,3
0.0,0.0,0.0,15335,11906,10037,28640,34412,3
0.0,0.0,0.0,15335,11906,10049,28697,34306,3
0.0,0.0,0.0,15335,11906,10026,28640,34271,3
0.0,0.0,0.0,15335,11932,10037,28640,34341,3
0.0,0.0,0.0,15350,11932,10037,28669,34341,3
0.0,0.0,0.0,15335,11932,10037,28612,34412,3
0.0,0.0,0.0,15304,11906,10049,28640,34271,3
0.0,0.0,0.0,15335,12009,10049,28669,34376,3
0.0,0.0,0.0,15350,12060,10049,28640,34271,3
0.0,0.0,0.0,15335,12137,10071,28640,34306,3
0.0,0.0,0.0,15288,12086,10083,28583,34341,3
0.0,0.0,0.0,15366,12112,10117,28612,34341,3
0.0,0.0,0.0,15319,12112,10071,28583,34271,3
0.0,0.0,0.0,15335,12086,10071,28612,34341,3
0.0,0.0,0.0,15412,12112,10083,28583,34341,3
0.0,0.0,0.0,15366,12073,10083,28583,34341,3
0.0,0.0,0.0,15288,12086,10071,28583,34235,3
0.0,0.0,0.0,15366,12060,10071,28583,34341,3
0.0,0.0,0.0,15335,12060,10071,28583,34165,3
0.0,0.0,0.0,15335,12060,10083,28583,34200,3
0.0,0.0,0.0,15335,12047,10083,28527,34271,3
0.0,0.0,0.0,15335,12021,10083,28498,34200,3
0.0,0.0,0.0,15335,12009,10071,28527,34235,3
0.0,0.0,0.0,15288,12009,10071,28527,34235,3
0.0,0.0,0.0,15319,11957,10071,28527,34235,3
0.0,0.0,0.0,15335,12009,10071,28498,34200,3
0.0,0.0,0.0,15288,12009,10071,28470,34200,3
0.0,0.0,0.0,15350,12009,10071,28498,34200,3
0.0,0.0,0.0,15288,12009,10083,28385,34165,3
0.0,0.0,0.0,15304,11970,10094,28498,34200,3
0.0,0.0,0.0,15288,11970,10094,28498,34060,3
0.0,0.0,0.0,15288,12060,10094,28442,34060,3
0.0,0.0,0.0,15350,12086,10117,28470,34200,3
0.0,0.0,0.0,15288,12112,10094,28470,34026,3
0.0,0.0,0.0,15304,12112,10117,28414,34060,3
0.0,0.0,0.0,15350,12086,10106,28470,34130,3
0.0,0.0,0.0,15335,12112,10117,28470,34130,3
0.0,0.0,0.0,15304,12060,10094,28470,34165,3
0.0,0.0,0.0,15335,12060,10094,28470,34130,3
0.0,0.0,0.0,15335,12073,10117,28414,34026,3
0.0,0.0,0.0,15335,12060,10117,28414,33921,3
0.0,0.0,0.0,15335,12060,10117,28414,34026,3
0.0,0.0,0.0,15428,12047,10117,28357,33991,3
0.0,0.0,0.0,15273,12034,10117,28357,34130,3
0.0,0.0,0.0,15211,12047,10129,28301,34130,3
0.0,0.0,0.0,15196,12034,10117,28357,34130,3
0.0,0.0,0.0,15181,11983,10117,28301,34095,3
0.0,0.0,0.0,15150,12009,10083,28301,33991,3
0.0,0.0,0.0,15119,12021,10117,28329,33921,3
0.0,0.0,0.0,15089,12009,10106,28329,33852,3
0.0,0.0,0.0,15028,12034,10117,28357,33852,3
0.0,0.0,0.0,15058,12021,10117,28385,33852,3
0.0,0.0,0.0,15028,12034,10117,28357,33852,3
0.0,0.0,0.0,15089,12060,10117,28357,33852,3
0.0,0.0,0.0,15043,12034,10117,28357,33783,3
0.0,0.0,0.0,15089,12060,10129,28414,33783,3
0.0,0.0,0.0,15058,12060,10129,28414,33783,3
0.0,0.0,0.0,15028,12034,10140,28385,33783,3
0.0,0.0,0.0,15028,12060,10140,28385,33748,3
0.0,0.0,0.0,15043,12009,10117,28357,33714,3
0.0,0.0,0.0,15028,12086,10071,28357,33645,3
0.0,0.0,0.0,15028,12112,10129,28357,33714,3
0.0,0.0,0.0,15028,12086,10117,28357,33679,3
0.0,0.0,0.0,15028,12086,10117,28357,33714,3
0.0,0.0,0.0,15028,12112,10129,28357,33645,3
0.0,0.0,0.0,15028,12060,10117,28329,33714,3
0.0,0.0,0.0,14997,12112,10140,28301,33645,3
0.0,0.0,0.0,14982,12073,10117,28357,33645,3
0.0,0.0,0.0,14967,12112,10117,28414,33679,3
0.0,0.0,0.0,14982,12086,10129,28329,33679,3
0.0,0.0,0.0,14997,12112,10140,28301,33576,3
0.0,0.0,0.0,14967,12112,10140,28357,33645,3
0.0,0.0,0.0,14997,12086,10117,28357,33576,3
0.0,0.0,0.0,14967,12124,10117,28301,33576,3
0.0,0.0,0.0,14997,12124,10140,28357,33611,3
0.0,0.0,0.0,14967,12112,10140,28357,33714,3
0.0,0.0,0.0,14967,12086,10140,28357,33645,3
0.0,0.0,0.0,14967,12073,10129,28301,33576,3
0.0,0.0,0.0,14967,12112,10117,28301,33645,3
0.0,0.0,0.0,14982,12112,10117,28301,33645,3
0.0,0.0,0.0,14997,12112,10140,28301,33576,3
0.0,0.0,0.0,14982,12086,10140,28301,33508,3
0.0,0.0,0.0,14967,12112,10140,28245,33576,3
0.0,0.0,0.0,14967,12112,10129,28301,33542,3
0.0,0.0,0.0,14967,12112,10140,28301,33679,3
0.0,0.0,0.0,14967,12086,10129,28301,33611,3
0.0,0.0,0.0,14982,12124,10140,28245,33542,3
0.0,0.0,0.0,14997,12086,10129,28301,33576,3
0.0,0.0,0.0,14967,12086,10163,28301,33542,3
0.0,0.0,0.0,14982,12124,10117,28301,33611,3
0.0,0.0,0.0,14952,12112,10129,28245,33508,3
0.0,0.0,0.0,14967,12086,10140,28245,33474,3
0.0,0.0,0.0,14967,12112,10140,28301,33508,3
0.0,0.0,0.0,14982,12124,10140,28301,33542,3
0.0,0.0,0.0,14952,12086,10140,28245,33439,3
0.0,0.0,0.0,14967,12112,10140,28301,33576,3
0.0,0.0,0.0,14922,12112,10140,28301,33611,3
0.0,0.0,0.0,14967,12112,10140,28189,33508,3
0.0,0.0,0.0,14967,12112,10140,28245,33474,3
0.0,0.0,0.0,14967,12124,10129,28217,33508,3
0.0,0.0,0.0,14967,12073,10140,28301,33508,3
0.0,0.0,0.0,14967,12086,10140,28245,33474,3
0.0,0.0,0.0,14967,12086,10140,28161,33371,3
0.0,0.0,0.0,14967,12060,10140,28189,33371,3
0.0,0.0,0.0,14982,12112,10163,28161,33371,3
0.0,0.0,0.0,14967,12073,10140,28245,33439,3
0.0,0.0,0.0,14922,12099,10117,28189,33439,3
0.0,0.0,0.0,14922,12099,10140,28161,33439,3
0.0,0.0,0.0,14967,12086,10140,28133,33439,3
0.0,0.0,0.0,14937,12086,10163,28161,33337,3
0.0,0.0,0.0,14922,12073,10140,28133,33405,3
0.0,0.0,0.0,14967,12124,10140,28133,33303,3
0.0,0.0,0.0,14922,12073,10140,28161,33405,3
0.0,0.0,0.0,14937,12060,10140,28161,33371,3
0.0,0.0,0.0,14937,12086,10163,28133,33371,3
0.0,0.0,0.0,14937,12112,10140,28133,33439,3
0.0,0.0,0.0,14937,12086,10163,28133,33439,3
0.0,0.0,0.0,14952,12112,10163,28105,33337,3
0.0,0.0,0.0,14937,12086,10163,28105,33371,3
0.0,0.0,0.0,14937,12073,10163,28133,33439,3
0.0,0.0,0.0,14967,12086,10140,28105,33371,3
0.0,0.0,0.0,14907,12060,10163,28105,33439,3
0.0,0.0,0.0,14937,12073,10163,28133,33439,3
0.0,0.0,0.0,14937,12060,10152,28133,33371,3
0.0,0.0,0.0,14937,12060,10163,28077,33474,3
0.0,0.0,0.0,14907,12112,10140,28133,33371,3
0.0,0.0,0.0,14937,12060,10163,28105,33405,3
0.0,0.0,0.0,14967,12112,10152,28022,33337,3
0.0,0.0,0.0,14937,12073,10163,28105,33303,3
0.0,0.0,0.0,14967,12073,10140,28133,33439,3
0.0,0.0,0.0,14907,12086,10163,28077,33439,3
0.0,0.0,0.0,14907,12086,10163,28022,33439,3
0.0,0.0,0.0,14937,12073,10163,28049,33371,3
0.0,0.0,0.0,14922,12086,10163,28022,33371,3
0.0,0.0,0.0,14937,12073,10163,28077,33371,3
0.0,0.0,0.0,14937,12073,10163,28022,33405,3
0.0,0.0,0.0,14907,12086,10163,28105,33337,3
0.0,0.0,0.0,14937,12099,10163,28049,33337,3
0.0,0.0,0.0,14922,12060,10163,28077,33303,3
0.0,0.0,0.0,14907,12112,10163,28049,33371,3
0.0,0.0,0.0,14922,12073,10163,28022,33269,3
0.0,0.0,0.0,14907,12060,10163,27939,33371,3
0.0,0.0,0.0,14922,12073,10163,28022,33337,3
0.0,0.0,0.0,14922,12073,10163,28022,33303,3
0.0,0.0,0.0,14907,12086,10163,28049,33303,3
0.0,0.0,0.0,14907,12073,10163,28022,33337,3
0.0,0.0,0.0,14907,12099,10163,27966,33303,3
0.0,0.0,0.0,14891,12073,10163,28022,33236,3
0.0,0.0,0.0,14907,12073,10163,28022,33303,3
0.0,0.0,0.0,14937,12073,10163,27994,33337,3
0.0,0.0,0.0,14846,12060,10163,28022,33269,3
0.0,0.0,0.0,14922,12060,10163,28077,33337,3
0.0,0.0,0.0,14907,12086,10163,27994,33303,3
0.0,0.0,0.0,14907,12073,10174,28022,33236,3
0.0,0.0,0.0,14907,12073,10163,28022,33337,3
0.0,0.0,0.0,14907,12073,10163,28022,33303,3
0.0,0.0,0.0,14907,12086,10163,28105,33303,3
0.0,0.0,0.0,14937,12086,10174,28022,33371,3
0.0,0.0,0.0,14937,12112,10163,27966,33337,3
0.0,0.0,0.0,14891,12086,10163,27939,33236,3
0.0,0.0,0.0,14907,12086,10174,27939,33236,3
0.0,0.0,0.0,14907,12112,10163,27939,33303,3
0.0,0.0,0.0,14907,12086,10163,27939,33236,3
0.0,0.0,0.0,14907,12073,10163,27994,33303,3
0.0,0.0,0.0,14922,12086,10174,27966,33236,3
0.0,0.0,0.0,14907,12086,10163,27966,33236,3
0.0,0.0,0.0,14907,12060,10163,27911,33236,3
0.0,0.0,0.0,14907,12073,10174,27939,33236,3
0.0,0.0,0.0,14907,12073,10163,27966,33337,3
0.0,0.0,0.0,14907,12073,10163,27939,33236,3
0.0,0.0,0.0,14922,12086,10163,27966,33371,3
0.0,0.0,0.0,14907,12124,10174,27939,33236,3
0.0,0.0,0.0,14907,12073,10163,28022,33303,3
0.0,0.0,0.0,14922,12086,10174,27939,33168,3
0.0,0.0,0.0,14922,12073,10174,27939,33168,3
0.0,0.0,0.0,14907,12073,10163,27966,33236,3
0.0,0.0,0.0,14907,12073,10186,27966,33303,3
0.0,0.0,0.0,14891,12086,10186,27939,33269,3
0.0,0.0,0.0,14876,12086,10163,27966,33303,3
0.0,0.0,0.0,14907,12099,10163,27939,33236,3
0.0,0.0,0.0,14876,12086,10174,27966,33236,3
0.0,0.0,0.0,14907,12086,10174,27911,33236,3
0.0,0.0,0.0,14907,12086,10174,27911,33202,3
0.0,0.0,0.0,14907,12086,10209,27966,33168,3
0.0,0.0,0.0,14861,12073,10186,27911,33168,3
0.0,0.0,0.0,14876,12099,10209,27856,33303,3
0.0,0.0,0.0,14907,12073,10209,27939,33202,3
0.0,0.0,0.0,14907,12086,10174,27911,33303,3
0.0,0.0,0.0,14907,12086,10174,27911,33168,3
0.0,0.0,0.0,14876,12112,10186,27911,33202,3
0.0,0.0,0.0,14891,12112,10186,27911,33303,3
0.0,0.0,0.0,14907,12073,10186,27939,33303,3
0.0,0.0,0.0,14876,12073,10174,27911,33236,3
0.0,0.0,0.0,14876,12086,10174,27856,33269,3
0.0,0.0,0.0,14861,12112,10209,27828,33168,3
0.0,0.0,0.0,14846,12112,10186,27856,33202,3
0.0,0.0,0.0,14846,12086,10209,27856,33236,3
0.0,0.0,0.0,14891,12112,10197,27911,33236,3
0.0,0.0,0.0,14876,12086,10197,27911,33236,3
0.0,0.0,0.0,14876,12086,10209,27911,33236,3
0.0,0.0,0.0,14876,12099,10209,27856,33168,3
0.0,0.0,0.0,14891,12086,10186,27911,33236,3
0.0,0.0,0.0,14861,12099,10209,27911,33168,3
0.0,0.0,0.0,14876,12073,10209,27911,33236,3
0.0,0.0,0.0,14846,12112,10186,27856,33202,3
0.0,0.0,0.0,14876,12112,10209,27856,33202,3
0.0,0.0,0.0,14876,12112,10209,27856,33168,3
0.0,0.0,0.0,14876,12112,10209,27856,33100,3
0.0,0.0,0.0,14907,12112,10209,27800,33168,3
0.0,0.0,0.0,14876,12099,10209,27828,33168,3
0.0,0.0,0.0,14846,12099,10209,27828,33202,3
0.0,0.0,0.0,14876,12073,10209,27911,32966,3
0.0,0.0,0.0,14861,12073,10209,27856,32899,3
0.0,0.0,0.0,14876,12086,10209,27800,32899,3
0.0,0.0,0.0,14861,12099,10209,27856,32899,3
0.0,0.0,0.0,14876,12112,10209,27883,32765,3
0.0,0.0,0.0,14846,12086,10209,27828,32799,3
0.0,0.0,0.0,14876,12112,10221,27856,32832,3
0.0,0.0,0.0,14876,12112,10209,27856,32765,3
0.0,0.0,0.0,14876,12073,10209,27856,32832,3
0.0,0.0,0.0,14846,12099,10209,27856,32765,3
0.0,0.0,0.0,14861,12086,10209,27856,32799,3
0.0,0.0,0.0,14876,12112,10221,27800,32765,3
0.0,0.0,0.0,14891,12073,10232,27856,32799,3
0.0,0.0,0.0,14876,12124,10209,27800,32699,3
0.0,0.0,0.0,14907,12086,10232,27800,32765,3
0.0,0.0,0.0,14907,12086,10221,27800,32765,3
0.0,0.0,0.0,14876,12073,10232,27800,32765,3
0.0,0.0,0.0,14846,12099,10209,27691,32832,3
0.0,0.0,0.0,14907,12086,10209,27800,32832,3
0.0,0.0,0.0,14876,12073,10221,27745,32732,3
0.0,0.0,0.0,14861,12073,10209,27718,32666,3
0.0,0.0,0.0,14907,12060,10209,27800,32765,3
0.0,0.0,0.0,14876,12073,10209,27691,32765,3
0.0,0.0,0.0,14907,12021,10209,27745,32699,3
0.0,0.0,0.0,14907,12060,10209,27745,32765,3
0.0,0.0,0.0,14891,12060,10209,27745,32799,3
0.0,0.0,0.0,14876,12034,10209,27718,32765,3
0.0,0.0,0.0,14907,12034,10209,27718,32699,3
0.0,0.0,0.0,14922,12034,10209,27691,32699,3
0.0,0.0,0.0,14907,12060,10209,27718,32666,3
0.0,0.0,0.0,14876,12073,10209,27691,32699,3
0.0,0.0,0.0,14876,12060,10209,27691,32666,3
0.0,0.0,0.0,14861,12060,10209,27691,32699,3
0.0,0.0,0.0,14907,12060,10209,27745,32732,3
0.0,0.0,0.0,14876,12060,10209,27691,32699,3
0.0,0.0,0.0,14876,12009,10209,27718,32732,3
0.0,0.0,0.0,14907,12060,10209,27691,32699,3
0.0,0.0,0.0,14861,12021,10209,27718,32666,3
0.0,0.0,0.0,14876,12060,10209,27745,32699,3
0.0,0.0,0.0,14891,12021,10209,27636,32699,3
0.0,0.0,0.0,14861,12060,10209,27663,32765,3
0.0,0.0,0.0,14861,12034,10209,27691,32832,3
0.0,0.0,0.0,14876,12009,10209,27691,32699,3
0.0,0.0,0.0,14907,12073,10209,27691,32633,3
0.0,0.0,0.0,14876,12060,10209,27691,32699,3
0.0,0.0,0.0,14861,12086,10209,27636,32765,3
0.0,0.0,0.0,14876,12086,10209,27691,32765,3
0.0,0.0,0.0,14876,12060,10209,27691,32732,3
0.0,0.0,0.0,14861,12073,10209,27636,32765,3
0.0,0.0,0.0,14861,12060,10209,27691,32765,3
0.0,0.0,0.0,15028,12009,10232,27691,32765,3
0.0,0.0,0.0,15028,12009,10232,27718,32832,3
0.0,0.0,0.0,15028,12009,10244,27691,32866,3
0.0,0.0,0.0,15074,12009,10255,27636,32832,3
0.0,0.0,0.0,15058,12009,10255,27581,32765,3
0.0,0.0,0.0,15058,12021,10255,27499,32765,3
0.0,0.0,0.0,15058,11983,10255,27499,32832,3
0.0,0.0,0.0,15074,11983,10267,27364,32832,3
0.0,0.0,0.0,15227,11983,10278,27256,32699,3
0.0,0.0,0.0,15537,11944,10255,27364,32832,3
0.0,0.0,0.0,15773,11957,10255,27364,32799,3
0.0,0.0,0.0,15996,11957,10267,27472,32699,3
0.0,0.0,0.0,16093,11957,10267,27472,32765,3
0.0,0.0,0.0,16303,11919,10278,27499,32633,3
0.0,0.0,0.0,16417,11906,10267,27527,32699,3
0.0,0.0,0.0,16748,11855,10255,27691,32599,3
0.0,0.0,0.0,17101,11804,10267,27745,32533,3
0.0,0.0,0.0,16898,11830,10255,27745,32666,3
0.0,0.0,0.0,16815,11830,10267,27800,32599,3
0.0,0.0,0.0,16781,11804,10244,27800,32633,3
0.0,0.0,0.0,16698,11817,10255,27745,32566,3
0.0,0.0,0.0,16698,11830,10255,27828,32599,3
0.0,0.0,0.0,16681,11817,10255,27828,32599,3
0.0,0.0,0.0,16648,11830,10255,27828,32500,3
0.0,0.0,0.0,16648,11817,10255,27856,32599,3
0.0,0.0,0.0,16648,11804,10255,27911,32633,3
0.0,0.0,0.0,16648,11804,10255,27939,32566,3
0.0,0.0,0.0,16598,11817,10255,27883,32500,3
0.0,0.0,0.0,16582,11804,10255,28022,32500,3
0.0,0.0,0.0,16582,11804,10255,27939,32633,3
0.0,0.0,0.0,16582,11804,10255,27911,32566,3
0.0,0.0,0.0,16565,11792,10255,27939,32566,3
0.0,0.0,0.0,16549,11804,10255,27966,32533,3
0.0,0.0,0.0,16499,11779,10255,27966,32500,3
0.0,0.0,0.0,16516,11766,10255,28022,32500,3
0.0,0.0,0.0,16483,11804,10267,27911,32435,3
0.0,0.0,0.0,16516,11804,10244,27966,32500,3
0.0,0.0,0.0,16483,11804,10255,27939,32500,3
0.0,0.0,0.0,16467,11817,10255,27911,32500,3
0.0,0.0,0.0,16450,11766,10255,27939,32533,3
0.0,0.0,0.0,16417,11817,10255,27939,32369,3
0.0,0.0,0.0,16417,11804,10255,27939,32500,3
0.0,0.0,0.0,16352,11804,10232,27966,32500,3
0.0,0.0,0.0,16287,11804,10255,27966,32435,3
0.0,0.0,0.0,16222,11754,10232,27994,32500,3
0.0,0.0,0.0,16206,11804,10232,28022,32369,3
0.0,0.0,0.0,16157,11804,10244,27966,32500,3
0.0,0.0,0.0,16093,11817,10255,27966,32500,3
0.0,0.0,0.0,15996,11817,10232,27911,32566,3
0.0,0.0,0.0,15837,11817,10255,27856,32500,3
0.0,0.0,0.0,15773,11804,10232,27911,32599,3
0.0,0.0,0.0,15663,11868,10232,27800,32500,3
0.0,0.0,0.0,15584,11830,10255,27856,32599,3
0.0,0.0,0.0,15490,11881,10232,27883,32566,3
0.0,0.0,0.0,15428,11855,10232,27828,32566,3
0.0,0.0,0.0,15412,11906,10255,27828,32566,3
0.0,0.0,0.0,15412,11881,10232,27800,32500,3
0.0,0.0,0.0,15412,11868,10255,27800,32500,3
0.0,0.0,0.0,15428,11881,10232,27800,32500,3
0.0,0.0,0.0,15428,11855,10209,27800,32533,3
0.0,0.0,0.0,15397,11868,10255,27745,32599,3
0.0,0.0,0.0,15428,11906,10255,27718,32500,3
0.0,0.0,0.0,15459,11855,10244,27745,32533,3
0.0,0.0,0.0,15412,11881,10255,27745,32633,3
0.0,0.0,0.0,15459,11868,10255,27800,32566,3
0.0,0.0,0.0,15459,11881,10255,27691,32500,3
0.0,0.0,0.0,15459,11906,10232,27800,32566,3
0.0,0.0,0.0,15490,11868,10255,27745,32566,3
0.0,0.0,0.0,15490,11868,10255,27745,32500,3
0.0,0.0,0.0,15475,11893,10255,27691,32566,3
0.0,0.0,0.0,15490,11906,10255,27718,32566,3
0.0,0.0,0.0,15475,11855,10255,27800,32533,3
0.0,0.0,0.0,15490,11868,10255,27745,32533,3
0.0,0.0,0.0,15475,11881,10255,27718,32533,3
0.0,0.0,0.0,15475,11855,10255,27800,32533,3
0.0,0.0,0.0,15459,11855,10255,27745,32566,3
0.0,0.0,0.0,15475,11868,10255,27745,32599,3
0.0,0.0,0.0,15490,11906,10255,27745,32566,3
0.0,0.0,0.0,15490,11881,10255,27800,32566,3
0.0,0.0,0.0,15521,11919,10255,27745,32533,3
0.0,0.0,0.0,15490,11868,10255,27800,32533,3
0.0,0.0,0.0,15459,11855,10255,27773,32500,3
0.0,0.0,0.0,15490,11906,10267,27718,32533,3
0.0,0.0,0.0,15459,11881,10255,27745,32500,3
0.0,0.0,0.0,15521,11906,10255,27800,32599,3
0.0,0.0,0.0,15459,11881,10267,27745,32566,3
0.0,0.0,0.0,15459,11906,10267,27800,32533,3
0.0,0.0,0.0,15475,11906,10267,27800,32500,3
0.0,0.0,0.0,15459,11881,10278,27745,32500,3
0.0,0.0,0.0,15490,11906,10278,27745,32533,3
0.0,0.0,0.0,15475,11881,10267,27773,32533,3
0.0,0.0,0.0,15459,11893,10267,27800,32566,3
0.0,0.0,0.0,15459,11881,10278,27800,32566,3
0.0,0.0,0.0,15459,11906,10267,27800,32566,3
0.0,0.0,0.0,15459,11881,10255,27773,32533,3
0.0,0.0,0.0,15428,11881,10267,27800,32500,3
0.0,0.0,0.0,15443,11893,10278,27800,32533,3
0.0,0.0,0.0,15412,11919,10255,27800,32633,3
0.0,0.0,0.0,15412,11881,10267,27800,32566,3
0.0,0.0,0.0,15443,11906,10278,27773,32533,3
0.0,0.0,0.0,15459,11893,10267,27800,32566,3
0.0,0.0,0.0,15475,11919,10267,27745,32435,3
0.0,0.0,0.0,15459,11855,10278,27828,32533,3
0.0,0.0,0.0,15459,11906,10278,27800,32500,3
0.0,0.0,0.0,15459,11906,10255,27800,32599,3
0.0,0.0,0.0,15459,11906,10301,27800,32500,3
0.0,0.0,0.0,15412,11906,10278,27828,32500,3
0.0,0.0,0.0,15428,11906,10278,27800,32533,3
0.0,0.0,0.0,15459,11881,10278,27718,32566,3
0.0,0.0,0.0,15397,11881,10290,27800,32566,3
0.0,0.0,0.0,15397,11868,10278,27773,32566,3
0.0,0.0,0.0,15443,11932,10278,27745,32500,3
0.0,0.0,0.0,15397,11906,10278,27718,32500,3
0.0,0.0,0.0,15443,11906,10278,27745,32533,3
0.0,0.0,0.0,15443,11906,10290,27745,32533,3
0.0,0.0,0.0,15459,11932,10301,27773,32500,3
0.0,0.0,0.0,15397,11919,10278,27691,32500,3
0.0,0.0,0.0,15428,11906,10278,27745,32467,3
0.0,0.0,0.0,15397,11881,10301,27773,32566,3
0.0,0.0,0.0,15397,11932,10301,27691,32599,3
0.0,0.0,0.0,15381,11919,10278,27745,32500,3
0.0,0.0,0.0,15397,11881,10278,27745,32566,3
0.0,0.0,0.0,15397,11919,10278,27800,32566,3
0.0,0.0,0.0,15397,11906,10301,27745,32500,3
0.0,0.0,0.0,15397,11868,10301,27718,32500,3
0.0,0.0,0.0,15412,11906,10301,27718,32500,3
0.0,0.0,0.0,15397,11906,10278,27691,32500,3
0.0,0.0,0.0,15397,11906,10301,27718,32533,3
0.0,0.0,0.0,15397,11868,10301,27718,32566,3
0.0,0.0,0.0,15397,11906,10301,27691,32500,3
0.0,0.0,0.0,15397,11906,10301,27691,32533,3
0.0,0.0,0.0,15366,11906,10301,27691,32533,3
0.0,0.0,0.0,15397,11906,10301,27718,32500,3
0.0,0.0,0.0,15397,11906,10301,27691,32500,3
0.0,0.0,0.0,15397,11868,10301,27691,32566,3
0.0,0.0,0.0,15397,11893,10301,27718,32533,3
0.0,0.0,0.0,15397,11932,10301,27718,32566,3
0.0,0.0,0.0,15412,11906,10278,27745,32500,3
0.0,0.0,0.0,15428,11906,10301,27745,32500,3
0.0,0.0,0.0,15412,11906,10301,27745,32500,3
0.0,0.0,0.0,15459,11906,10301,27745,32533,3
0.0,0.0,0.0,15537,11906,10301,27745,32633,3
0.0,0.0,0.0,15584,11957,10301,27745,32500,3
0.0,0.0,0.0,15584,11996,10301,27745,32633,3
0.0,0.0,0.0,15600,12034,10301,27800,32666,3
0.0,0.0,0.0,15647,12034,10301,27828,32633,3
0.0,0.0,0.0,15710,12034,10301,27911,32666,3
0.0,0.0,0.0,15757,12034,10301,27966,32699,3
0.0,0.0,0.0,15789,12060,10325,27966,32699,3
0.0,0.0,0.0,15852,12060,10325,28077,32799,3
0.0,0.0,0.0,15868,12086,10325,28161,32832,3
0.0,0.0,0.0,15964,12099,10359,28245,32832,3
0.0,0.0,0.0,15980,12137,10348,28189,32899,3
0.0,0.0,0.0,15964,12124,10371,28189,32899,3
0.0,0.0,0.0,15964,12112,10359,28133,32966,3
0.0,0.0,0.0,15900,12163,10359,28077,33033,3
0.0,0.0,0.0,15932,12124,10371,28022,32899,3
0.0,0.0,0.0,15884,12163,10371,27994,32999,3
0.0,0.0,0.0,15868,12163,10348,27966,32932,3
0.0,0.0,0.0,15868,12163,10359,27911,32899,3
0.0,0.0,0.0,15868,12137,10371,27911,32899,3
0.0,0.0,0.0,15837,12124,10348,27828,32899,3
0.0,0.0,0.0,15789,12112,10359,27828,32932,3
0.0,0.0,0.0,15789,12112,10383,27856,32932,3
0.0,0.0,0.0,15773,12086,10394,27800,32899,3
0.0,0.0,0.0,15789,12073,10394,27828,32899,3
0.0,0.0,0.0,15773,12086,10371,27745,32832,3
0.0,0.0,0.0,15773,12112,10359,27745,32832,3
0.0,0.0,0.0,15741,12124,10348,27745,32966,3
0.0,0.0,0.0,15710,12073,10394,27745,32932,3
0.0,0.0,0.0,15741,12073,10371,27800,32899,3
0.0,0.0,0.0,15773,12073,10371,27745,32932,3
0.0,0.0,0.0,15773,12086,10371,27691,32899,3
0.0,0.0,0.0,15710,12112,10394,27745,32966,3
0.0,0.0,0.0,15726,12112,10383,27691,32899,3
0.0,0.0,0.0,15726,12073,10371,27745,32932,3
0.0,0.0,0.0,15726,12073,10371,27745,32899,3
0.0,0.0,0.0,15741,12086,10359,27691,32832,3
0.0,0.0,0.0,15741,12086,10371,27691,32899,3
0.0,0.0,0.0,15710,12073,10371,27636,32799,3
0.0,0.0,0.0,15741,12073,10371,27636,32899,3
0.0,0.0,0.0,15726,12060,10371,27636,32799,3
0.0,0.0,0.0,15710,12060,10371,27691,32765,3
0.0,0.0,0.0,15710,12112,10348,27581,32832,3
0.0,0.0,0.0,15710,12086,10371,27691,32832,3
0.0,0.0,0.0,15726,12073,10394,27609,32799,3
0.0,0.0,0.0,15710,12060,10371,27636,32866,3
0.0,0.0,0.0,15694,12060,10359,27636,32799,3
0.0,0.0,0.0,15710,12060,10359,27636,32832,3
0.0,0.0,0.0,15678,12086,10371,27636,32799,3
0.0,0.0,0.0,15694,12073,10371,27663,32832,3
0.0,0.0,0.0,15694,12073,10371,27636,32799,3
0.0,0.0,0.0,15694,12086,10371,27636,32832,3
0.0,0.0,0.0,15678,12073,10371,27636,32832,3
0.0,0.0,0.0,15647,12073,10394,27581,32899,3
0.0,0.0,0.0,15663,12099,10371,27609,32832,3
0.0,0.0,0.0,15647,12086,10359,27581,32866,3
0.0,0.0,0.0,15647,12112,10371,27554,32832,3
0.0,0.0,0.0,15647,12086,10371,27609,32832,3
0.0,0.0,0.0,15647,12073,10394,27581,32899,3
0.0,0.0,0.0,15647,12086,10371,27609,32765,3
0.0,0.0,0.0,15663,12073,10348,27581,32899,3
0.0,0.0,0.0,15647,12060,10371,27581,32866,3
0.0,0.0,0.0,15647,12060,10371,27581,32899,3
0.0,0.0,0.0,15663,12099,10371,27581,32866,3
0.0,0.0,0.0,15631,12073,10371,27609,32899,3
0.0,0.0,0.0,15663,12112,10371,27581,32899,3
0.0,0.0,0.0,15615,12060,10371,27581,32866,3
0.0,0.0,0.0,15647,12086,10394,27581,32899,3
0.0,0.0,0.0,15647,12086,10359,27581,32866,3
0.0,0.0,0.0,15631,12086,10371,27581,32799,3
0.0,0.0,0.0,15600,12073,10371,27581,32765,3
0.0,0.0,0.0,15647,12073,10394,27609,32832,3
0.0,0.0,0.0,15631,12073,10371,27581,32765,3
0.0,0.0,0.0,15600,12112,10394,27581,32899,3
0.0,0.0,0.0,15631,12073,10371,27554,32832,3
0.0,0.0,0.0,15631,12099,10371,27527,32765,3
0.0,0.0,0.0,15584,12086,10383,27581,32832,3
0.0,0.0,0.0,15600,12073,10371,27581,32799,3
0.0,0.0,0.0,15600,12073,10371,27581,32799,3
0.0,0.0,0.0,15647,12099,10371,27499,32765,3
0.0,0.0,0.0,15584,12099,10371,27554,32832,3
0.0,0.0,0.0,15568,12060,10371,27527,32799,3
0.0,0.0,0.0,15584,12060,10371,27581,32765,3
0.0,0.0,0.0,15584,12060,10394,27581,32832,3
0.0,0.0,0.0,15600,12112,10371,27527,32765,3
0.0,0.0,0.0,15615,12073,10371,27472,32832,3
0.0,0.0,0.0,15584,12034,10371,27581,32899,3
0.0,0.0,0.0,15584,12073,10371,27581,32799,3
0.0,0.0,0.0,15584,12060,10394,27581,32832,3
0.0,0.0,0.0,15584,12112,10371,27499,32899,3
0.0,0.0,0.0,15584,12073,10359,27527,32832,3
0.0,0.0,0.0,15584,12073,10371,27581,32799,3
0.0,0.0,0.0,15615,12086,10371,27527,32799,3
0.0,0.0,0.0,15584,12073,10371,27472,32832,3
0.0,0.0,0.0,15600,12086,10394,27527,32799,3
0.0,0.0,0.0,15584,12060,10371,27499,32832,3
0.0,0.0,0.0,15584,12060,10394,27527,32866,3
0.0,0.0,0.0,15584,12060,10371,27472,32832,3
0.0,0.0,0.0,15584,12073,10394,27472,32832,3
0.0,0.0,0.0,15568,12086,10371,27527,32765,3
0.0,0.0,0.0,15584,12060,10394,27527,32899,3
0.0,0.0,0.0,15584,12086,10371,27472,32832,3
0.0,0.0,0.0,15600,12086,10371,27499,32832,3
0.0,0.0,0.0,15521,12073,10371,27527,32866,3
0.0,0.0,0.0,15584,12099,10371,27472,32799,3
0.0,0.0,0.0,15584,12060,10371,27472,32765,3
0.0,0.0,0.0,15584,12112,10394,27472,32699,3
0.0,0.0,0.0,15568,12060,10383,27499,32765,3
0.0,0.0,0.0,15553,12073,10371,27499,32765,3
0.0,0.0,0.0,15537,12060,10394,27418,32799,3
0.0,0.0,0.0,15553,12073,10371,27499,32765,3
0.0,0.0,0.0,15553,12060,10394,27418,32765,3
0.0,0.0,0.0,15584,12060,10394,27472,32699,3
0.0,0.0,0.0,15553,12060,10371,27472,32765,3
0.0,0.0,0.0,15537,12060,10371,27418,32832,3
0.0,0.0,0.0,15584,12086,10371,27418,32799,3
0.0,0.0,0.0,15521,12073,10394,27472,32832,3
0.0,0.0,0.0,15521,12086,10394,27418,32832,3
0.0,0.0,0.0,15521,12073,10394,27418,32699,3
0.0,0.0,0.0,15584,12060,10383,27472,32699,3
0.0,0.0,0.0,15553,12112,10394,27472,32765,3
0.0,0.0,0.0,15537,12112,10359,27418,32765,3
0.0,0.0,0.0,15521,12073,10371,27472,32765,3
0.0,0.0,0.0,15553,12060,10394,27418,32765,3
0.0,0.0,0.0,15521,12086,10371,27472,32832,3
0.0,0.0,0.0,15537,12086,10394,27472,32799,3
0.0,0.0,0.0,15553,12060,10371,27472,32699,3
0.0,0.0,0.0,15490,12060,10394,27472,32765,3
0.0,0.0,0.0,15537,12112,10394,27418,32799,3
0.0,0.0,0.0,15521,12073,10371,27472,32799,3
0.0,0.0,0.0,15521,12099,10394,27418,32732,3
0.0,0.0,0.0,15537,12060,10394,27472,32765,3
0.0,0.0,0.0,15521,12060,10371,27391,32799,3
0.0,0.0,0.0,15537,12060,10394,27391,32765,3
0.0,0.0,0.0,15521,12060,10394,27418,32765,3
0.0,0.0,0.0,15521,12073,10394,27418,32699,3
0.0,0.0,0.0,15521,12034,10394,27391,32765,3
0.0,0.0,0.0,15521,12060,10383,27418,32799,3
0.0,0.0,0.0,15553,12060,10371,27445,32799,3
0.0,0.0,0.0,15490,12034,10394,27418,32765,3
0.0,0.0,0.0,15521,12060,10394,27391,32732,3
0.0,0.0,0.0,15521,12060,10394,27418,32799,3
0.0,0.0,0.0,15521,12060,10371,27472,32799,3
0.0,0.0,0.0,15521,12086,10394,27418,32832,3
0.0,0.0,0.0,15490,12060,10371,27445,32765,3
0.0,0.0,0.0,15506,12047,10394,27418,32799,3
0.0,0.0,0.0,15537,12060,10394,27472,32832,3
0.0,0.0,0.0,15475,12060,10371,27418,32799,3
0.0,0.0,0.0,15521,12060,10394,27418,32832,3
0.0,0.0,0.0,15521,12021,10383,27418,32799,3
0.0,0.0,0.0,15506,12060,10394,27418,32799,3
0.0,0.0,0.0,15490,12060,10394,27418,32699,3
0.0,0.0,0.0,15459,12060,10325,27418,32765,3
0.0,0.0,0.0,15521,12060,10371,27418,32699,3
0.0,0.0,0.0,15490,12034,10371,27418,32765,3
0.0,0.0,0.0,15490,12060,10383,27445,32832,3
0.0,0.0,0.0,15490,12034,10394,27364,32765,3
0.0,0.0,0.0,15521,12060,10394,27364,32699,3
0.0,0.0,0.0,15490,12021,10383,27418,32765,3
0.0,0.0,0.0,15506,12009,10394,27418,32699,3
0.0,0.0,0.0,15506,12034,10394,27391,32765,3
0.0,0.0,0.0,15490,12034,10394,27364,32699,3
0.0,0.0,0.0,15490,12060,10394,27391,32699,3
0.0,0.0,0.0,15490,12021,10371,27418,32765,3
0.0,0.0,0.0,15521,12034,10383,27391,32732,3
0.0,0.0,0.0,15490,12060,10394,27364,32765,3
0.0,0.0,0.0,15490,12009,10394,27418,32832,3
0.0,0.0,0.0,15475,12034,10394,27418,32699,3
0.0,0.0,0.0,15490,12060,10371,27472,32832,3
0.0,0.0,0.0,15506,12021,10394,27364,32765,3
0.0,0.0,0.0,15475,12034,10394,27418,32832,3
0.0,0.0,0.0,15521,12047,10371,27364,32765,3
0.0,0.0,0.0,15506,12034,10394,27418,32765,3
0.0,0.0,0.0,15521,12021,10394,27364,32832,3
0.0,0.0,0.0,15490,12021,10394,27391,32699,3
0.0,0.0,0.0,15475,12021,10371,27391,32765,3
0.0,0.0,0.0,15521,12034,10394,27364,32799,3
0.0,0.0,0.0,15490,12047,10371,27364,32799,3
0.0,0.0,0.0,15506,12047,10394,27310,32765,3
0.0,0.0,0.0,15490,12034,10394,27364,32732,3
0.0,0.0,0.0,15521,12021,10371,27364,32765,3
0.0,0.0,0.0,15537,12021,10394,27337,32765,3
0.0,0.0,0.0,15584,12009,10394,27391,32765,3
0.0,0.0,0.0,15615,12009,10371,27418,32699,3
0.0,0.0,0.0,15647,12009,10371,27391,32666,3
0.0,0.0,0.0,15678,11957,10348,27364,32599,3
0.0,0.0,0.0,15663,11957,10371,27418,32633,3
0.0,0.0,0.0,15710,11932,10383,27391,32566,3
0.0,0.0,0.0,15726,11957,10371,27364,32633,3
0.0,0.0,0.0,15741,11932,10371,27391,32633,3
0.0,0.0,0.0,15741,11906,10359,27364,32666,3
0.0,0.0,0.0,15773,11881,10348,27337,32666,3
0.0,0.0,0.0,15773,11868,10359,27310,32633,3
0.0,0.0,0.0,15741,11855,10348,27337,32699,3
0.0,0.0,0.0,15710,11868,10359,27310,32666,3
0.0,0.0,0.0,15726,11881,10371,27256,32633,3
0.0,0.0,0.0,15710,11855,10371,27310,32599,3
0.0,0.0,0.0,15678,11855,10371,27256,32599,3
0.0,0.0,0.0,15663,11893,10348,27256,32666,3
0.0,0.0,0.0,15694,11868,10371,27283,32633,3
0.0,0.0,0.0,15710,11881,10348,27256,32633,3
0.0,0.0,0.0,15663,11868,10348,27283,32633,3
0.0,0.0,0.0,15678,11906,10348,27229,32633,3
0.0,0.0,0.0,15678,11881,10348,27256,32633,3
0.0,0.0,0.0,15647,11855,10348,27229,32599,3
0.0,0.0,0.0,15663,11868,10359,27310,32666,3
0.0,0.0,0.0,15678,11881,10348,27283,32699,3
0.0,0.0,0.0,15663,11881,10359,27283,32633,3
0.0,0.0,0.0,15663,11868,10348,27229,32566,3
0.0,0.0,0.0,15647,11855,10359,27256,32633,3
0.0,0.0,0.0,15631,11855,10371,27256,32666,3
0.0,0.0,0.0,15647,11881,10359,27256,32566,3
0.0,0.0,0.0,15647,11703,10359,27202,32566,3
0.0,0.0,0.0,15584,11653,10348,27256,32633,3
0.0,0.0,0.0,15615,11728,10348,27202,32599,3
0.0,0.0,0.0,15600,11957,10348,27202,32599,3
0.0,0.0,0.0,15600,11932,10348,27229,32500,3
0.0,0.0,0.0,15600,12009,10348,27202,32633,3
0.0,0.0,0.0,15584,12163,10348,27256,32633,3
0.0,0.0,0.0,15584,12241,10371,27283,32566,3
0.0,0.0,0.0,15553,12293,10371,27202,32599,3
0.0,0.0,0.0,15584,12241,10348,27202,32633,3
0.0,0.0,0.0,15537,12241,10371,27202,32633,3
0.0,0.0,0.0,15537,12215,10359,27202,32599,3
0.0,0.0,0.0,15521,12189,10371,27175,32599,3
0.0,0.0,0.0,15490,12124,10371,27202,32633,3
0.0,0.0,0.0,15459,12086,10394,27175,32666,3
0.0,0.0,0.0,15428,12060,10371,27310,32666,3
0.0,0.0,0.0,15412,12009,10371,27256,32566,3
0.0,0.0,0.0,15397,11957,10359,27202,32633,3
0.0,0.0,0.0,15397,11830,10394,27229,32566,3
0.0,0.0,0.0,15397,11779,10371,27229,32566,3
0.0,0.0,0.0,15366,11804,10359,27256,32566,3
0.0,0.0,0.0,15366,11792,10371,27283,32633,3
0.0,0.0,0.0,15366,11804,10359,27256,32633,3
0.0,0.0,0.0,15397,11804,10359,27148,32599,3
0.0,0.0,0.0,15335,11804,10371,27256,32633,3
0.0,0.0,0.0,15381,11817,10348,27202,32633,3
0.0,0.0,0.0,15366,11817,10371,27256,32599,3
0.0,0.0,0.0,15350,11804,10359,27202,32633,3
0.0,0.0,0.0,15366,11779,10371,27256,32666,3
0.0,0.0,0.0,15366,11804,10371,27202,32633,3
0.0,0.0,0.0,15366,11804,10371,27202,32566,3
0.0,0.0,0.0,15381,11804,10371,27202,32599,3
0.0,0.0,0.0,15397,11830,10371,27202,32633,3
0.0,0.0,0.0,15397,11804,10359,27148,32566,3
0.0,0.0,0.0,15397,11804,10359,27148,32666,3
0.0,0.0,0.0,15350,11817,10359,27202,32566,3
0.0,0.0,0.0,15350,11804,10371,27148,32633,3
0.0,0.0,0.0,15397,11817,10371,27175,32566,3
0.0,0.0,0.0,15350,11804,10371,27122,32633,3
0.0,0.0,0.0,15397,11830,10371,27148,32566,3
0.0,0.0,0.0,15350,11817,10371,27175,32633,3
0.0,0.0,0.0,15397,11830,10348,27148,32533,3
0.0,0.0,0.0,15397,11804,10371,27148,32566,3
0.0,0.0,0.0,15366,11804,10371,27148,32566,3
0.0,0.0,0.0,15350,11830,10371,27175,32666,3
0.0,0.0,0.0,15350,11855,10348,27095,32533,3
0.0,0.0,0.0,15350,11817,10359,27175,32633,3
0.0,0.0,0.0,15335,11804,10359,27148,32633,3
0.0,0.0,0.0,15335,11817,10348,27148,32633,3
0.0,0.0,0.0,15335,11804,10371,27148,32699,3
0.0,0.0,0.0,15335,11804,10348,27095,32633,3
0.0,0.0,0.0,15335,11804,10359,27148,32599,3
0.0,0.0,0.0,15366,11804,10371,27148,32533,3
0.0,0.0,0.0,15335,11830,10371,27175,32633,3
0.0,0.0,0.0,15335,11779,10383,27175,32666,3
0.0,0.0,0.0,15335,11855,10348,27175,32566,3
0.0,0.0,0.0,15397,11830,10359,27148,32666,3
0.0,0.0,0.0,15350,11804,10348,27095,32533,3
0.0,0.0,0.0,15335,11804,10371,27095,32633,3
0.0,0.0,0.0,15335,11817,10371,27148,32533,3
0.0,0.0,0.0,15366,11804,10348,27175,32599,3
0.0,0.0,0.0,15335,11830,10371,27122,32566,3
0.0,0.0,0.0,15335,11817,10371,27122,32633,3
0.0,0.0,0.0,15288,11855,10348,27148,32633,3
0.0,0.0,0.0,15335,11817,10359,27148,32666,3
0.0,0.0,0.0,15366,11817,10371,27095,32566,3
0.0,0.0,0.0,15335,11817,10371,27095,32633,3
0.0,0.0,0.0,15335,11804,10383,27148,32633,3
0.0,0.0,0.0,15319,11804,10371,27202,32566,3
0.0,0.0,0.0,15304,11804,10359,27148,32599,3
0.0,0.0,0.0,15288,11804,10348,27148,32666,3
0.0,0.0,0.0,15335,11817,10371,27148,32633,3
0.0,0.0,0.0,15335,11804,10371,27148,32566,3
0.0,0.0,0.0,15288,11804,10371,27148,32633,3
0.0,0.0,0.0,15288,11830,10359,27122,32633,3
0.0,0.0,0.0,15335,11804,10348,27122,32566,3
0.0,0.0,0.0,15288,11817,10359,27095,32500,3
0.0,0.0,0.0,15304,11817,10348,27095,32566,3
0.0,0.0,0.0,15319,11804,10371,27122,32633,3
0.0,0.0,0.0,15304,11804,10359,27122,32566,3
0.0,0.0,0.0,15288,11830,10359,27095,32566,3
0.0,0.0,0.0,15335,11817,10348,27095,32566,3
0.0,0.0,0.0,15335,11855,10371,27041,32599,3
0.0,0.0,0.0,15273,11804,10359,27095,32633,3
0.0,0.0,0.0,15288,11817,10371,27095,32666,3
0.0,0.0,0.0,15335,11817,10371,27068,32566,3
0.0,0.0,0.0,15288,11804,10371,27095,32666,3
0.0,0.0,0.0,15288,11830,10371,27095,32599,3
0.0,0.0,0.0,15304,11817,10359,27095,32467,3
0.0,0.0,0.0,15304,11817,10371,27148,32633,3
0.0,0.0,0.0,15288,11817,10371,27095,32533,3
0.0,0.0,0.0,15288,11804,10371,27095,32566,3
0.0,0.0,0.0,15304,11817,10359,27148,32599,3
0.0,0.0,0.0,15288,11804,10371,27068,32533,3
0.0,0.0,0.0,15288,11792,10371,27095,32599,3
0.0,0.0,0.0,15288,11804,10371,27122,32599,3
0.0,0.0,0.0,15288,11817,10371,27122,32500,3
0.0,0.0,0.0,15273,11804,10359,27148,32633,3
0.0,0.0,0.0,15273,11817,10371,27095,32500,3
0.0,0.0,0.0,15288,11817,10371,27095,32566,3
0.0,0.0,0.0,15273,11817,10371,27068,32566,3
0.0,0.0,0.0,15288,11804,10348,27095,32500,3
0.0,0.0,0.0,15288,11817,10371,27095,32566,3
0.0,0.0,0.0,15288,11817,10394,27095,32533,3
0.0,0.0,0.0,15288,11842,10359,27095,32633,3
0.0,0.0,0.0,15288,11830,10371,27095,32633,3
0.0,0.0,0.0,15288,11804,10371,27148,32633,3
0.0,0.0,0.0,15288,11830,10371,27095,32633,3
0.0,0.0,0.0,15273,11817,10371,27095,32566,3
0.0,0.0,0.0,15288,11830,10371,27095,32500,3
0.0,0.0,0.0,15273,11817,10394,27148,32633,3
0.0,0.0,0.0,15288,11804,10371,27148,32599,3
0.0,0.0,0.0,15273,11855,10371,27068,32566,3
0.0,0.0,0.0,15304,11804,10371,27122,32500,3
0.0,0.0,0.0,15288,11804,10371,27095,32500,3
0.0,0.0,0.0,15273,11792,10359,27095,32566,3
0.0,0.0,0.0,15273,11830,10371,27041,32500,3
0.0,0.0,0.0,15273,11817,10371,27095,32500,3
0.0,0.0,0.0,15273,11804,10371,27068,32500,3
0.0,0.0,0.0,15288,11804,10371,27041,32533,3
0.0,0.0,0.0,15288,11804,10371,27041,32500,3
0.0,0.0,0.0,15304,11804,10371,27095,32533,3
0.0,0.0,0.0,15288,11804,10359,27041,32500,3
0.0,0.0,0.0,15288,11804,10371,27068,32500,3
0.0,0.0,0.0,15242,11792,10359,27095,32633,3
0.0,0.0,0.0,15273,11804,10359,27148,32599,3
0.0,0.0,0.0,15273,11779,10359,27095,32566,3
0.0,0.0,0.0,15273,11804,10348,27041,32566,3
0.0,0.0,0.0,15288,11792,10371,27068,32500,3
0.0,0.0,0.0,15242,11779,10371,27041,32533,3
0.0,0.0,0.0,15288,11779,10371,27095,32435,3
0.0,0.0,0.0,15273,11779,10371,27095,32533,3
0.0,0.0,0.0,15242,11754,10371,27041,32467,3
0.0,0.0,0.0,15258,11754,10348,26988,32500,3
0.0,0.0,0.0,15273,11779,10371,26961,32467,3
0.0,0.0,0.0,15273,11754,10371,27095,32533,3
0.0,0.0,0.0,15242,11766,10371,27095,32566,3
0.0,0.0,0.0,15273,11754,10371,27041,32500,3
0.0,0.0,0.0,15242,11754,10371,27041,32533,3
0.0,0.0,0.0,15227,11779,10359,27015,32533,3
0.0,0.0,0.0,15273,11716,10371,27041,32533,3
0.0,0.0,0.0,15273,11754,10359,27041,32533,3
0.0,0.0,0.0,15258,11754,10348,27041,32435,3
0.0,0.0,0.0,15242,11754,10371,27041,32533,3
0.0,0.0,0.0,15258,11754,10348,27041,32500,3
0.0,0.0,0.0,15242,11754,10348,26988,32500,3
0.0,0.0,0.0,15273,11728,10371,27068,32500,3
0.0,0.0,0.0,15227,11703,10348,27041,32500,3
0.0,0.0,0.0,15258,11703,10359,27041,32533,3
0.0,0.0,0.0,15273,11678,10348,27175,32533,3
0.0,0.0,0.0,15242,11678,10348,26988,32533,3
0.0,0.0,0.0,15242,11678,10336,26988,32500,3
0.0,0.0,0.0,15273,11678,10348,26988,32500,3
0.0,0.0,0.0,15273,11678,10336,26961,32500,3
0.0,0.0,0.0,15258,11653,10348,26935,32533,3
0.0,0.0,0.0,15273,11678,10348,26961,32369,3
0.0,0.0,0.0,15242,11678,10348,26882,32435,3
0.0,0.0,0.0,15227,11653,10348,26935,32435,3
0.0,0.0,0.0,15242,11653,10325,26935,32533,3
0.0,0.0,0.0,15273,11678,10336,26908,32467,3
0.0,0.0,0.0,15258,11678,10348,26935,32500,3
0.0,0.0,0.0,15242,11653,10348,26935,32435,3
0.0,0.0,0.0,15242,11678,10348,26935,32435,3
0.0,0.0,0.0,15242,11653,10348,26935,32402,3
0.0,0.0,0.0,15273,11665,10348,26908,32369,3
0.0,0.0,0.0,15181,11703,10348,26882,32467,3
0.0,0.0,0.0,15273,11691,10325,26935,32402,3
0.0,0.0,0.0,15242,11703,10325,26935,32500,3
0.0,0.0,0.0,15227,11665,10348,26935,32435,3
0.0,0.0,0.0,15258,11665,10325,26882,32402,3
0.0,0.0,0.0,15273,11665,10348,26882,32435,3
0.0,0.0,0.0,15242,11678,10348,26908,32402,3
0.0,0.0,0.0,15242,11691,10348,26935,32402,3
0.0,0.0,0.0,15273,11653,10348,26961,32369,3
0.0,0.0,0.0,15258,11678,10348,26935,32435,3
0.0,0.0,0.0,15227,11665,10325,26908,32435,3
0.0,0.0,0.0,15227,11678,10336,26935,32336,3
0.0,0.0,0.0,15227,11678,10325,26935,32369,3
0.0,0.0,0.0,15227,11678,10336,26935,32369,3
0.0,0.0,0.0,15211,11653,10325,26882,32402,3
0.0,0.0,0.0,15211,11665,10348,26882,32369,3
0.0,0.0,0.0,15242,11665,10325,26855,32402,3
0.0,0.0,0.0,15242,11653,10348,26935,32402,3
0.0,0.0,0.0,15181,11678,10348,26908,32336,3
0.0,0.0,0.0,15242,11640,10348,26882,32402,3
0.0,0.0,0.0,15211,11665,10348,26855,32303,3
0.0,0.0,0.0,15181,11628,10348,26935,32435,3
0.0,0.0,0.0,15211,11640,10348,26882,32369,3
0.0,0.0,0.0,15211,11628,10348,26882,32369,3
0.0,0.0,0.0,15211,11653,10348,26935,32369,3
0.0,0.0,0.0,15211,11653,10313,26882,32435,3
0.0,0.0,0.0,15196,11653,10348,26882,32336,3
0.0,0.0,0.0,15165,11653,10325,26882,32369,3
0.0,0.0,0.0,15211,11628,10336,26855,32238,3
0.0,0.0,0.0,15196,11653,10325,26882,32303,3
0.0,0.0,0.0,15165,11653,10325,26882,32336,3
0.0,0.0,0.0,15181,11628,10348,26882,32369,3
0.0,0.0,0.0,15165,11653,10348,26855,32336,3
0.0,0.0,0.0,15165,11628,10325,26829,32271,3
0.0,0.0,0.0,15211,11653,10336,26829,32238,3
0.0,0.0,0.0,15181,11628,10348,26882,32303,3
0.0,0.0,0.0,15181,11653,10348,26829,32303,3
0.0,0.0,0.0,15165,11653,10348,26829,32336,3
0.0,0.0,0.0,15181,11615,10325,26829,32303,3
0.0,0.0,0.0,15181,11653,10348,26882,32303,3
0.0,0.0,0.0,15165,11653,10348,26882,32369,3
0.0,0.0,0.0,15211,11653,10325,26882,32336,3
0.0,0.0,0.0,15165,11653,10336,26855,32369,3
0.0,0.0,0.0,15135,11653,10348,26882,32369,3
0.0,0.0,0.0,15181,11615,10348,26855,32303,3
0.0,0.0,0.0,15165,11653,10325,26855,32238,3
0.0,0.0,0.0,15181,11653,10348,26855,32303,3
0.0,0.0,0.0,15196,11653,10348,26882,32271,3
0.0,0.0,0.0,15181,11653,10325,26855,32303,3
0.0,0.0,0.0,15211,11653,10348,26855,32303,3
0.0,0.0,0.0,15119,11640,10325,26882,32303,3
0.0,0.0,0.0,15150,11653,10325,26776,32238,3
0.0,0.0,0.0,15181,11653,10348,26829,32303,3
0.0,0.0,0.0,15165,11640,10336,26829,32303,3
0.0,0.0,0.0,15150,11640,10325,26829,32303,3
0.0,0.0,0.0,15165,11653,10325,26829,32271,3
0.0,0.0,0.0,15150,11640,10348,26882,32369,3
0.0,0.0,0.0,15165,11628,10325,26829,32369,3
0.0,0.0,0.0,15165,11615,10348,26855,32303,3
0.0,0.0,0.0,15181,11603,10348,26829,32271,3
0.0,0.0,0.0,15196,11628,10348,26855,32369,3
0.0,0.0,0.0,15165,11603,10325,26855,32303,3
0.0,0.0,0.0,15181,11628,10348,26855,32271,3
0.0,0.0,0.0,15181,11578,10359,26882,32303,3
0.0,0.0,0.0,15165,11615,10348,26829,32303,3
0.0,0.0,0.0,15150,11603,10348,26882,32303,3
0.0,0.0,0.0,15165,11603,10336,26829,32238,3
0.0,0.0,0.0,15181,11615,10348,26829,32303,3
0.0,0.0,0.0,15165,11615,10336,26855,32238,3
0.0,0.0,0.0,15150,11603,10348,26855,32369,3
0.0,0.0,0.0,15150,11628,10348,26829,32238,3
0.0,0.0,0.0,15150,11578,10348,26855,32369,3
0.0,0.0,0.0,15150,11615,10336,26829,32303,3
0.0,0.0,0.0,15150,11603,10348,26829,32336,3
0.0,0.0,0.0,15150,11603,10336,26935,32303,3
0.0,0.0,0.0,15150,11628,10348,26829,32271,3
0.0,0.0,0.0,15150,11603,10348,26882,32238,3
0.0,0.0,0.0,15150,11603,10348,26829,32238,3
0.0,0.0,0.0,15135,11603,10336,26829,32303,3
0.0,0.0,0.0,15150,11615,10348,26855,32238,3
0.0,0.0,0.0,15150,11603,10325,26882,32271,3
0.0,0.0,0.0,15165,11628,10348,26855,32271,3
0.0,0.0,0.0,15150,11628,10325,26829,32271,3
0.0,0.0,0.0,15150,11603,10348,26776,32205,3
0.0,0.0,0.0,15150,11603,10336,26855,32271,3
0.0,0.0,0.0,15165,11653,10325,26829,32303,3
0.0,0.0,0.0,15150,11603,10336,26829,32303,3
0.0,0.0,0.0,15150,11603,10325,26829,32271,3
0.0,0.0,0.0,15150,11615,10336,26829,32369,3
0.0,0.0,0.0,15150,11628,10313,26829,32238,3
0.0,0.0,0.0,15119,11603,10348,26855,32271,3
0.0,0.0,0.0,15150,11615,10325,26829,32205,3
0.0,0.0,0.0,15150,11615,10348,26829,32238,3
0.0,0.0,0.0,15150,11603,10348,26802,32238,3
0.0,0.0,0.0,15119,11603,10348,26776,32238,3
0.0,0.0,0.0,15119,11578,10325,26829,32238,3
0.0,0.0,0.0,15104,11590,10348,26829,32303,3
0.0,0.0,0.0,15150,11578,10348,26802,32238,3
0.0,0.0,0.0,15104,11603,10348,26829,32238,3
0.0,0.0,0.0,15150,11603,10348,26829,32173,3
0.0,0.0,0.0,15119,11565,10348,26829,32238,3
0.0,0.0,0.0,15119,11565,10348,26829,32238,3
0.0,0.0,0.0,15150,11553,10348,26802,32173,3
0.0,0.0,0.0,15089,11578,10348,26670,32238,3
0.0,0.0,0.0,15089,11603,10348,26829,32238,3
0.0,0.0,0.0,15119,11615,10348,26776,32238,3
0.0,0.0,0.0,15119,11603,10325,26829,32173,3
0.0,0.0,0.0,15119,11603,10348,26776,32173,3
0.0,0.0,0.0,15104,11578,10348,26829,32271,3
0.0,0.0,0.0,15150,11615,10336,26829,32303,3
0.0,0.0,0.0,15119,11603,10325,26776,32271,3
0.0,0.0,0.0,15104,11578,10348,26802,32238,3
0.0,0.0,0.0,15104,11603,10348,26829,32271,3
0.0,0.0,0.0,15165,11603,10348,26749,32173,3
0.0,0.0,0.0,15165,11603,10348,26829,32140,3
0.0,0.0,0.0,15242,11590,10348,26697,31978,3
0.0,0.0,0.0,15211,11565,10348,26670,31978,3
0.0,0.0,0.0,15211,11578,10348,26670,31946,3
0.0,0.0,0.0,15227,11578,10348,26644,31978,3
0.0,0.0,0.0,15273,11603,10348,26618,31881,3
0.0,0.0,0.0,15335,11603,10348,26670,31849,3
0.0,0.0,0.0,15443,11603,10348,26566,31720,3
0.0,0.0,0.0,15568,11615,10348,26592,31656,3
0.0,0.0,0.0,15600,11603,10348,26487,31656,3
0.0,0.0,0.0,15553,11615,10348,26435,31656,3
0.0,0.0,0.0,15584,11615,10348,26409,31529,3
0.0,0.0,0.0,15584,11628,10359,26409,31593,3
0.0,0.0,0.0,15600,11603,10359,26383,31497,3
0.0,0.0,0.0,15584,11615,10348,26357,31465,3
0.0,0.0,0.0,15584,11615,10359,26357,31465,3
0.0,0.0,0.0,15584,11615,10359,26305,31402,3
0.0,0.0,0.0,15615,11628,10348,26357,31465,3
0.0,0.0,0.0,15663,11615,10359,26305,31402,3
0.0,0.0,0.0,15726,11653,10348,26305,31497,3
0.0,0.0,0.0,15837,11653,10394,26305,31497,3
0.0,0.0,0.0,15868,11665,10371,26305,31529,3
0.0,0.0,0.0,15964,11691,10371,26279,31593,3
0.0,0.0,0.0,16028,11703,10418,26253,31785,3
0.0,0.0,0.0,16060,11728,10418,26253,31849,3
0.0,0.0,0.0,16141,11766,10418,26228,32140,3
0.0,0.0,0.0,16189,11779,10441,26228,31978,3
0.0,0.0,0.0,16254,11804,10441,26202,31849,3
0.0,0.0,0.0,16238,11766,10441,26150,31752,3
0.0,0.0,0.0,16222,11779,10441,26202,31849,3
0.0,0.0,0.0,16222,11804,10441,26202,31817,3
0.0,0.0,0.0,16238,11766,10418,26202,31785,3
0.0,0.0,0.0,16189,11766,10441,26124,31720,3
0.0,0.0,0.0,16222,11779,10441,26150,31752,3
0.0,0.0,0.0,16173,11754,10441,26202,31785,3
0.0,0.0,0.0,16157,11779,10441,26124,31688,3
0.0,0.0,0.0,16141,11754,10441,26150,31656,3
0.0,0.0,0.0,16093,11754,10418,26202,31624,3
0.0,0.0,0.0,16125,11766,10441,26124,31624,3
0.0,0.0,0.0,16093,11766,10429,26202,31624,3
0.0,0.0,0.0,16093,11754,10441,26150,31593,3
0.0,0.0,0.0,16093,11766,10418,26124,31529,3
0.0,0.0,0.0,16076,11766,10418,26099,31529,3
0.0,0.0,0.0,16060,11754,10418,26124,31593,3
0.0,0.0,0.0,16028,11741,10418,26202,31529,3
0.0,0.0,0.0,15964,11754,10418,26150,31465,3
0.0,0.0,0.0,15980,11728,10418,26124,31593,3
0.0,0.0,0.0,15964,11754,10418,26202,31529,3
0.0,0.0,0.0,15964,11728,10418,26176,31497,3
0.0,0.0,0.0,15964,11741,10418,26124,31465,3
0.0,0.0,0.0,15964,11754,10406,26124,31529,3
0.0,0.0,0.0,15932,11754,10418,26124,31497,3
0.0,0.0,0.0,15948,11766,10418,26124,31529,3
0.0,0.0,0.0,15900,11754,10418,26150,31497,3
0.0,0.0,0.0,15916,11754,10441,26124,31561,3
0.0,0.0,0.0,15900,11741,10418,26202,31529,3
0.0,0.0,0.0,15900,11754,10418,26099,31529,3
0.0,0.0,0.0,15900,11754,10394,26124,31497,3
0.0,0.0,0.0,15884,11754,10418,26202,31529,3
0.0,0.0,0.0,15900,11804,10406,26176,31593,3
0.0,0.0,0.0,15900,11754,10429,26150,31465,3
0.0,0.0,0.0,15900,11754,10441,26124,31529,3
0.0,0.0,0.0,15900,11779,10441,26124,31465,3
0.0,0.0,0.0,15916,11741,10441,26150,31529,3
0.0,0.0,0.0,15900,11754,10418,26176,31465,3
0.0,0.0,0.0,15900,11728,10429,26202,31529,3
0.0,0.0,0.0,15852,11754,10418,26202,31465,3
0.0,0.0,0.0,15900,11754,10418,26150,31497,3
0.0,0.0,0.0,15868,11766,10418,26176,31561,3
0.0,0.0,0.0,15916,11728,10406,26202,31497,3
0.0,0.0,0.0,15868,11754,10406,26150,31497,3
0.0,0.0,0.0,15900,11779,10418,26150,31593,3
