GyroX,GyroY,GyroZ,Thumb,Index,Middle,Ring,Pinky,Gesture
0.0,0.0,0.0,17033,23684,22731,32108,39411,0
0.0,0.0,0.0,17067,23684,22709,32108,39411,0
0.0,0.0,0.0,17050,23661,22709,32010,39327,0
0.0,0.0,0.0,17016,23661,22731,32043,39369,0
0.0,0.0,0.0,17016,23661,22687,32108,39327,0
0.0,0.0,0.0,17050,23615,22665,31978,39244,0
0.0,0.0,0.0,17016,23592,22643,31978,39327,0
0.0,0.0,0.0,17067,23615,22709,32043,39244,0
0.0,0.0,0.0,17050,23615,22665,32043,39160,0
0.0,0.0,0.0,17033,23615,22665,31978,39244,0
0.0,0.0,0.0,17033,23569,22665,32010,39160,0
0.0,0.0,0.0,17050,23615,22665,31978,39244,0
0.0,0.0,0.0,16999,23615,22665,31978,39160,0
0.0,0.0,0.0,17016,23592,22754,32010,39036,0
0.0,0.0,0.0,17016,23569,22665,31978,39160,0
0.0,0.0,0.0,17016,23569,22621,31913,39036,0
0.0,0.0,0.0,17050,23569,22665,31913,39077,0
0.0,0.0,0.0,17016,23546,22621,31946,38995,0
0.0,0.0,0.0,17016,23522,22621,31946,39160,0
0.0,0.0,0.0,17016,23615,22665,31913,39077,0
0.0,0.0,0.0,16983,23477,22576,31913,39036,0
0.0,0.0,0.0,17016,23522,22599,31913,39077,0
0.0,0.0,0.0,17016,23569,22599,31913,39077,0
0.0,0.0,0.0,16983,23522,22621,31849,39077,0
0.0,0.0,0.0,16999,23477,22576,31849,39077,0
0.0,0.0,0.0,17016,23522,22576,31881,39036,0
0.0,0.0,0.0,16999,23499,22599,31817,38953,0
0.0,0.0,0.0,16983,23522,22532,31849,38995,0
0.0,0.0,0.0,16983,23477,22599,31913,39119,0
0.0,0.0,0.0,16983,23477,22576,31817,39036,0
0.0,0.0,0.0,16949,23454,22576,31849,38995,0
0.0,0.0,0.0,16966,23522,22576,31849,38912,0
0.0,0.0,0.0,16949,23477,22576,31849,38953,0
0.0,0.0,0.0,16966,23522,22532,31817,38871,0
0.0,0.0,0.0,16966,23454,22576,31849,38830,0
0.0,0.0,0.0,16966,23477,22576,31817,38830,0
0.0,0.0,0.0,16983,23431,22532,31752,38995,0
0.0,0.0,0.0,16966,23431,22576,31785,38912,0
0.0,0.0,0.0,16983,23477,22532,31720,38871,0
0.0,0.0,0.0,16966,23431,22510,31720,38830,0
0.0,0.0,0.0,17016,23431,22510,31849,38830,0
0.0,0.0,0.0,16966,23431,22532,31785,38830,0
0.0,0.0,0.0,16999,23431,22510,31785,38871,0
0.0,0.0,0.0,16983,23431,22488,31752,38830,0
0.0,0.0,0.0,16999,23431,22576,31817,38871,0
0.0,0.0,0.0,16949,23454,22510,31752,38830,0
0.0,0.0,0.0,17016,23431,22488,31720,38912,0
0.0,0.0,0.0,16966,23431,22488,31752,38707,0
0.0,0.0,0.0,16999,23431,22510,31752,38748,0
0.0,0.0,0.0,16966,23431,22466,31720,38789,0
0.0,0.0,0.0,16983,23454,22488,31720,38748,0
0.0,0.0,0.0,16949,23431,22488,31752,38666,0
0.0,0.0,0.0,16949,23431,22510,31656,38748,0
0.0,0.0,0.0,16949,23431,22488,31752,38871,0
0.0,0.0,0.0,16983,23431,22444,31720,38789,0
0.0,0.0,0.0,16966,23431,22466,31720,38830,0
0.0,0.0,0.0,16932,23385,22423,31624,38748,0
0.0,0.0,0.0,16949,23431,22488,31656,38666,0
0.0,0.0,0.0,16949,23431,22488,31720,38707,0
0.0,0.0,0.0,16949,23385,22488,31688,38666,0
0.0,0.0,0.0,16949,23385,22444,31656,38666,0
0.0,0.0,0.0,16983,23339,22488,31656,38748,0
0.0,0.0,0.0,16966,23385,22510,31688,38789,0
0.0,0.0,0.0,16966,23431,22466,31656,38666,0
0.0,0.0,0.0,16949,23431,22444,31656,38748,0
0.0,0.0,0.0,16949,23362,22488,31656,38666,0
0.0,0.0,0.0,16949,23362,22401,31624,38666,0
0.0,0.0,0.0,16949,23385,22423,31593,38585,0
0.0,0.0,0.0,16983,23339,22444,31624,38666,0
0.0,0.0,0.0,16983,23294,22444,31656,38666,0
0.0,0.0,0.0,16949,23316,22401,31593,38503,0
0.0,0.0,0.0,16949,23385,22488,31624,38585,0
0.0,0.0,0.0,16949,23339,22444,31656,38666,0
0.0,0.0,0.0,16983,23362,22444,31624,38585,0
0.0,0.0,0.0,16949,23362,22401,31593,38585,0
0.0,0.0,0.0,16949,23362,22423,31529,38625,0
0.0,0.0,0.0,16966,23294,22423,31624,38625,0
0.0,0.0,0.0,16966,23294,22444,31624,38503,0
0.0,0.0,0.0,16966,23385,22401,31529,38503,0
0.0,0.0,0.0,16966,23316,22423,31593,38585,0
0.0,0.0,0.0,16983,23339,22423,31529,38585,0
0.0,0.0,0.0,16983,23339,22423,31624,38585,0
0.0,0.0,0.0,16966,23316,22423,31624,38585,0
0.0,0.0,0.0,16966,23294,22401,31593,38503,0
0.0,0.0,0.0,16949,23294,22401,31561,38503,0
0.0,0.0,0.0,16949,23294,22357,31593,38463,0
0.0,0.0,0.0,16915,23294,22401,31529,38341,0
0.0,0.0,0.0,16983,23339,22401,31624,38585,0
0.0,0.0,0.0,16949,23316,22401,31593,38422,0
0.0,0.0,0.0,16915,23294,22401,31529,38503,0
0.0,0.0,0.0,16898,23316,22401,31497,38422,0
0.0,0.0,0.0,17033,23294,22401,31593,38544,0
0.0,0.0,0.0,17135,23294,22379,31593,38382,0
0.0,0.0,0.0,17118,23294,22357,31688,38422,0
0.0,0.0,0.0,16932,23294,22379,31785,38341,0
0.0,0.0,0.0,16681,23316,22444,32173,38503,0
0.0,0.0,0.0,16417,23569,22709,32566,38180,0
0.0,0.0,0.0,16549,23661,22887,32599,37543,0
0.0,0.0,0.0,16831,23661,22843,32633,37386,0
0.0,0.0,0.0,17254,23522,22754,32566,38220,0
0.0,0.0,0.0,17289,23477,22621,32699,38871,0
0.0,0.0,0.0,17220,23477,22576,32599,38912,0
0.0,0.0,0.0,17186,23385,22488,32633,38953,0
0.0,0.0,0.0,17152,23339,22444,32533,38912,0
0.0,0.0,0.0,17169,23339,22335,32369,38871,0
0.0,0.0,0.0,17426,23294,22357,32173,38912,0
0.0,0.0,0.0,17461,23362,22335,31913,39578,0
0.0,0.0,0.0,17374,23431,22313,31656,40432,0
0.0,0.0,0.0,17289,23294,22292,31720,40649,0
0.0,0.0,0.0,17169,23294,22292,31624,40562,0
0.0,0.0,0.0,17067,23248,22248,31529,40605,0
0.0,0.0,0.0,16882,23157,22292,31370,40605,0
0.0,0.0,0.0,16549,23112,22313,31276,40605,0
0.0,0.0,0.0,16157,23022,22313,31370,40649,0
0.0,0.0,0.0,15916,23022,22313,31465,40259,0
0.0,0.0,0.0,15710,22977,22248,31529,39832,0
0.0,0.0,0.0,15663,23067,22248,31978,39705,0
0.0,0.0,0.0,15900,23044,22140,32271,39327,0
0.0,0.0,0.0,16125,22955,22161,32238,38912,0
0.0,0.0,0.0,16434,23022,22161,32205,38830,0
0.0,0.0,0.0,16748,23157,22140,32043,38707,0
0.0,0.0,0.0,16898,23135,22118,31849,38995,0
0.0,0.0,0.0,16831,23112,22140,31593,39327,0
0.0,0.0,0.0,16815,23112,22096,31339,39917,0
0.0,0.0,0.0,16815,23067,22053,31213,40002,0
0.0,0.0,0.0,16831,23022,22053,31244,39790,0
0.0,0.0,0.0,16831,23067,22010,31307,39494,0
0.0,0.0,0.0,16831,23044,22010,31593,39202,0
0.0,0.0,0.0,16698,23112,22010,31720,38830,0
0.0,0.0,0.0,16665,23022,22010,31593,38585,0
0.0,0.0,0.0,16582,23022,22010,31624,38503,0
0.0,0.0,0.0,16615,23044,21924,32108,38503,0
0.0,0.0,0.0,16665,23022,22010,31529,38707,0
0.0,0.0,0.0,16748,23067,21946,31849,38748,0
0.0,0.0,0.0,16748,23112,22010,31529,38625,0
0.0,0.0,0.0,16681,23112,22140,31849,38666,0
0.0,0.0,0.0,16615,23135,22183,31913,38503,0
0.0,0.0,0.0,16615,23112,22226,31913,38463,0
0.0,0.0,0.0,16565,23112,22161,31913,38382,0
0.0,0.0,0.0,16532,23067,22183,31849,38422,0
0.0,0.0,0.0,16615,23112,22183,31849,38341,0
0.0,0.0,0.0,16798,23157,22183,31785,38422,0
0.0,0.0,0.0,16781,23203,22183,31529,38666,0
0.0,0.0,0.0,16748,23203,22226,31402,39160,0
0.0,0.0,0.0,16748,23135,22226,31339,39452,0
0.0,0.0,0.0,16748,23112,22183,31307,39327,0
0.0,0.0,0.0,16748,23112,22140,31339,38995,0
0.0,0.0,0.0,16748,23112,22161,31465,38748,0
0.0,0.0,0.0,16748,23044,22140,31561,38585,0
0.0,0.0,0.0,16715,23022,22053,31529,38503,0
0.0,0.0,0.0,16748,23067,22053,31497,38341,0
0.0,0.0,0.0,16681,22999,22053,31465,38341,0
0.0,0.0,0.0,16681,22999,22053,31402,38341,0
0.0,0.0,0.0,16632,22977,22075,31434,38341,0
0.0,0.0,0.0,16582,22932,22053,31339,38341,0
0.0,0.0,0.0,16615,22932,22140,31339,38382,0
0.0,0.0,0.0,16499,22955,22401,31529,38585,0
0.0,0.0,0.0,16352,22843,22576,31624,38544,0
0.0,0.0,0.0,16549,22887,22754,31656,38544,0
0.0,0.0,0.0,17016,22798,22709,31465,38422,0
0.0,0.0,0.0,17152,22820,22754,31402,38341,0
0.0,0.0,0.0,17186,22820,22754,31276,38301,0
0.0,0.0,0.0,17306,22865,22798,31276,38260,0
0.0,0.0,0.0,17357,22798,22754,31276,38220,0
0.0,0.0,0.0,17254,22754,22754,31150,38180,0
0.0,0.0,0.0,17220,22754,22754,31213,38180,0
0.0,0.0,0.0,17152,22754,22709,31150,38059,0
0.0,0.0,0.0,17118,22754,22709,31119,38100,0
0.0,0.0,0.0,17084,22754,22687,31119,38019,0
0.0,0.0,0.0,17118,22709,22709,31150,38019,0
0.0,0.0,0.0,17084,22754,22643,31119,38019,0
0.0,0.0,0.0,17118,22754,22709,31087,38019,0
0.0,0.0,0.0,17084,22754,22709,31087,38059,0
0.0,0.0,0.0,17067,22754,22687,31119,38019,0
0.0,0.0,0.0,17016,22754,22665,31087,38059,0
0.0,0.0,0.0,17016,22776,22665,31087,38100,0
0.0,0.0,0.0,16983,22754,22665,31087,38059,0
0.0,0.0,0.0,17016,22665,22621,31119,38019,0
0.0,0.0,0.0,16966,22709,22665,31150,38100,0
0.0,0.0,0.0,16966,22665,22599,31025,38100,0
0.0,0.0,0.0,16966,22643,22621,31087,38019,0
0.0,0.0,0.0,16966,22687,22621,31150,38019,0
0.0,0.0,0.0,16966,22687,22621,31087,37980,0
0.0,0.0,0.0,16949,22709,22621,31087,38019,0
0.0,0.0,0.0,16966,22643,22621,31087,37940,0
0.0,0.0,0.0,16966,22665,22621,31087,38100,0
0.0,0.0,0.0,16983,22665,22599,31056,38059,0
0.0,0.0,0.0,16882,22709,22532,31119,38100,0
0.0,0.0,0.0,16915,22665,22444,31213,38260,0
0.0,0.0,0.0,16715,22709,22357,31181,38180,0
0.0,0.0,0.0,16615,22709,22270,31276,38382,0
0.0,0.0,0.0,16715,22754,22226,31244,38503,0
0.0,0.0,0.0,16798,22820,22140,31244,38666,0
0.0,0.0,0.0,16748,22776,22183,31213,38707,0
0.0,0.0,0.0,16748,22731,22161,31119,38625,0
0.0,0.0,0.0,16698,22731,22096,31119,38585,0
0.0,0.0,0.0,16681,22709,22053,31087,38422,0
0.0,0.0,0.0,16715,22687,22096,31087,38503,0
0.0,0.0,0.0,16615,22665,22096,31119,38382,0
0.0,0.0,0.0,16665,22687,22096,31150,38422,0
0.0,0.0,0.0,16565,22709,22183,31276,38422,0
0.0,0.0,0.0,16549,22754,22292,31497,38503,0
0.0,0.0,0.0,16549,22843,22423,32043,38666,0
0.0,0.0,0.0,16681,22887,22621,32238,38707,0
0.0,0.0,0.0,16748,22977,22843,32500,38503,0
0.0,0.0,0.0,16882,23022,23022,32500,38301,0
0.0,0.0,0.0,16999,23022,23022,32500,38019,0
0.0,0.0,0.0,17186,22977,22955,32435,38019,0
0.0,0.0,0.0,17323,22910,22820,32271,38341,0
0.0,0.0,0.0,17409,22932,22687,32108,38503,0
0.0,0.0,0.0,17530,22932,22621,31978,38871,0
0.0,0.0,0.0,17495,22887,22488,31720,38995,0
0.0,0.0,0.0,17461,22754,22401,31370,39285,0
0.0,0.0,0.0,17443,22754,22401,31213,39244,0
0.0,0.0,0.0,17409,22731,22401,31213,39077,0
0.0,0.0,0.0,17392,22709,22401,31213,38995,0
0.0,0.0,0.0,17357,22754,22357,31150,38871,0
0.0,0.0,0.0,17323,22709,22401,31213,38912,0
0.0,0.0,0.0,17306,22709,22401,31119,38748,0
0.0,0.0,0.0,17272,22665,22401,31150,38748,0
0.0,0.0,0.0,17254,22621,22357,31087,38789,0
0.0,0.0,0.0,17237,22665,22335,31087,38666,0
0.0,0.0,0.0,17186,22621,22401,31087,38666,0
0.0,0.0,0.0,17220,22621,22335,31087,38585,0
0.0,0.0,0.0,17169,22599,22357,31087,38666,0
0.0,0.0,0.0,17152,22621,22313,31056,38585,0
0.0,0.0,0.0,17152,22599,22357,31087,38625,0
0.0,0.0,0.0,17152,22576,22292,30994,38666,0
0.0,0.0,0.0,17118,22599,22357,31056,38625,0
0.0,0.0,0.0,17152,22621,22313,30994,38585,0
0.0,0.0,0.0,17084,22621,22313,30994,38666,0
0.0,0.0,0.0,17084,22576,22313,30994,38585,0
0.0,0.0,0.0,17118,22599,22335,30994,38503,0
0.0,0.0,0.0,17101,22576,22313,30962,38544,0
0.0,0.0,0.0,17101,22576,22335,31056,38625,0
0.0,0.0,0.0,17101,22621,22313,30994,38503,0
0.0,0.0,0.0,17101,22554,22335,30962,38544,0
0.0,0.0,0.0,17084,22576,22401,31025,38422,0
0.0,0.0,0.0,17084,22576,22313,30962,38503,0
0.0,0.0,0.0,17084,22576,22313,31025,38463,0
0.0,0.0,0.0,17084,22532,22357,30994,38503,0
0.0,0.0,0.0,17084,22554,22313,30994,38422,0
0.0,0.0,0.0,17101,22576,22292,30994,38422,0
0.0,0.0,0.0,17050,22576,22270,30994,38382,0
0.0,0.0,0.0,17050,22554,22313,30962,38382,0
0.0,0.0,0.0,17067,22576,22270,30869,38382,0
0.0,0.0,0.0,17033,22532,22335,30900,38341,0
0.0,0.0,0.0,17084,22576,22313,30931,38422,0
0.0,0.0,0.0,17067,22554,22248,30962,38341,0
0.0,0.0,0.0,17050,22532,22270,30931,38260,0
0.0,0.0,0.0,17067,22510,22270,30900,38422,0
0.0,0.0,0.0,17050,22554,22248,30900,38422,0
0.0,0.0,0.0,17084,22488,22292,30962,38382,0
0.0,0.0,0.0,17016,22532,22248,30931,38341,0
0.0,0.0,0.0,17050,22554,22270,30900,38341,0
0.0,0.0,0.0,17050,22532,22270,30900,38260,0
0.0,0.0,0.0,17033,22510,22270,30962,38422,0
0.0,0.0,0.0,17033,22488,22248,30900,38382,0
0.0,0.0,0.0,17050,22532,22270,30900,38260,0
0.0,0.0,0.0,17033,22488,22270,30869,38180,0
0.0,0.0,0.0,17067,22576,22292,30900,38260,0
0.0,0.0,0.0,17050,22488,22248,30869,38341,0
0.0,0.0,0.0,17033,22510,22248,30900,38220,0
0.0,0.0,0.0,17016,22532,22270,30931,38180,0
0.0,0.0,0.0,17016,22488,22226,30931,38260,0
0.0,0.0,0.0,16999,22532,22270,30838,38140,0
0.0,0.0,0.0,17016,22488,22270,30869,38180,0
0.0,0.0,0.0,17016,22532,22248,30869,38260,0
0.0,0.0,0.0,17220,22532,22226,30962,38341,0
0.0,0.0,0.0,17237,22532,22270,30994,38382,0
0.0,0.0,0.0,17220,22532,22248,31025,38341,0
0.0,0.0,0.0,17237,22576,22226,31087,38341,0
0.0,0.0,0.0,17186,22576,22248,31087,38341,0
0.0,0.0,0.0,17152,22510,22226,31119,38341,0
0.0,0.0,0.0,17101,22576,22183,31119,38382,0
0.0,0.0,0.0,17084,22576,22183,31087,38341,0
0.0,0.0,0.0,17084,22576,22226,31150,38341,0
0.0,0.0,0.0,17084,22576,22226,31150,38260,0
0.0,0.0,0.0,17050,22599,22183,31213,38341,0
0.0,0.0,0.0,17050,22621,22226,31213,38341,0
0.0,0.0,0.0,17050,22576,22183,31213,38341,0
0.0,0.0,0.0,17050,22599,22226,31213,38544,0
0.0,0.0,0.0,17033,22576,22183,31150,38341,0
0.0,0.0,0.0,17050,22576,22226,31150,38260,0
0.0,0.0,0.0,17016,22599,22183,31150,38220,0
0.0,0.0,0.0,17050,22599,22226,31213,38382,0
0.0,0.0,0.0,17050,22599,22226,31181,38422,0
0.0,0.0,0.0,17050,22621,22226,31181,38301,0
0.0,0.0,0.0,17033,22643,22226,31181,38260,0
0.0,0.0,0.0,17033,22621,22226,31213,38341,0
0.0,0.0,0.0,17016,22665,22205,31213,38260,0
0.0,0.0,0.0,17050,22599,22161,31213,38341,0
0.0,0.0,0.0,17016,22643,22270,31244,38341,0
0.0,0.0,0.0,16949,22709,22248,31213,38341,0
0.0,0.0,0.0,16915,22709,22248,31307,38260,0
0.0,0.0,0.0,16915,22665,22226,31213,38341,0
0.0,0.0,0.0,16949,22665,22205,31213,38220,0
0.0,0.0,0.0,16949,22687,22205,31276,38260,0
0.0,0.0,0.0,16949,22665,22226,31276,38260,0
0.0,0.0,0.0,16966,22665,22226,31213,38260,0
0.0,0.0,0.0,16966,22687,22226,31213,38341,0
0.0,0.0,0.0,16949,22665,22226,31213,38301,0
0.0,0.0,0.0,16949,22599,22183,31244,38260,0
0.0,0.0,0.0,16949,22687,22183,31276,38260,0
0.0,0.0,0.0,16882,22687,22183,31150,38301,0
0.0,0.0,0.0,16848,22665,22226,31181,38341,0
0.0,0.0,0.0,16815,22709,22226,31213,38341,0
0.0,0.0,0.0,16815,22709,22226,31213,38180,0
0.0,0.0,0.0,16798,22665,22226,31213,38260,0
0.0,0.0,0.0,16781,22709,22226,31181,38180,0
0.0,0.0,0.0,16781,22665,22183,31181,38180,0
0.0,0.0,0.0,16765,22665,22226,31150,38301,0
0.0,0.0,0.0,16781,22709,22226,31150,38260,0
0.0,0.0,0.0,16781,22709,22226,31213,38180,0
0.0,0.0,0.0,16748,22709,22205,31181,38140,0
0.0,0.0,0.0,16781,22665,22161,31181,38180,0
0.0,0.0,0.0,16765,22665,22183,31150,38220,0
0.0,0.0,0.0,16748,22687,22140,31087,38059,0
0.0,0.0,0.0,16748,22709,22140,31150,38059,0
0.0,0.0,0.0,16815,22643,22161,31119,38180,0
0.0,0.0,0.0,16765,22687,22183,31150,38100,0
0.0,0.0,0.0,16781,22665,22183,31150,38100,0
0.0,0.0,0.0,16748,22754,22140,31150,38100,0
0.0,0.0,0.0,16698,22687,22161,31087,38100,0
0.0,0.0,0.0,16681,22687,22140,31119,38100,0
0.0,0.0,0.0,16698,22665,22140,31056,38019,0
0.0,0.0,0.0,16681,22665,22161,31025,38019,0
0.0,0.0,0.0,16681,22665,22183,31087,38059,0
0.0,0.0,0.0,16698,22665,22140,31087,38100,0
0.0,0.0,0.0,16681,22709,22140,31087,38100,0
0.0,0.0,0.0,16648,22665,22140,30994,38100,0
0.0,0.0,0.0,16681,22665,22161,31087,38100,0
0.0,0.0,0.0,16665,22665,22161,31087,38100,0
0.0,0.0,0.0,16665,22665,22140,31025,38140,0
0.0,0.0,0.0,16648,22687,22140,31087,38059,0
0.0,0.0,0.0,16615,22709,22140,31056,38100,0
0.0,0.0,0.0,16615,22665,22096,31087,38059,0
0.0,0.0,0.0,16615,22665,22140,31087,38059,0
0.0,0.0,0.0,16615,22665,22140,31056,38100,0
0.0,0.0,0.0,16615,22665,22140,31087,38100,0
0.0,0.0,0.0,16615,22665,22140,31025,38100,0
0.0,0.0,0.0,16582,22665,22096,31025,38059,0
0.0,0.0,0.0,16598,22665,22140,31087,38019,0
0.0,0.0,0.0,16582,22665,22096,30994,38019,0
0.0,0.0,0.0,16615,22665,22140,31087,38059,0
0.0,0.0,0.0,16582,22665,22096,31087,38100,0
0.0,0.0,0.0,16615,22665,22140,31087,38019,0
0.0,0.0,0.0,16615,22687,22096,31087,38019,0
0.0,0.0,0.0,16565,22665,22140,31025,38019,0
0.0,0.0,0.0,16582,22643,22140,31025,38059,0
0.0,0.0,0.0,16598,22621,22140,31087,38100,0
0.0,0.0,0.0,16632,22709,22096,31025,37940,0
0.0,0.0,0.0,16598,22643,22140,31056,37980,0
0.0,0.0,0.0,16582,22665,22118,31056,38019,0
0.0,0.0,0.0,16565,22665,22140,30994,38019,0
0.0,0.0,0.0,16582,22665,22096,31087,38019,0
0.0,0.0,0.0,16598,22643,22140,31087,38019,0
0.0,0.0,0.0,16598,22621,22140,31087,37940,0
0.0,0.0,0.0,16582,22643,22096,30994,38059,0
0.0,0.0,0.0,16582,22665,22140,31087,38019,0
0.0,0.0,0.0,16598,22643,22118,31056,37940,0
0.0,0.0,0.0,16565,22665,22096,30994,37940,0
0.0,0.0,0.0,16598,22665,22096,31025,37900,0
0.0,0.0,0.0,16582,22665,22096,31056,38019,0
0.0,0.0,0.0,16615,22665,22140,31025,38059,0
0.0,0.0,0.0,16549,22665,22096,30962,37940,0
0.0,0.0,0.0,16565,22643,22096,31087,38019,0
0.0,0.0,0.0,16582,22665,22075,30994,37940,0
0.0,0.0,0.0,16565,22576,22140,31025,37900,0
0.0,0.0,0.0,16565,22665,22118,30994,37940,0
0.0,0.0,0.0,16598,22665,22096,30994,37940,0
0.0,0.0,0.0,16549,22621,22096,31087,37860,0
0.0,0.0,0.0,16549,22665,22075,31025,37980,0
0.0,0.0,0.0,16532,22621,22096,31025,37900,0
0.0,0.0,0.0,16565,22665,22140,31025,37820,0
0.0,0.0,0.0,16565,22665,22053,30994,37860,0
0.0,0.0,0.0,16748,22643,22096,31087,38100,0
0.0,0.0,0.0,16815,22709,22096,31087,37940,0
0.0,0.0,0.0,16815,22665,22118,31025,37940,0
0.0,0.0,0.0,16715,22709,22140,31119,37980,0
0.0,0.0,0.0,16731,22665,22075,30994,37940,0
0.0,0.0,0.0,16898,22709,22096,31056,37940,0
0.0,0.0,0.0,17016,22955,22096,31307,38220,0
0.0,0.0,0.0,16336,23225,22313,31339,37860,0
0.0,0.0,0.0,15335,23454,22401,31276,37583,0
0.0,0.0,0.0,14696,23894,22576,31402,37426,0
0.0,0.0,0.0,14209,24510,23022,32010,37426,0
0.0,0.0,0.0,14021,25440,23894,32966,37465,0
0.0,0.0,0.0,13863,25843,24486,34165,37583,0
0.0,0.0,0.0,15242,25742,24414,34767,38341,0
0.0,0.0,0.0,17565,25616,24081,34341,38789,0
0.0,0.0,0.0,18075,25291,23777,33852,38871,0
0.0,0.0,0.0,18599,25118,23592,33576,38585,0
0.0,0.0,0.0,19325,25440,23477,33371,38666,0
0.0,0.0,0.0,19921,25390,23294,33134,38503,0
0.0,0.0,0.0,20315,25068,23225,33033,38382,0
0.0,0.0,0.0,20335,24799,23180,32966,38503,0
0.0,0.0,0.0,20335,24751,23067,32799,38220,0
0.0,0.0,0.0,20315,24702,23044,32699,38341,0
0.0,0.0,0.0,20256,24654,22955,32633,38260,0
0.0,0.0,0.0,20256,24606,23022,32435,38260,0
0.0,0.0,0.0,20157,24534,22977,32369,38180,0
0.0,0.0,0.0,20157,24510,22932,32303,38180,0
0.0,0.0,0.0,20058,24462,22865,32238,38100,0
0.0,0.0,0.0,19999,24414,22843,32205,38019,0
0.0,0.0,0.0,19999,24414,22798,32108,37940,0
0.0,0.0,0.0,19921,24318,22843,32108,37980,0
0.0,0.0,0.0,19843,24342,22798,32043,37860,0
0.0,0.0,0.0,19805,24342,22798,31978,37860,0
0.0,0.0,0.0,19785,24318,22754,31978,37940,0
0.0,0.0,0.0,19766,24318,22798,31978,37940,0
0.0,0.0,0.0,19766,24318,22754,31881,38019,0
0.0,0.0,0.0,19669,24271,22754,31913,37900,0
0.0,0.0,0.0,19689,24366,22754,31881,37940,0
0.0,0.0,0.0,19631,24318,22754,31849,37940,0
0.0,0.0,0.0,19612,24318,22665,31785,37940,0
0.0,0.0,0.0,19573,24342,22709,31881,37940,0
0.0,0.0,0.0,19573,24342,22709,31881,37860,0
0.0,0.0,0.0,19612,24438,22709,31849,37781,0
0.0,0.0,0.0,19999,24462,22709,31849,37820,0
0.0,0.0,0.0,20676,24702,22687,31881,37741,0
0.0,0.0,0.0,21208,24995,22843,32173,38019,0
0.0,0.0,0.0,21187,25490,23225,32599,38260,0
0.0,0.0,0.0,20899,25767,23522,33033,38585,0
0.0,0.0,0.0,20818,25869,23569,33168,38503,0
0.0,0.0,0.0,21146,25616,23431,33269,38503,0
0.0,0.0,0.0,21375,25490,23431,33067,38382,0
0.0,0.0,0.0,21479,25415,23339,32966,38422,0
0.0,0.0,0.0,21563,25142,23294,32899,38422,0
0.0,0.0,0.0,21500,25142,23225,32832,38260,0
0.0,0.0,0.0,21416,25019,23203,32699,38180,0
0.0,0.0,0.0,21333,25118,23135,32633,38180,0
0.0,0.0,0.0,21229,25044,23112,32566,38100,0
0.0,0.0,0.0,21105,25019,23022,32533,38019,0
0.0,0.0,0.0,21064,24995,23067,32435,38019,0
0.0,0.0,0.0,20961,24995,23022,32467,37860,0
0.0,0.0,0.0,20879,24995,23022,32402,37820,0
0.0,0.0,0.0,20798,24995,23022,32336,37781,0
0.0,0.0,0.0,20696,24995,23022,32336,37701,0
0.0,0.0,0.0,20636,25019,22955,32336,37781,0
0.0,0.0,0.0,20555,25019,23022,32303,37701,0
0.0,0.0,0.0,20495,24995,22932,32303,37622,0
0.0,0.0,0.0,20395,25093,22932,32238,37781,0
0.0,0.0,0.0,20157,25167,22932,32238,37741,0
0.0,0.0,0.0,19785,25291,22843,32238,37741,0
0.0,0.0,0.0,18508,26202,22820,32238,38019,0
0.0,0.0,0.0,17915,25996,22754,32140,37820,0
0.0,0.0,0.0,17530,25793,22754,32108,38019,0
0.0,0.0,0.0,17220,25666,22709,32108,37980,0
0.0,0.0,0.0,16848,25490,22709,32043,37980,0
0.0,0.0,0.0,16831,25341,22621,32043,37940,0
0.0,0.0,0.0,15600,25241,22665,32075,37900,0
0.0,0.0,0.0,15397,25192,22599,31978,37980,0
0.0,0.0,0.0,15459,25167,22621,31978,38059,0
0.0,0.0,0.0,15459,25192,22532,31978,38100,0
0.0,0.0,0.0,15335,25118,22488,31978,38059,0
0.0,0.0,0.0,15181,25093,22488,31978,38059,0
0.0,0.0,0.0,14922,24995,22532,31978,38100,0
0.0,0.0,0.0,15837,24995,22488,31978,38180,0
0.0,0.0,0.0,16157,25142,22510,31913,38100,0
0.0,0.0,0.0,16483,25142,22488,31913,38100,0
0.0,0.0,0.0,16698,25142,22510,31978,38100,0
0.0,0.0,0.0,16698,25093,22532,31978,37980,0
0.0,0.0,0.0,16831,25142,22488,31913,38019,0
0.0,0.0,0.0,16882,25068,22532,31946,38019,0
0.0,0.0,0.0,16831,25093,22488,31978,38019,0
0.0,0.0,0.0,16815,25093,22444,31913,37860,0
0.0,0.0,0.0,16815,25093,22444,31946,37860,0
0.0,0.0,0.0,17461,25044,22488,31978,37940,0
0.0,0.0,0.0,17203,25093,22444,32043,37940,0
0.0,0.0,0.0,17220,25093,22488,31913,37781,0
0.0,0.0,0.0,17323,25044,22488,31913,37860,0
0.0,0.0,0.0,17323,25093,22576,31849,37940,0
0.0,0.0,0.0,17084,25142,22643,31849,37820,0
0.0,0.0,0.0,16665,25093,22621,31785,37622,0
0.0,0.0,0.0,16698,24921,22665,31752,37543,0
0.0,0.0,0.0,17272,24946,22665,31752,37701,0
0.0,0.0,0.0,17774,24946,22621,31720,37583,0
0.0,0.0,0.0,18057,24946,22576,31785,37543,0
0.0,0.0,0.0,18272,24995,22576,31752,37622,0
0.0,0.0,0.0,18272,24995,22532,31656,37662,0
0.0,0.0,0.0,18308,24995,22554,31720,37583,0
0.0,0.0,0.0,18290,25044,22488,31688,37583,0
0.0,0.0,0.0,18272,24995,22488,31688,37583,0
0.0,0.0,0.0,18236,25019,22488,31720,37622,0
0.0,0.0,0.0,18164,25044,22488,31656,37426,0
0.0,0.0,0.0,18093,24995,22444,31720,37622,0
0.0,0.0,0.0,18022,24995,22466,31656,37465,0
0.0,0.0,0.0,18004,24946,22488,31656,37465,0
0.0,0.0,0.0,17986,24995,22444,31624,37426,0
0.0,0.0,0.0,17986,24995,22444,31656,37426,0
0.0,0.0,0.0,17933,24946,22466,31624,37426,0
0.0,0.0,0.0,17933,24995,22444,31624,37543,0
0.0,0.0,0.0,18004,24995,22444,31656,37386,0
0.0,0.0,0.0,17951,24970,22444,31656,37426,0
0.0,0.0,0.0,17915,24946,22423,31593,37347,0
0.0,0.0,0.0,17915,24921,22444,31656,37386,0
0.0,0.0,0.0,17933,24946,22444,31624,37386,0
0.0,0.0,0.0,17915,24970,22444,31720,37426,0
0.0,0.0,0.0,17880,24921,22423,31593,37347,0
0.0,0.0,0.0,17915,24946,22423,31656,37543,0
0.0,0.0,0.0,17915,24921,22444,31656,37426,0
0.0,0.0,0.0,17880,24970,22444,31624,37386,0
0.0,0.0,0.0,17862,24946,22423,31624,37426,0
0.0,0.0,0.0,17880,24921,22444,31656,37465,0
0.0,0.0,0.0,17792,24970,22401,31593,37426,0
0.0,0.0,0.0,17774,24970,22379,31656,37386,0
0.0,0.0,0.0,17880,24995,22444,31624,37465,0
0.0,0.0,0.0,17774,24946,22444,31656,37504,0
0.0,0.0,0.0,17774,24946,22401,31593,37386,0
0.0,0.0,0.0,17792,24970,22401,31593,37426,0
0.0,0.0,0.0,17774,24970,22401,31593,37465,0
0.0,0.0,0.0,17739,24946,22401,31624,37386,0
0.0,0.0,0.0,17722,25019,22401,31593,37543,0
0.0,0.0,0.0,17739,24946,22444,31529,37504,0
0.0,0.0,0.0,17739,24946,22401,31593,37386,0
0.0,0.0,0.0,17722,24995,22444,31593,37386,0
0.0,0.0,0.0,17722,24897,22401,31656,37543,0
0.0,0.0,0.0,17704,24921,22401,31656,37543,0
0.0,0.0,0.0,17739,24897,22401,31656,37543,0
0.0,0.0,0.0,17704,24946,22401,31593,37386,0
0.0,0.0,0.0,17669,24995,22401,31593,37308,0
0.0,0.0,0.0,17704,24897,22423,31561,37543,0
0.0,0.0,0.0,17704,24897,22401,31593,37504,0
0.0,0.0,0.0,17704,24897,22357,31593,37386,0
0.0,0.0,0.0,17704,24946,22357,31561,37386,0
0.0,0.0,0.0,17704,24946,22401,31529,37386,0
0.0,0.0,0.0,17669,24946,22401,31624,37426,0
0.0,0.0,0.0,17634,24921,22423,31624,37386,0
0.0,0.0,0.0,17634,24946,22401,31593,37308,0
0.0,0.0,0.0,17634,24848,22357,31593,37504,0
0.0,0.0,0.0,17634,24897,22401,31593,37426,0
0.0,0.0,0.0,17617,24897,22357,31561,37386,0
0.0,0.0,0.0,17617,24873,22401,31593,37386,0
0.0,0.0,0.0,17617,24873,22357,31593,37386,0
0.0,0.0,0.0,17565,24946,22401,31593,37269,0
0.0,0.0,0.0,17582,24873,22357,31593,37465,0
0.0,0.0,0.0,17530,24848,22335,31593,37386,0
0.0,0.0,0.0,17565,24897,22357,31593,37347,0
0.0,0.0,0.0,17530,24824,22357,31529,37386,0
0.0,0.0,0.0,17530,24897,22335,31497,37269,0
0.0,0.0,0.0,17704,24946,22357,31529,37386,0
0.0,0.0,0.0,17722,24946,22357,31593,37386,0
0.0,0.0,0.0,17792,24946,22401,31561,37386,0
0.0,0.0,0.0,17792,24897,22357,31497,37386,0
0.0,0.0,0.0,17862,24921,22313,31593,37465,0
0.0,0.0,0.0,17933,25019,22313,31561,37426,0
0.0,0.0,0.0,18093,25044,22335,31561,37583,0
0.0,0.0,0.0,18236,25068,22313,31529,37543,0
0.0,0.0,0.0,18272,25093,22357,31561,37543,0
0.0,0.0,0.0,18272,24970,22313,31529,37543,0
0.0,0.0,0.0,18417,24995,22313,31593,37781,0
0.0,0.0,0.0,18599,24848,22313,31497,37741,0
0.0,0.0,0.0,18654,24702,22357,31656,37741,0
0.0,0.0,0.0,18801,24678,22313,31624,37781,0
0.0,0.0,0.0,18857,24606,22401,31656,37860,0
0.0,0.0,0.0,18838,24534,22357,31720,37781,0
0.0,0.0,0.0,18727,24534,22401,31752,38100,0
0.0,0.0,0.0,18635,24558,22488,31785,37940,0
0.0,0.0,0.0,18562,24510,22444,31785,38019,0
0.0,0.0,0.0,18508,24606,22444,31817,37900,0
0.0,0.0,0.0,18417,24606,22488,31785,37900,0
0.0,0.0,0.0,18344,24582,22444,31688,37860,0
0.0,0.0,0.0,18326,24606,22444,31656,37820,0
0.0,0.0,0.0,18344,24606,22444,31624,37701,0
0.0,0.0,0.0,18344,24630,22401,31656,37622,0
0.0,0.0,0.0,18344,24606,22401,31624,37543,0
0.0,0.0,0.0,18362,24558,22401,31624,37622,0
0.0,0.0,0.0,18344,24558,22401,31593,37543,0
0.0,0.0,0.0,18380,24534,22335,31624,37465,0
0.0,0.0,0.0,18380,24558,22335,31561,37465,0
0.0,0.0,0.0,18380,24630,22313,31497,37386,0
0.0,0.0,0.0,18380,24606,22270,31370,37386,0
0.0,0.0,0.0,18417,24606,22270,31465,37426,0
0.0,0.0,0.0,18362,24534,22270,31402,37386,0
0.0,0.0,0.0,18399,24606,22226,31434,37386,0
0.0,0.0,0.0,18380,24606,22248,31402,37386,0
0.0,0.0,0.0,18344,24606,22226,31434,37426,0
0.0,0.0,0.0,18380,24654,22226,31402,37308,0
0.0,0.0,0.0,18326,24606,22226,31402,37308,0
0.0,0.0,0.0,18308,24606,22226,31339,37230,0
0.0,0.0,0.0,18272,24606,22226,31339,37308,0
0.0,0.0,0.0,18236,24630,22183,31276,37269,0
0.0,0.0,0.0,18272,24630,22183,31339,37308,0
0.0,0.0,0.0,18218,24654,22205,31307,37230,0
0.0,0.0,0.0,18200,24630,22205,31339,37230,0
0.0,0.0,0.0,18200,24630,22226,31276,37269,0
0.0,0.0,0.0,18129,24630,22183,31244,37191,0
0.0,0.0,0.0,18218,24606,22183,31370,37230,0
0.0,0.0,0.0,18182,24630,22226,31339,37230,0
0.0,0.0,0.0,18236,24558,22183,31244,37152,0
0.0,0.0,0.0,18182,24654,22205,31276,37114,0
0.0,0.0,0.0,18200,24654,22161,31276,37269,0
0.0,0.0,0.0,18236,24654,22183,31276,37230,0
0.0,0.0,0.0,18164,24654,22226,31276,37191,0
0.0,0.0,0.0,18164,24654,22226,31244,37191,0
0.0,0.0,0.0,18164,24630,22183,31244,37114,0
0.0,0.0,0.0,18236,24606,22183,31276,37269,0
0.0,0.0,0.0,18164,24630,22183,31276,37230,0
0.0,0.0,0.0,18147,24654,22161,31213,37191,0
0.0,0.0,0.0,18164,24654,22183,31244,37191,0
0.0,0.0,0.0,18200,24702,22226,31213,37191,0
0.0,0.0,0.0,18147,24702,22183,31213,37230,0
0.0,0.0,0.0,18147,24702,22183,31213,37152,0
0.0,0.0,0.0,18182,24702,22183,31276,37230,0
0.0,0.0,0.0,18164,24678,22161,31213,37191,0
0.0,0.0,0.0,18129,24751,22183,31181,37152,0
0.0,0.0,0.0,18129,24654,22161,31213,37230,0
0.0,0.0,0.0,18129,24727,22183,31181,37230,0
0.0,0.0,0.0,18164,24702,22140,31213,37308,0
0.0,0.0,0.0,18129,24751,22140,31181,37308,0
0.0,0.0,0.0,18129,24727,22140,31087,37152,0
0.0,0.0,0.0,18129,24702,22183,31181,37191,0
0.0,0.0,0.0,18093,24702,22140,31213,37269,0
0.0,0.0,0.0,18129,24751,22161,31119,37230,0
0.0,0.0,0.0,18075,24702,22140,31087,37269,0
0.0,0.0,0.0,18111,24751,22140,31087,37152,0
0.0,0.0,0.0,18129,24678,22140,31119,37191,0
0.0,0.0,0.0,18075,24702,22140,31150,37230,0
0.0,0.0,0.0,18129,24751,22140,31087,37114,0
0.0,0.0,0.0,18111,24727,22140,31150,37230,0
0.0,0.0,0.0,18075,24678,22183,31150,37230,0
0.0,0.0,0.0,18129,24702,22140,31087,37114,0
0.0,0.0,0.0,18093,24727,22140,31150,37230,0
0.0,0.0,0.0,18093,24727,22140,31150,37191,0
0.0,0.0,0.0,18129,24702,22140,31025,37230,0
0.0,0.0,0.0,18075,24702,22140,31087,37191,0
0.0,0.0,0.0,18075,24775,22140,31025,37152,0
0.0,0.0,0.0,18057,24702,22161,31087,37269,0
0.0,0.0,0.0,18057,24702,22161,31087,37152,0
0.0,0.0,0.0,18093,24702,22140,31056,37152,0
0.0,0.0,0.0,18057,24702,22140,31087,37152,0
0.0,0.0,0.0,18057,24702,22140,31119,37230,0
0.0,0.0,0.0,18057,24702,22140,31150,37191,0
0.0,0.0,0.0,18057,24654,22140,31119,37191,0
0.0,0.0,0.0,18075,24702,22140,30994,37114,0
0.0,0.0,0.0,18057,24654,22140,31087,37152,0
0.0,0.0,0.0,18039,24727,22096,31087,37075,0
0.0,0.0,0.0,18057,24654,22140,31213,37230,0
0.0,0.0,0.0,18022,24654,22096,31087,37152,0
0.0,0.0,0.0,18022,24654,22140,31087,37114,0
0.0,0.0,0.0,18022,24678,22096,31025,37075,0
0.0,0.0,0.0,18022,24702,22140,31087,37152,0
0.0,0.0,0.0,18039,24702,22096,30994,37114,0
0.0,0.0,0.0,18022,24727,22096,31056,37152,0
0.0,0.0,0.0,18022,24654,22140,31087,37114,0
0.0,0.0,0.0,18057,24678,22140,31087,37152,0
0.0,0.0,0.0,18004,24654,22096,31025,37036,0
0.0,0.0,0.0,18039,24678,22140,31087,37075,0
0.0,0.0,0.0,17986,24702,22140,31056,37114,0
0.0,0.0,0.0,18022,24630,22140,31087,37114,0
0.0,0.0,0.0,18004,24630,22118,31056,36998,0
0.0,0.0,0.0,18022,24654,22140,31087,37114,0
0.0,0.0,0.0,18004,24702,22053,30994,37036,0
0.0,0.0,0.0,18004,24654,22140,31025,37191,0
0.0,0.0,0.0,18004,24606,22140,31025,37075,0
0.0,0.0,0.0,17986,24654,22118,31025,36998,0
0.0,0.0,0.0,18022,24702,22118,31025,37075,0
0.0,0.0,0.0,18004,24654,22140,31025,36998,0
0.0,0.0,0.0,18022,24654,22140,31025,36998,0
0.0,0.0,0.0,17986,24654,22140,30994,37114,0
0.0,0.0,0.0,17968,24630,22118,30994,37152,0
0.0,0.0,0.0,17986,24606,22096,30962,36959,0
0.0,0.0,0.0,18004,24702,22075,30994,36998,0
0.0,0.0,0.0,17986,24678,22075,30994,36959,0
0.0,0.0,0.0,17986,24606,22140,31025,36920,0
0.0,0.0,0.0,17951,24654,22096,30994,36920,0
0.0,0.0,0.0,17933,24630,22140,31025,36998,0
0.0,0.0,0.0,17933,24678,22096,30962,36959,0
0.0,0.0,0.0,17915,24654,22075,30994,36920,0
0.0,0.0,0.0,17933,24630,22075,31025,36920,0
0.0,0.0,0.0,17951,24606,22075,30962,36959,0
0.0,0.0,0.0,17986,24654,22118,31056,36998,0
0.0,0.0,0.0,17951,24654,22075,30962,36998,0
0.0,0.0,0.0,17986,24702,22096,31025,36998,0
0.0,0.0,0.0,17915,24702,22096,31025,36959,0
0.0,0.0,0.0,18004,24775,22140,31087,37114,0
0.0,0.0,0.0,17986,24799,22096,31025,36998,0
0.0,0.0,0.0,17986,24799,22053,31056,37075,0
0.0,0.0,0.0,17915,24921,22096,31056,37075,0
0.0,0.0,0.0,17845,24946,22075,31056,37114,0
0.0,0.0,0.0,17774,24946,22096,31025,37075,0
0.0,0.0,0.0,17809,24946,22140,31087,37152,0
0.0,0.0,0.0,17774,24946,22096,31087,37075,0
0.0,0.0,0.0,17774,24946,22075,30994,37075,0
0.0,0.0,0.0,17774,24946,22096,30994,36959,0
0.0,0.0,0.0,17845,24946,22118,31025,37036,0
0.0,0.0,0.0,17792,24946,22096,31056,37075,0
0.0,0.0,0.0,17845,24946,22053,31025,36998,0
0.0,0.0,0.0,17845,24921,22096,31025,36959,0
0.0,0.0,0.0,17862,24946,22140,31087,36920,0
0.0,0.0,0.0,17809,24921,22053,31025,36959,0
0.0,0.0,0.0,17880,24946,22075,31087,36998,0
0.0,0.0,0.0,17915,24921,22053,31025,37075,0
0.0,0.0,0.0,17862,24946,22096,31025,36920,0
0.0,0.0,0.0,17845,24946,22075,30994,36920,0
0.0,0.0,0.0,17845,24921,22075,30994,36920,0
0.0,0.0,0.0,17809,24946,22053,30962,36959,0
0.0,0.0,0.0,17845,24946,22053,30962,36998,0
0.0,0.0,0.0,17862,24946,22053,31087,36920,0
0.0,0.0,0.0,17845,24946,22053,31087,36920,0
0.0,0.0,0.0,17862,24946,22053,30994,36959,0
0.0,0.0,0.0,17845,24946,22053,31025,36998,0
0.0,0.0,0.0,17845,24921,22053,30994,36959,0
0.0,0.0,0.0,17862,24921,22032,31087,36920,0
0.0,0.0,0.0,17862,24946,22096,31025,36843,0
0.0,0.0,0.0,17862,24946,22053,30994,36920,0
0.0,0.0,0.0,17862,25044,22053,31025,36920,0
0.0,0.0,0.0,17739,25192,22140,31087,37075,0
0.0,0.0,0.0,17306,25365,22140,31119,37036,0
0.0,0.0,0.0,17186,25291,22161,31087,37114,0
0.0,0.0,0.0,17203,25291,22140,31087,36998,0
0.0,0.0,0.0,17323,25216,22183,31213,37114,0
0.0,0.0,0.0,17374,25266,22096,31087,37075,0
0.0,0.0,0.0,17392,25192,22140,31119,37075,0
0.0,0.0,0.0,17443,25192,22161,31150,36959,0
0.0,0.0,0.0,17495,25216,22140,31150,37075,0
0.0,0.0,0.0,17461,25241,22096,31119,36920,0
0.0,0.0,0.0,17461,25142,22118,31087,36920,0
0.0,0.0,0.0,17495,25167,22140,31119,36920,0
0.0,0.0,0.0,17426,25142,22075,31119,36959,0
0.0,0.0,0.0,17443,25142,22096,31087,36920,0
0.0,0.0,0.0,17461,25093,22096,31119,36920,0
0.0,0.0,0.0,17426,25142,22140,31119,36959,0
0.0,0.0,0.0,17426,25093,22096,31087,36843,0
0.0,0.0,0.0,17357,25093,22096,31119,36843,0
0.0,0.0,0.0,17357,25142,22096,31119,36805,0
0.0,0.0,0.0,17323,25044,22118,31150,36998,0
0.0,0.0,0.0,17374,25044,22053,31087,36920,0
0.0,0.0,0.0,17426,24995,22075,31087,37036,0
0.0,0.0,0.0,17495,24995,22118,31087,36920,0
0.0,0.0,0.0,17495,24946,22096,31087,36920,0
0.0,0.0,0.0,17513,24921,22053,31056,36959,0
0.0,0.0,0.0,17495,24946,22032,31087,36920,0
0.0,0.0,0.0,17461,24873,22053,31087,36998,0
0.0,0.0,0.0,17426,24897,22053,31087,36959,0
0.0,0.0,0.0,17392,24848,22053,31087,36843,0
0.0,0.0,0.0,17392,24897,22010,31087,36882,0
0.0,0.0,0.0,17426,24873,22053,31150,36920,0
0.0,0.0,0.0,17426,24848,22053,31087,36920,0
0.0,0.0,0.0,17426,24897,22032,31087,36920,0
0.0,0.0,0.0,17409,24897,22053,31087,36843,0
0.0,0.0,0.0,17392,24848,22010,31025,36843,0
0.0,0.0,0.0,17426,24897,22053,31087,36843,0
0.0,0.0,0.0,17374,24848,22075,30994,36920,0
0.0,0.0,0.0,17374,24921,22053,31087,36882,0
0.0,0.0,0.0,17323,24921,22010,31025,36843,0
0.0,0.0,0.0,17254,24873,22053,31119,36882,0
0.0,0.0,0.0,17306,24995,22053,31025,36767,0
0.0,0.0,0.0,17289,24946,22075,31025,36843,0
0.0,0.0,0.0,17634,24946,22053,30994,36843,0
0.0,0.0,0.0,17915,24897,22053,31087,36920,0
0.0,0.0,0.0,18272,24897,22010,31119,36920,0
0.0,0.0,0.0,18290,24848,22010,31087,36920,0
0.0,0.0,0.0,18147,24824,22053,31150,37152,0
0.0,0.0,0.0,18075,24799,22010,31150,36998,0
0.0,0.0,0.0,17986,24799,22010,31119,37036,0
0.0,0.0,0.0,17634,24751,22010,31087,37075,0
0.0,0.0,0.0,17582,24751,22010,31056,37036,0
0.0,0.0,0.0,17565,24727,22010,31056,37114,0
0.0,0.0,0.0,17530,24727,22053,31087,37036,0
0.0,0.0,0.0,17565,24799,22010,31087,37075,0
0.0,0.0,0.0,17704,24799,22010,30994,36959,0
0.0,0.0,0.0,17986,24702,22053,31056,36920,0
0.0,0.0,0.0,18022,24702,22010,31150,37075,0
0.0,0.0,0.0,17986,24630,22053,31087,36843,0
0.0,0.0,0.0,18004,24678,22053,31025,36959,0
0.0,0.0,0.0,17986,24678,22010,30994,36843,0
0.0,0.0,0.0,18129,24678,22010,31025,36767,0
0.0,0.0,0.0,18218,24606,22010,30962,36843,0
0.0,0.0,0.0,18236,24558,22010,30994,36843,0
0.0,0.0,0.0,17986,24510,22053,31025,36805,0
0.0,0.0,0.0,17862,24510,22010,30962,36843,0
0.0,0.0,0.0,17862,24486,22010,30962,36843,0
0.0,0.0,0.0,17880,24414,22053,31025,36767,0
0.0,0.0,0.0,17898,24414,22053,30962,36767,0
0.0,0.0,0.0,17845,24414,22010,30962,36767,0
0.0,0.0,0.0,17845,24414,22010,30962,36690,0
0.0,0.0,0.0,17809,24414,22010,30962,36767,0
0.0,0.0,0.0,17792,24414,22032,30962,36690,0
0.0,0.0,0.0,17809,24414,22010,30994,36805,0
0.0,0.0,0.0,17774,24342,22010,30962,36690,0
0.0,0.0,0.0,17774,24390,22010,30994,36728,0
0.0,0.0,0.0,17792,24318,22010,30994,36843,0
0.0,0.0,0.0,17774,24366,22010,30900,36805,0
0.0,0.0,0.0,17792,24414,22010,30962,36767,0
0.0,0.0,0.0,17774,24318,22010,30962,36690,0
0.0,0.0,0.0,17774,24318,22010,30962,36767,0
0.0,0.0,0.0,17722,24390,21924,31339,36614,0
0.0,0.0,0.0,17774,24366,22010,30900,36728,0
0.0,0.0,0.0,17722,24342,21967,31402,36614,0
0.0,0.0,0.0,17739,24318,21967,31370,36690,0
0.0,0.0,0.0,17774,24318,22010,30900,36767,0
0.0,0.0,0.0,17774,24414,21924,31370,36690,0
0.0,0.0,0.0,17792,24318,22010,30962,36767,0
0.0,0.0,0.0,17757,24294,21967,31434,36690,0
0.0,0.0,0.0,17739,24318,22010,30900,36767,0
0.0,0.0,0.0,17774,24366,21924,31402,36690,0
0.0,0.0,0.0,17774,24342,22010,30931,36728,0
0.0,0.0,0.0,17739,24318,22010,30994,36767,0
0.0,0.0,0.0,17739,24318,22010,30931,36767,0
0.0,0.0,0.0,17757,24318,22010,30931,36767,0
0.0,0.0,0.0,17704,24318,22010,30962,36728,0
0.0,0.0,0.0,17722,24271,21967,31402,36690,0
0.0,0.0,0.0,17739,24294,21924,31402,36767,0
0.0,0.0,0.0,17704,24318,21967,31339,36614,0
0.0,0.0,0.0,17739,24318,21924,31370,36690,0
0.0,0.0,0.0,17739,24318,21924,31370,36690,0
0.0,0.0,0.0,17704,24318,21967,31370,36690,0
0.0,0.0,0.0,17652,24271,21924,31339,36614,0
0.0,0.0,0.0,17704,24318,21967,31370,36614,0
0.0,0.0,0.0,17739,24318,22010,30962,36767,0
0.0,0.0,0.0,17652,24318,21903,31402,36614,0
0.0,0.0,0.0,17704,24271,22010,30869,36690,0
0.0,0.0,0.0,17739,24271,22010,30931,36690,0
0.0,0.0,0.0,17704,24318,21967,31402,36690,0
0.0,0.0,0.0,17722,24318,21924,31339,36690,0
0.0,0.0,0.0,17704,24366,22010,30962,36690,0
0.0,0.0,0.0,17704,24247,21924,31276,36690,0
0.0,0.0,0.0,17704,24318,21903,31370,36690,0
0.0,0.0,0.0,17704,24271,21924,31307,36614,0
0.0,0.0,0.0,17704,24318,21924,31402,36690,0
0.0,0.0,0.0,17669,24318,21924,31370,36652,0
0.0,0.0,0.0,17704,24271,22010,30900,36690,0
0.0,0.0,0.0,17704,24318,21924,31402,36690,0
0.0,0.0,0.0,17739,24318,21924,31339,36690,0
0.0,0.0,0.0,17739,24271,21967,31339,36690,0
0.0,0.0,0.0,17704,24152,21924,31370,36690,0
0.0,0.0,0.0,17704,24294,21903,31370,36614,0
0.0,0.0,0.0,17600,24271,22010,30900,36614,0
0.0,0.0,0.0,17704,24271,21903,31370,36690,0
0.0,0.0,0.0,17634,24318,21924,31339,36499,0
0.0,0.0,0.0,17634,24271,21946,31339,36614,0
0.0,0.0,0.0,17634,24271,21882,31339,36614,0
0.0,0.0,0.0,17687,24271,21882,31370,36690,0
0.0,0.0,0.0,17634,24247,21924,31402,36576,0
0.0,0.0,0.0,17600,24271,21924,31339,36499,0
0.0,0.0,0.0,17634,24271,22010,30869,36576,0
0.0,0.0,0.0,17634,24294,21924,31370,36614,0
0.0,0.0,0.0,17634,24318,21924,31339,36614,0
0.0,0.0,0.0,17600,24271,21882,31339,36614,0
0.0,0.0,0.0,17634,24271,21946,31402,36538,0
0.0,0.0,0.0,17582,24223,21903,31370,36614,0
0.0,0.0,0.0,17634,24247,21924,31370,36538,0
0.0,0.0,0.0,17634,24247,21903,31339,36538,0
0.0,0.0,0.0,17565,24247,21882,31434,36652,0
0.0,0.0,0.0,17617,24223,22010,30869,36614,0
0.0,0.0,0.0,17565,24271,21903,31370,36499,0
0.0,0.0,0.0,17582,24271,21903,31370,36614,0
0.0,0.0,0.0,17600,24223,21967,31402,36614,0
0.0,0.0,0.0,17634,24176,21882,31402,36690,0
0.0,0.0,0.0,17600,24223,21924,31339,36538,0
0.0,0.0,0.0,17582,24199,21903,31370,36538,0
0.0,0.0,0.0,17617,24176,21882,31402,36652,0
0.0,0.0,0.0,17634,24223,21882,31276,36614,0
0.0,0.0,0.0,17634,24223,21924,31307,36576,0
0.0,0.0,0.0,17634,24223,21882,31339,36614,0
0.0,0.0,0.0,17669,24223,21882,31339,36690,0
0.0,0.0,0.0,17634,24176,21946,31402,36614,0
0.0,0.0,0.0,17634,24223,21924,31370,36690,0
0.0,0.0,0.0,17634,24176,21903,31370,36690,0
0.0,0.0,0.0,17634,24105,21903,31339,36728,0
0.0,0.0,0.0,17652,24176,21903,31370,36690,0
0.0,0.0,0.0,17669,24176,21924,31339,36690,0
0.0,0.0,0.0,17774,24223,22010,30900,36690,0
0.0,0.0,0.0,17845,24105,21924,31402,36690,0
0.0,0.0,0.0,17792,24176,21946,31339,36690,0
0.0,0.0,0.0,17809,24105,21946,31370,36690,0
0.0,0.0,0.0,17792,24081,21882,31339,36690,0
0.0,0.0,0.0,17792,24152,21903,31276,36690,0
0.0,0.0,0.0,17757,24129,21882,31339,36614,0
0.0,0.0,0.0,17722,24081,21839,31307,36614,0
0.0,0.0,0.0,17739,24081,21882,31276,36614,0
0.0,0.0,0.0,17792,24081,21882,31244,36614,0
0.0,0.0,0.0,17792,24034,21903,31276,36576,0
0.0,0.0,0.0,17774,24105,21882,31244,36652,0
0.0,0.0,0.0,17827,24105,21882,31307,36690,0
0.0,0.0,0.0,17792,24034,21903,31339,36538,0
0.0,0.0,0.0,17774,24058,21903,31307,36728,0
0.0,0.0,0.0,17739,24058,21882,31276,36576,0
0.0,0.0,0.0,17774,24081,21882,31213,36614,0
0.0,0.0,0.0,17774,24034,21839,31244,36538,0
0.0,0.0,0.0,17739,24081,21882,31244,36538,0
0.0,0.0,0.0,17722,24058,21882,31213,36538,0
0.0,0.0,0.0,17722,24081,21903,31244,36538,0
0.0,0.0,0.0,17739,24081,21839,31213,36499,0
0.0,0.0,0.0,17722,24034,21860,31213,36499,0
0.0,0.0,0.0,17704,24034,21839,31244,36499,0
0.0,0.0,0.0,17704,24081,21882,31213,36499,0
0.0,0.0,0.0,17669,24081,21882,31213,36614,0
0.0,0.0,0.0,17652,24034,21882,31213,36576,0
0.0,0.0,0.0,17634,24058,21882,31244,36576,0
0.0,0.0,0.0,17669,24058,21860,31213,36538,0
0.0,0.0,0.0,17704,24034,21882,31276,36538,0
0.0,0.0,0.0,17652,24058,21818,31213,36538,0
0.0,0.0,0.0,17634,24058,21860,31244,36614,0
0.0,0.0,0.0,17652,24034,21818,31213,36576,0
0.0,0.0,0.0,17634,24058,21882,31276,36576,0
0.0,0.0,0.0,17634,24081,21839,31181,36614,0
0.0,0.0,0.0,17617,24081,21882,31181,36462,0
0.0,0.0,0.0,17600,24058,21882,31276,36499,0
0.0,0.0,0.0,17600,24081,21818,31181,36499,0
0.0,0.0,0.0,17600,24058,21882,31181,36576,0
0.0,0.0,0.0,17582,24081,21860,31213,36538,0
0.0,0.0,0.0,17634,24176,21903,31244,36614,0
0.0,0.0,0.0,17565,24105,21839,31213,36499,0
0.0,0.0,0.0,17565,24081,21818,31181,36462,0
0.0,0.0,0.0,17565,24081,21839,31213,36538,0
0.0,0.0,0.0,17530,24105,21818,31181,36462,0
0.0,0.0,0.0,17565,24058,21839,31213,36499,0
0.0,0.0,0.0,17530,24129,21818,31213,36462,0
0.0,0.0,0.0,17565,24129,21860,31181,36499,0
0.0,0.0,0.0,17513,24034,21839,31150,36462,0
0.0,0.0,0.0,17530,24081,21818,31213,36462,0
0.0,0.0,0.0,17565,24034,21818,31213,36462,0
0.0,0.0,0.0,17565,24081,21839,31181,36499,0
0.0,0.0,0.0,17547,24058,21818,31181,36462,0
0.0,0.0,0.0,17513,24081,21882,31181,36538,0
0.0,0.0,0.0,17495,24081,21796,31150,36462,0
0.0,0.0,0.0,17513,24105,21796,31150,36499,0
0.0,0.0,0.0,17530,24152,21818,31181,36424,0
0.0,0.0,0.0,17530,24129,21818,31150,36499,0
0.0,0.0,0.0,17530,24081,21882,31213,36538,0
0.0,0.0,0.0,17565,24105,21796,31213,36462,0
0.0,0.0,0.0,17530,24081,21860,31213,36462,0
0.0,0.0,0.0,17513,24081,21796,31150,36462,0
0.0,0.0,0.0,17513,24105,21796,31150,36499,0
0.0,0.0,0.0,17530,24105,21796,31119,36462,0
0.0,0.0,0.0,17495,24129,21796,31119,36424,0
0.0,0.0,0.0,17530,24058,21818,31213,36538,0
0.0,0.0,0.0,17495,24129,21818,31150,36499,0
0.0,0.0,0.0,17530,24081,21839,31150,36462,0
0.0,0.0,0.0,17513,24081,21818,31119,36348,0
0.0,0.0,0.0,17495,24105,21818,31119,36348,0
0.0,0.0,0.0,17513,24081,21796,31119,36348,0
0.0,0.0,0.0,17513,24081,21796,31119,36386,0
0.0,0.0,0.0,17461,24129,21818,31213,36499,0
0.0,0.0,0.0,17547,24081,21839,31150,36462,0
0.0,0.0,0.0,17495,24034,21818,31150,36386,0
0.0,0.0,0.0,17495,24058,21818,31150,36499,0
0.0,0.0,0.0,17513,24034,21860,31213,36462,0
0.0,0.0,0.0,17461,24058,21796,31150,36348,0
0.0,0.0,0.0,17461,24105,21796,31150,36348,0
0.0,0.0,0.0,17495,24058,21839,31150,36386,0
0.0,0.0,0.0,17495,24081,21796,31119,36386,0
0.0,0.0,0.0,17495,24105,21839,31213,36462,0
0.0,0.0,0.0,17461,24034,21796,31119,36386,0
0.0,0.0,0.0,17495,24081,21796,31119,36348,0
0.0,0.0,0.0,17443,24034,21818,31119,36310,0
0.0,0.0,0.0,17478,24081,21860,31150,36424,0
0.0,0.0,0.0,17426,24058,21796,31150,36386,0
0.0,0.0,0.0,17495,24058,21818,31087,36462,0
0.0,0.0,0.0,17478,24081,21818,31119,36348,0
0.0,0.0,0.0,17426,24034,21818,31150,36348,0
0.0,0.0,0.0,17443,24058,21818,31119,36386,0
0.0,0.0,0.0,17461,24034,21818,31181,36424,0
0.0,0.0,0.0,17461,24058,21796,31150,36499,0
0.0,0.0,0.0,17461,24081,21796,31150,36462,0
0.0,0.0,0.0,17478,24058,21796,31056,36462,0
0.0,0.0,0.0,17461,24034,21818,31087,36462,0
0.0,0.0,0.0,17461,24034,21796,31087,36348,0
0.0,0.0,0.0,17461,24081,21796,31087,36462,0
0.0,0.0,0.0,17495,24058,21818,31087,36462,0
0.0,0.0,0.0,17461,24034,21818,31087,36386,0
0.0,0.0,0.0,17461,24034,21796,31150,36462,0
0.0,0.0,0.0,17443,24034,21818,31087,36310,0
0.0,0.0,0.0,17426,24034,21818,31087,36348,0
0.0,0.0,0.0,17495,24034,21796,31119,36386,0
0.0,0.0,0.0,17426,24034,21796,31087,36462,0
0.0,0.0,0.0,17443,24034,21818,31087,36310,0
0.0,0.0,0.0,17426,24034,21796,31119,36310,0
0.0,0.0,0.0,17426,24058,21796,31150,36462,0
0.0,0.0,0.0,17443,24034,21796,31150,36462,0
0.0,0.0,0.0,17461,24011,21882,31119,36386,0
0.0,0.0,0.0,17461,24058,21796,31087,36310,0
0.0,0.0,0.0,17426,24034,21796,31087,36348,0
0.0,0.0,0.0,17426,24034,21796,31056,36462,0
0.0,0.0,0.0,17443,24034,21796,31056,36348,0
0.0,0.0,0.0,17426,23987,21796,31150,36310,0
0.0,0.0,0.0,17426,24034,21818,31119,36310,0
0.0,0.0,0.0,17426,24081,21796,31087,36272,0
0.0,0.0,0.0,17426,24034,21796,31087,36462,0
0.0,0.0,0.0,17426,24034,21796,31087,36462,0
0.0,0.0,0.0,17426,24034,21796,31119,36499,0
0.0,0.0,0.0,17426,24034,21754,31119,36348,0
0.0,0.0,0.0,17426,24034,21796,31087,36386,0
0.0,0.0,0.0,17426,24058,21775,31056,36386,0
0.0,0.0,0.0,17426,24034,21754,31087,36386,0
0.0,0.0,0.0,17409,24034,21796,31119,36462,0
0.0,0.0,0.0,17426,24011,21796,31087,36386,0
0.0,0.0,0.0,17426,24011,21796,31025,36348,0
0.0,0.0,0.0,17426,23987,21754,31056,36462,0
0.0,0.0,0.0,17426,24011,21796,31150,36386,0
0.0,0.0,0.0,17443,24034,21818,31087,36462,0
0.0,0.0,0.0,17443,24011,21796,31119,36386,0
0.0,0.0,0.0,17461,23987,21796,31087,36462,0
0.0,0.0,0.0,17461,24034,21796,31025,36462,0
0.0,0.0,0.0,17426,24034,21775,31056,36386,0
0.0,0.0,0.0,17461,23987,21796,31056,36462,0
0.0,0.0,0.0,17443,24034,21796,31119,36348,0
0.0,0.0,0.0,17426,23964,21796,31087,36462,0
0.0,0.0,0.0,17443,24011,21818,31087,36348,0
0.0,0.0,0.0,17409,24034,21754,31025,36348,0
0.0,0.0,0.0,17426,23987,21796,31087,36386,0
0.0,0.0,0.0,17443,24034,21754,31087,36386,0
0.0,0.0,0.0,17443,23987,21818,31087,36348,0
0.0,0.0,0.0,17426,24034,21796,31087,36386,0
0.0,0.0,0.0,17461,23987,21818,31087,36462,0
0.0,0.0,0.0,17426,24058,21775,31025,36348,0
0.0,0.0,0.0,17426,23964,21796,31056,36348,0
0.0,0.0,0.0,17426,24034,21796,31087,36462,0
0.0,0.0,0.0,17461,24034,21754,31119,36348,0
0.0,0.0,0.0,17443,24011,21775,31087,36386,0
0.0,0.0,0.0,17443,23940,21818,31087,36348,0
0.0,0.0,0.0,17426,24011,21796,31087,36424,0
0.0,0.0,0.0,17426,24011,21754,31025,36310,0
0.0,0.0,0.0,17443,24011,21796,31025,36462,0
0.0,0.0,0.0,17443,23987,21796,31025,36386,0
0.0,0.0,0.0,17461,23987,21775,31025,36386,0
0.0,0.0,0.0,17426,23964,21796,30994,36424,0
0.0,0.0,0.0,17443,23987,21796,31087,36310,0
0.0,0.0,0.0,17426,23964,21796,31025,36386,0
0.0,0.0,0.0,17426,23987,21796,31025,36348,0
0.0,0.0,0.0,17443,23940,21754,31087,36386,0
0.0,0.0,0.0,17409,23987,21796,31025,36348,0
0.0,0.0,0.0,17443,23940,21775,31025,36348,0
0.0,0.0,0.0,17426,23987,21775,30994,36348,0
0.0,0.0,0.0,17426,23964,21754,30994,36310,0
0.0,0.0,0.0,17426,23987,21796,30994,36386,0
0.0,0.0,0.0,17426,24034,21775,30962,36310,0
0.0,0.0,0.0,17426,23940,21796,31025,36348,0
0.0,0.0,0.0,17443,24011,21733,30994,36197,0
0.0,0.0,0.0,17426,23964,21754,30994,36310,0
0.0,0.0,0.0,17426,23987,21754,31025,36348,0
0.0,0.0,0.0,17426,23940,21733,30962,36348,0
0.0,0.0,0.0,17443,23964,21733,30962,36348,0
0.0,0.0,0.0,17426,23987,21754,30962,36386,0
0.0,0.0,0.0,17426,23987,21754,31025,36424,0
0.0,0.0,0.0,17426,23940,21775,30994,36310,0
0.0,0.0,0.0,17426,23940,21754,31087,36310,0
0.0,0.0,0.0,17426,23940,21796,31056,36386,0
0.0,0.0,0.0,17374,23940,21796,31056,36310,0
0.0,0.0,0.0,17426,23940,21775,30994,36462,0
0.0,0.0,0.0,17357,23964,21754,30962,36310,0
0.0,0.0,0.0,17392,23940,21775,30962,36348,0
0.0,0.0,0.0,17426,23964,21775,30994,36310,0
0.0,0.0,0.0,17392,23964,21754,31087,36348,0
0.0,0.0,0.0,17374,23940,21754,30994,36272,0
0.0,0.0,0.0,17374,23964,21754,30994,36310,0
0.0,0.0,0.0,17426,23940,21775,30994,36310,0
0.0,0.0,0.0,17409,23940,21775,30994,36348,0
0.0,0.0,0.0,17426,23940,21733,30994,36310,0
0.0,0.0,0.0,17426,23940,21796,30994,36310,0
0.0,0.0,0.0,17409,23940,21796,30962,36235,0
0.0,0.0,0.0,17426,23940,21775,30994,36310,0
0.0,0.0,0.0,17426,23917,21796,30994,36386,0
0.0,0.0,0.0,17392,23940,21796,30962,36272,0
0.0,0.0,0.0,17392,23894,21754,31025,36310,0
0.0,0.0,0.0,17374,23987,21796,30994,36310,0
0.0,0.0,0.0,17374,23894,21796,31025,36310,0
0.0,0.0,0.0,17374,23987,21775,31025,36310,0
0.0,0.0,0.0,17254,24058,21733,30900,36538,0
0.0,0.0,0.0,17220,24081,21733,30776,36998,0
0.0,0.0,0.0,17237,24058,21711,30715,37308,0
0.0,0.0,0.0,17289,24034,21733,30715,37230,0
0.0,0.0,0.0,17289,24058,21711,30715,37152,0
0.0,0.0,0.0,17289,23987,21711,30745,37152,0
0.0,0.0,0.0,17289,24034,21711,30745,37075,0
0.0,0.0,0.0,17289,23987,21690,30715,37114,0
0.0,0.0,0.0,17254,24034,21733,30653,36998,0
0.0,0.0,0.0,17289,24011,21690,30653,37075,0
0.0,0.0,0.0,17272,23987,21711,30715,37114,0
0.0,0.0,0.0,17306,23987,21733,30715,37152,0
0.0,0.0,0.0,17357,24034,21711,30715,37075,0
0.0,0.0,0.0,17374,24034,21711,30715,36998,0
0.0,0.0,0.0,17357,24058,21627,30715,36998,0
0.0,0.0,0.0,17392,24081,21711,30684,37075,0
0.0,0.0,0.0,17374,24034,21711,30684,37075,0
0.0,0.0,0.0,17426,24034,21648,30684,37075,0
0.0,0.0,0.0,17426,24011,21711,30776,36998,0
0.0,0.0,0.0,17426,24034,21669,30776,37036,0
0.0,0.0,0.0,17426,23964,21669,30684,37114,0
0.0,0.0,0.0,17374,23987,21711,30684,37036,0
0.0,0.0,0.0,17374,23987,21711,30715,36920,0
0.0,0.0,0.0,17426,23987,21627,30684,36998,0
0.0,0.0,0.0,17426,23987,21711,30715,36998,0
0.0,0.0,0.0,17426,24034,21711,30684,36959,0
0.0,0.0,0.0,17426,24034,21711,30622,36920,0
0.0,0.0,0.0,17374,23940,21733,30653,36882,0
0.0,0.0,0.0,17392,23987,21711,30653,36920,0
0.0,0.0,0.0,17374,23940,21754,30622,36920,0
0.0,0.0,0.0,17357,23940,21711,30591,36843,0
0.0,0.0,0.0,17409,23894,21733,30622,36998,0
0.0,0.0,0.0,17374,23940,21754,30622,36882,0
0.0,0.0,0.0,17289,23940,21690,30653,36920,0
0.0,0.0,0.0,17374,23894,21733,30653,36805,0
0.0,0.0,0.0,17374,23964,21711,30622,36805,0
0.0,0.0,0.0,17374,23894,21648,30591,36843,0
0.0,0.0,0.0,17374,23940,21733,30591,36805,0
0.0,0.0,0.0,17374,23870,21690,30653,36882,0
0.0,0.0,0.0,17357,23870,21711,30653,36843,0
0.0,0.0,0.0,17357,23917,21648,30622,36767,0
0.0,0.0,0.0,17357,23917,21711,30622,36767,0
0.0,0.0,0.0,17357,23894,21711,30622,36920,0
0.0,0.0,0.0,17374,23894,21711,30622,36767,0
0.0,0.0,0.0,17357,23894,21690,30653,36920,0
0.0,0.0,0.0,17323,23917,21669,30622,36843,0
0.0,0.0,0.0,17357,23917,21711,30591,36767,0
0.0,0.0,0.0,17374,23894,21711,30653,36805,0
0.0,0.0,0.0,17357,23894,21711,30653,36805,0
0.0,0.0,0.0,17357,23894,21711,30622,36805,0
0.0,0.0,0.0,17323,23847,21711,30653,36805,0
0.0,0.0,0.0,17357,23847,21711,30653,36690,0
0.0,0.0,0.0,17254,23800,21711,30591,36728,0
0.0,0.0,0.0,17289,23777,21733,30591,36767,0
0.0,0.0,0.0,17374,23707,21711,30591,36767,0
0.0,0.0,0.0,17409,23754,21648,30469,36805,0
0.0,0.0,0.0,17426,23707,21627,30469,36843,0
0.0,0.0,0.0,17409,23754,21627,30469,36805,0
0.0,0.0,0.0,17374,23661,21627,30377,36690,0
0.0,0.0,0.0,17392,23707,21627,30377,36843,0
0.0,0.0,0.0,17392,23684,21648,30408,36767,0
0.0,0.0,0.0,17392,23684,21627,30469,36767,0
0.0,0.0,0.0,17357,23707,21648,30408,36767,0
0.0,0.0,0.0,17374,23684,21627,30408,36690,0
0.0,0.0,0.0,17374,23661,21627,30469,36690,0
0.0,0.0,0.0,17323,23684,21648,30377,36614,0
0.0,0.0,0.0,17340,23730,21648,30408,36767,0
0.0,0.0,0.0,17357,23707,21627,30408,36690,0
0.0,0.0,0.0,17289,23684,21711,30499,36843,0
0.0,0.0,0.0,17289,23754,21690,30591,36805,0
0.0,0.0,0.0,17272,23754,21711,30838,36843,0
0.0,0.0,0.0,17254,23777,21711,31025,36805,0
0.0,0.0,0.0,17237,23754,21711,31213,36805,0
0.0,0.0,0.0,17272,23707,21648,31276,36767,0
0.0,0.0,0.0,17237,23707,21711,31276,36767,0
0.0,0.0,0.0,17220,23707,21711,31119,36652,0
0.0,0.0,0.0,17272,23661,21648,30900,36728,0
0.0,0.0,0.0,17220,23684,21648,30776,36690,0
0.0,0.0,0.0,17220,23730,21648,30715,36690,0
0.0,0.0,0.0,17220,23707,21627,30469,36690,0
0.0,0.0,0.0,17237,23661,21627,30653,36767,0
0.0,0.0,0.0,17220,23684,21627,30591,36690,0
0.0,0.0,0.0,17220,23754,21648,30591,36690,0
0.0,0.0,0.0,17220,23638,21648,30622,36538,0
0.0,0.0,0.0,17237,23754,21606,30591,36728,0
0.0,0.0,0.0,17220,23707,21627,30561,36690,0
0.0,0.0,0.0,17220,23684,21627,30591,36538,0
0.0,0.0,0.0,17254,23754,21606,30622,36690,0
0.0,0.0,0.0,17220,23684,21648,30591,36538,0
0.0,0.0,0.0,17220,23707,21627,30591,36538,0
0.0,0.0,0.0,17186,23684,21627,30591,36652,0
0.0,0.0,0.0,17186,23638,21627,30530,36499,0
0.0,0.0,0.0,17220,23661,21627,30591,36576,0
0.0,0.0,0.0,17203,23707,21627,30591,36538,0
0.0,0.0,0.0,17220,23661,21627,30530,36576,0
0.0,0.0,0.0,17169,23684,21627,30499,36462,0
0.0,0.0,0.0,17169,23684,21627,30591,36614,0
0.0,0.0,0.0,17152,23661,21606,30499,36538,0
0.0,0.0,0.0,17186,23661,21648,30530,36499,0
0.0,0.0,0.0,17186,23684,21627,30530,36538,0
0.0,0.0,0.0,17169,23661,21563,30499,36576,0
0.0,0.0,0.0,17186,23707,21627,30530,36462,0
0.0,0.0,0.0,17186,23661,21627,30591,36614,0
0.0,0.0,0.0,17220,23661,21606,30530,36499,0
0.0,0.0,0.0,17186,23661,21648,30561,36462,0
0.0,0.0,0.0,17203,23707,21627,30561,36576,0
0.0,0.0,0.0,17220,23661,21627,30561,36462,0
0.0,0.0,0.0,17186,23684,21606,30591,36462,0
0.0,0.0,0.0,17220,23661,21627,30561,36499,0
0.0,0.0,0.0,17186,23684,21606,30499,36499,0
0.0,0.0,0.0,17152,23661,21627,30530,36576,0
0.0,0.0,0.0,17152,23661,21627,30530,36424,0
0.0,0.0,0.0,17203,23661,21627,30561,36499,0
0.0,0.0,0.0,17220,23707,21606,30561,36462,0
0.0,0.0,0.0,17169,23684,21627,30499,36462,0
0.0,0.0,0.0,17186,23661,21648,30530,36462,0
0.0,0.0,0.0,17186,23661,21584,30499,36386,0
0.0,0.0,0.0,17169,23707,21606,30561,36499,0
0.0,0.0,0.0,17169,23707,21627,30499,36538,0
0.0,0.0,0.0,17169,23661,21627,30530,36538,0
0.0,0.0,0.0,17169,23661,21627,30530,36462,0
0.0,0.0,0.0,17220,23661,21584,30530,36538,0
0.0,0.0,0.0,17152,23661,21627,30499,36499,0
0.0,0.0,0.0,17220,23661,21627,30530,36499,0
0.0,0.0,0.0,17169,23684,21627,30499,36462,0
0.0,0.0,0.0,17186,23661,21606,30653,36499,0
0.0,0.0,0.0,17169,23661,21606,30469,36424,0
0.0,0.0,0.0,17169,23615,21627,30499,36462,0
0.0,0.0,0.0,17186,23661,21627,30530,36386,0
0.0,0.0,0.0,17152,23661,21627,30469,36462,0
0.0,0.0,0.0,17152,23661,21584,30469,36424,0
0.0,0.0,0.0,17186,23661,21627,30499,36499,0
0.0,0.0,0.0,17169,23615,21584,30469,36462,0
0.0,0.0,0.0,17169,23615,21648,30499,36538,0
0.0,0.0,0.0,17186,23615,21584,30469,36538,0
0.0,0.0,0.0,17186,23615,21584,30530,36499,0
0.0,0.0,0.0,17186,23684,21627,30499,36424,0
0.0,0.0,0.0,17186,23638,21627,30469,36424,0
0.0,0.0,0.0,17186,23684,21606,30561,36462,0
0.0,0.0,0.0,17186,23754,21542,30591,36462,0
0.0,0.0,0.0,17254,23777,21542,30622,36499,0
0.0,0.0,0.0,17306,23870,21627,30653,36538,0
0.0,0.0,0.0,17289,23917,21542,30622,36386,0
0.0,0.0,0.0,17357,23894,21542,30715,36614,0
0.0,0.0,0.0,17357,23940,21563,30715,36576,0
0.0,0.0,0.0,17323,23917,21542,30715,36424,0
0.0,0.0,0.0,17272,23894,21542,30653,36348,0
0.0,0.0,0.0,17272,23894,21542,30591,36538,0
0.0,0.0,0.0,17254,23870,21542,30684,36386,0
0.0,0.0,0.0,17254,23894,21542,30684,36348,0
0.0,0.0,0.0,17237,23847,21563,30622,36462,0
0.0,0.0,0.0,17220,23847,21542,30591,36310,0
0.0,0.0,0.0,17220,23824,21542,30653,36348,0
0.0,0.0,0.0,17306,23847,21542,30591,36310,0
0.0,0.0,0.0,17237,23800,21584,30715,36462,0
0.0,0.0,0.0,17220,23800,21563,30622,36310,0
0.0,0.0,0.0,17220,23847,21521,30530,36462,0
0.0,0.0,0.0,17186,23800,21542,30653,36310,0
0.0,0.0,0.0,17186,23847,21542,30622,36272,0
0.0,0.0,0.0,17186,23754,21521,30653,36348,0
0.0,0.0,0.0,17186,23847,21542,30591,36310,0
0.0,0.0,0.0,17220,23847,21563,30653,36310,0
0.0,0.0,0.0,17220,23847,21563,30561,36310,0
0.0,0.0,0.0,17289,23870,21754,30591,36462,0
0.0,0.0,0.0,17289,23847,21882,30653,36462,0
0.0,0.0,0.0,17289,23894,21882,30653,36462,0
0.0,0.0,0.0,17289,23847,21860,30653,36386,0
0.0,0.0,0.0,17272,23824,21818,30622,36462,0
0.0,0.0,0.0,17220,23824,21796,30591,36462,0
0.0,0.0,0.0,17186,23847,21754,30622,36348,0
0.0,0.0,0.0,17118,23800,21733,30622,36386,0
0.0,0.0,0.0,17084,23800,21648,30530,36462,0
0.0,0.0,0.0,17084,23847,21648,30591,36386,0
0.0,0.0,0.0,17084,23754,21627,30530,36462,0
0.0,0.0,0.0,17016,23777,21563,30530,36462,0
0.0,0.0,0.0,17033,23707,21584,30561,36538,0
0.0,0.0,0.0,17016,23754,21563,30499,36462,0
0.0,0.0,0.0,16915,23754,21606,30499,36386,0
0.0,0.0,0.0,17050,23730,21584,30499,36499,0
0.0,0.0,0.0,17016,23730,21563,30499,36499,0
0.0,0.0,0.0,16983,23754,21563,30469,36462,0
0.0,0.0,0.0,17016,23707,21584,30499,36424,0
0.0,0.0,0.0,17016,23754,21584,30530,36386,0
0.0,0.0,0.0,17016,23707,21584,30499,36348,0
0.0,0.0,0.0,17016,23707,21584,30530,36348,0
0.0,0.0,0.0,16983,23754,21563,30469,36424,0
0.0,0.0,0.0,17016,23730,21563,30499,36424,0
0.0,0.0,0.0,16983,23707,21542,30438,36424,0
0.0,0.0,0.0,17016,23707,21542,30469,36424,0
0.0,0.0,0.0,17016,23707,21584,30469,36310,0
0.0,0.0,0.0,17016,23754,21584,30408,36386,0
0.0,0.0,0.0,17016,23730,21563,30499,36462,0
0.0,0.0,0.0,17016,23707,21563,30469,36462,0
0.0,0.0,0.0,17016,23707,21563,30438,36386,0
0.0,0.0,0.0,16983,23707,21584,30469,36348,0
0.0,0.0,0.0,16966,23684,21563,30469,36386,0
0.0,0.0,0.0,16966,23684,21542,30438,36310,0
0.0,0.0,0.0,16983,23754,21584,30499,36348,0
0.0,0.0,0.0,17016,23707,21606,30499,36348,0
0.0,0.0,0.0,16983,23707,21542,30469,36272,0
0.0,0.0,0.0,17016,23661,21563,30469,36462,0
0.0,0.0,0.0,16966,23754,21542,30408,36310,0
0.0,0.0,0.0,16999,23661,21542,30469,36310,0
0.0,0.0,0.0,17033,23707,21563,30438,36386,0
0.0,0.0,0.0,17033,23754,21521,30499,36462,0
0.0,0.0,0.0,17084,23730,21500,30653,36499,0
0.0,0.0,0.0,17084,23707,21437,30591,36538,0
0.0,0.0,0.0,17016,23661,21542,30347,36538,0
0.0,0.0,0.0,16949,23684,21542,30286,36690,0
0.0,0.0,0.0,16882,23661,21627,30286,36805,0
0.0,0.0,0.0,16632,23684,21627,30226,36690,0
0.0,0.0,0.0,16417,23615,21627,30105,36690,0
0.0,0.0,0.0,16368,23592,21584,30165,36690,0
0.0,0.0,0.0,16287,23592,21500,30165,36690,0
0.0,0.0,0.0,16109,23477,21395,29984,36843,0
0.0,0.0,0.0,16012,23431,21333,29835,36920,0
0.0,0.0,0.0,16028,23316,21229,29805,36998,0
0.0,0.0,0.0,16093,23271,21229,29686,36920,0
0.0,0.0,0.0,16109,23294,21229,29597,36805,0
0.0,0.0,0.0,16222,23362,21416,29657,36767,0
0.0,0.0,0.0,16368,23431,21648,30015,36576,0
0.0,0.0,0.0,16915,23522,21669,30045,36499,0
0.0,0.0,0.0,17016,23546,21563,30105,36462,0
0.0,0.0,0.0,17118,23522,21500,30226,36462,0
0.0,0.0,0.0,17135,23477,21458,30347,36614,0
0.0,0.0,0.0,17152,23477,21375,30499,36690,0
0.0,0.0,0.0,17118,23477,21375,30499,36728,0
0.0,0.0,0.0,17084,23431,21291,30469,36767,0
0.0,0.0,0.0,16966,23339,21333,30286,36614,0
0.0,0.0,0.0,16949,23431,21416,30075,36690,0
0.0,0.0,0.0,16898,23431,21458,29984,36767,0
0.0,0.0,0.0,16898,23522,21542,29925,36690,0
0.0,0.0,0.0,16865,23522,21479,29984,36576,0
0.0,0.0,0.0,16882,23477,21500,29984,36462,0
0.0,0.0,0.0,16831,23431,21375,30286,36538,0
0.0,0.0,0.0,16848,23431,21375,30377,36614,0
0.0,0.0,0.0,16815,23431,21333,30286,36614,0
0.0,0.0,0.0,16748,23339,21312,30075,36424,0
0.0,0.0,0.0,16698,23385,21333,30015,36462,0
0.0,0.0,0.0,16681,23522,21458,29984,36462,0
0.0,0.0,0.0,16781,23638,21437,30105,36462,0
0.0,0.0,0.0,16815,23615,21437,30165,36386,0
0.0,0.0,0.0,16815,23431,21416,30226,36462,0
0.0,0.0,0.0,16781,23431,21395,30286,36386,0
0.0,0.0,0.0,16815,23385,21375,30317,36462,0
0.0,0.0,0.0,16815,23431,21375,30286,36386,0
0.0,0.0,0.0,16815,23385,21333,30165,36272,0
0.0,0.0,0.0,16781,23385,21333,30226,36310,0
0.0,0.0,0.0,16765,23339,21333,30226,36348,0
0.0,0.0,0.0,16815,23339,21312,30165,36348,0
0.0,0.0,0.0,16781,23316,21312,30165,36310,0
0.0,0.0,0.0,16765,23385,21333,30165,36348,0
0.0,0.0,0.0,16781,23385,21291,30165,36235,0
0.0,0.0,0.0,16765,23385,21291,30226,36235,0
0.0,0.0,0.0,16781,23316,21312,30165,36235,0
0.0,0.0,0.0,16781,23362,21291,30165,36272,0
0.0,0.0,0.0,16765,23339,21333,30226,36310,0
0.0,0.0,0.0,16748,23385,21291,30165,36235,0
0.0,0.0,0.0,16748,23362,21291,30165,36310,0
0.0,0.0,0.0,16748,23522,21291,30105,36235,0
0.0,0.0,0.0,16698,23661,21333,30195,36235,0
0.0,0.0,0.0,16831,23707,21416,30226,36160,0
0.0,0.0,0.0,17118,23707,21416,30256,36310,0
0.0,0.0,0.0,17186,23707,21416,30256,36235,0
0.0,0.0,0.0,17237,23754,21458,30286,36235,0
0.0,0.0,0.0,17118,23707,21437,30286,36310,0
0.0,0.0,0.0,16287,23707,21458,30347,36348,0
0.0,0.0,0.0,16157,23661,21479,30408,36348,0
0.0,0.0,0.0,16287,23661,21458,30438,36538,0
0.0,0.0,0.0,15741,23661,21416,30377,36499,0
0.0,0.0,0.0,14726,23454,21375,30226,36690,0
0.0,0.0,0.0,14473,23477,21354,30165,36576,0
0.0,0.0,0.0,14711,23522,21291,30165,36576,0
0.0,0.0,0.0,15058,23661,21312,30135,36690,0
0.0,0.0,0.0,15196,23661,21291,30045,36614,0
0.0,0.0,0.0,15304,23707,21291,30165,36690,0
0.0,0.0,0.0,15335,23684,21291,30105,36499,0
0.0,0.0,0.0,15366,23615,21229,30105,36614,0
0.0,0.0,0.0,15335,23592,21291,30105,36614,0
0.0,0.0,0.0,15258,23569,21291,30045,36499,0
0.0,0.0,0.0,15273,23569,21250,30075,36462,0
0.0,0.0,0.0,15242,23522,21291,30105,36538,0
0.0,0.0,0.0,15227,23499,21229,30045,36538,0
0.0,0.0,0.0,15242,23477,21229,30045,36499,0
0.0,0.0,0.0,15288,23499,21250,30045,36348,0
0.0,0.0,0.0,15350,23499,21291,30105,36386,0
0.0,0.0,0.0,15428,23499,21229,30165,36462,0
0.0,0.0,0.0,15459,23499,21229,30165,36424,0
0.0,0.0,0.0,15459,23522,21250,30105,36462,0
0.0,0.0,0.0,15475,23477,21270,30226,36348,0
0.0,0.0,0.0,15475,23454,21250,30075,36348,0
0.0,0.0,0.0,15459,23477,21229,30105,36310,0
0.0,0.0,0.0,15428,23477,21291,30075,36310,0
0.0,0.0,0.0,15397,23385,21291,30075,36310,0
0.0,0.0,0.0,15335,23385,21354,30075,36386,0
0.0,0.0,0.0,15304,23431,21333,30165,36386,0
0.0,0.0,0.0,15304,23431,21333,30045,36348,0
0.0,0.0,0.0,15288,23385,21291,30105,36235,0
0.0,0.0,0.0,15335,23385,21333,30105,36386,0
0.0,0.0,0.0,15304,23362,21333,30075,36462,0
0.0,0.0,0.0,15288,23362,21333,30105,36310,0
0.0,0.0,0.0,15288,23339,21312,30045,36348,0
0.0,0.0,0.0,15288,23339,21291,30015,36310,0
0.0,0.0,0.0,15273,23316,21291,30015,36310,0
0.0,0.0,0.0,15288,23385,21291,30045,36310,0
0.0,0.0,0.0,15288,23362,21291,30045,36386,0
0.0,0.0,0.0,15288,23316,21291,30045,36310,0
0.0,0.0,0.0,15288,23362,21312,29984,36197,0
0.0,0.0,0.0,15288,23316,21291,29984,36197,0
0.0,0.0,0.0,15288,23385,21291,29984,36235,0
0.0,0.0,0.0,15288,23294,21291,30045,36348,0
0.0,0.0,0.0,15273,23339,21270,30045,36235,0
0.0,0.0,0.0,15273,23294,21312,30105,36348,0
0.0,0.0,0.0,15273,23271,21291,30045,36424,0
0.0,0.0,0.0,15288,23294,21291,30045,36348,0
0.0,0.0,0.0,15288,23294,21291,30015,36386,0
0.0,0.0,0.0,15273,23294,21291,30105,36386,0
0.0,0.0,0.0,15273,23316,21291,30045,36462,0
0.0,0.0,0.0,15273,23294,21333,30045,36348,0
0.0,0.0,0.0,15258,23316,21312,30015,36310,0
0.0,0.0,0.0,15273,23294,21291,30015,36310,0
0.0,0.0,0.0,15273,23294,21270,30015,36310,0
0.0,0.0,0.0,15227,23294,21291,30015,36272,0
0.0,0.0,0.0,15273,23294,21291,30045,36272,0
0.0,0.0,0.0,15227,23294,21312,30015,36310,0
0.0,0.0,0.0,15273,23294,21291,29984,36310,0
0.0,0.0,0.0,15227,23248,21291,30015,36386,0
0.0,0.0,0.0,15227,23248,21270,29984,36310,0
0.0,0.0,0.0,15242,23294,21333,30015,36348,0
0.0,0.0,0.0,15273,23248,21291,30015,36310,0
0.0,0.0,0.0,15273,23294,21270,30015,36310,0
0.0,0.0,0.0,15273,23294,21291,29984,36348,0
0.0,0.0,0.0,15273,23316,21291,29984,36272,0
0.0,0.0,0.0,15242,23248,21291,30045,36235,0
0.0,0.0,0.0,15288,23294,21270,30015,36310,0
0.0,0.0,0.0,15288,23248,21291,29984,36235,0
0.0,0.0,0.0,15273,23225,21291,30015,36310,0
0.0,0.0,0.0,15273,23248,21291,29984,36197,0
0.0,0.0,0.0,15273,23248,21312,29984,36235,0
0.0,0.0,0.0,15288,23248,21291,30015,36310,0
0.0,0.0,0.0,15273,23225,21250,29984,36310,0
0.0,0.0,0.0,15288,23203,21250,29984,36272,0
0.0,0.0,0.0,15273,23203,21291,30015,36310,0
0.0,0.0,0.0,15288,23248,21291,29984,36310,0
0.0,0.0,0.0,15273,23248,21291,30045,36310,0
0.0,0.0,0.0,15273,23225,21291,29984,36197,0
0.0,0.0,0.0,15304,23225,21250,29955,36235,0
0.0,0.0,0.0,15273,23248,21291,30015,36197,0
0.0,0.0,0.0,15288,23225,21250,29925,36235,0
0.0,0.0,0.0,15288,23203,21291,29955,36197,0
