GyroX,GyroY,GyroZ,Thumb,Index,Middle,Ring,Pinky,Gesture
0.0,0.0,0.0,12797,18182,10771,13622,13566,1
0.0,0.0,0.0,12824,18200,10783,13735,13566,1
0.0,0.0,0.0,12810,18200,10748,13735,13524,1
0.0,0.0,0.0,12770,18200,10724,13622,13538,1
0.0,0.0,0.0,12636,18236,10676,13510,13538,1
0.0,0.0,0.0,12556,18236,10676,13426,13566,1
0.0,0.0,0.0,12543,18182,10676,13191,13580,1
0.0,0.0,0.0,12530,18182,10641,13122,13594,1
0.0,0.0,0.0,12530,18147,10641,13081,13566,1
0.0,0.0,0.0,12438,18129,10641,13122,13482,1
0.0,0.0,0.0,12424,18129,10641,13122,13482,1
0.0,0.0,0.0,12398,18200,10594,13109,13412,1
0.0,0.0,0.0,12385,18290,10535,13068,13315,1
0.0,0.0,0.0,12306,18272,10464,12999,13315,1
0.0,0.0,0.0,12267,18362,10418,12905,13287,1
0.0,0.0,0.0,12241,18562,10359,12878,13232,1
0.0,0.0,0.0,12215,18764,10348,12878,13232,1
0.0,0.0,0.0,12267,18875,10348,12864,13177,1
0.0,0.0,0.0,12215,18894,10313,12851,13205,1
0.0,0.0,0.0,12189,18931,10267,12783,13177,1
0.0,0.0,0.0,12189,18968,10209,12649,13122,1
0.0,0.0,0.0,12163,19043,10174,12610,13068,1
0.0,0.0,0.0,12112,19061,10117,12596,13013,1
0.0,0.0,0.0,12060,19005,10037,12583,13013,1
0.0,0.0,0.0,12009,19024,9980,12530,12986,1
0.0,0.0,0.0,11983,18949,9912,12504,12918,1
0.0,0.0,0.0,11944,18968,9845,12424,12932,1
0.0,0.0,0.0,11957,18894,9811,12398,12905,1
0.0,0.0,0.0,11957,18894,9777,12320,12864,1
0.0,0.0,0.0,11957,18875,9733,12267,12864,1
0.0,0.0,0.0,11957,18857,9710,12267,12864,1
0.0,0.0,0.0,11957,18801,9666,12228,12851,1
0.0,0.0,0.0,11919,18801,9632,12189,12783,1
0.0,0.0,0.0,11932,18801,9632,12150,12797,1
0.0,0.0,0.0,11906,18783,9621,12099,12770,1
0.0,0.0,0.0,11893,18783,9621,12060,12797,1
0.0,0.0,0.0,11868,18783,9610,12047,12770,1
0.0,0.0,0.0,11855,18746,9610,12009,12770,1
0.0,0.0,0.0,11855,18783,9599,11970,12756,1
0.0,0.0,0.0,11842,18746,9588,11906,12730,1
0.0,0.0,0.0,11830,18709,9599,11919,12703,1
0.0,0.0,0.0,11830,18709,9599,11842,12770,1
0.0,0.0,0.0,11817,18727,9599,11779,12730,1
0.0,0.0,0.0,11830,18709,9588,11728,12716,1
0.0,0.0,0.0,11817,18654,9599,11703,12716,1
0.0,0.0,0.0,11881,18709,9610,11716,12756,1
0.0,0.0,0.0,12009,18709,9588,11703,12851,1
0.0,0.0,0.0,11906,18654,9588,11665,12810,1
0.0,0.0,0.0,11881,18672,9588,11653,12851,1
0.0,0.0,0.0,11881,18672,9588,11603,12851,1
0.0,0.0,0.0,11855,18654,9588,11503,12864,1
0.0,0.0,0.0,11804,18672,9621,11428,12918,1
0.0,0.0,0.0,11804,18709,9621,11403,12959,1
0.0,0.0,0.0,11804,18746,9621,11465,12972,1
0.0,0.0,0.0,11804,18746,9677,11528,13068,1
0.0,0.0,0.0,11804,18783,9800,11603,13177,1
0.0,0.0,0.0,11817,18783,9800,11665,13122,1
0.0,0.0,0.0,11804,18746,9800,11766,13136,1
0.0,0.0,0.0,11792,18746,9777,11855,13095,1
0.0,0.0,0.0,11779,18764,9755,11804,13136,1
0.0,0.0,0.0,11754,18746,9733,11906,13177,1
0.0,0.0,0.0,11754,18727,9710,12086,13665,1
0.0,0.0,0.0,11716,18709,9666,12150,13878,1
0.0,0.0,0.0,11703,18746,9654,12112,13566,1
0.0,0.0,0.0,11665,18709,9643,12060,13246,1
0.0,0.0,0.0,11665,18709,9621,12021,13040,1
0.0,0.0,0.0,11653,18635,9632,11983,12972,1
0.0,0.0,0.0,11678,18635,9643,11944,12864,1
0.0,0.0,0.0,11653,18599,9632,11932,12743,1
0.0,0.0,0.0,11653,18581,9588,11893,12690,1
0.0,0.0,0.0,11665,18599,9599,11830,12690,1
0.0,0.0,0.0,11640,18562,9588,11766,12703,1
0.0,0.0,0.0,11615,18562,9588,11653,12770,1
0.0,0.0,0.0,11603,18526,9599,11603,12690,1
0.0,0.0,0.0,11578,18526,9588,11528,12743,1
0.0,0.0,0.0,11553,18562,9588,11366,12610,1
0.0,0.0,0.0,11553,18562,9577,11329,12424,1
0.0,0.0,0.0,11553,18526,9588,11268,12424,1
0.0,0.0,0.0,11565,18489,9588,11255,12372,1
0.0,0.0,0.0,11578,18435,9577,11255,12438,1
0.0,0.0,0.0,11653,18417,9588,11243,12756,1
0.0,0.0,0.0,11678,18417,9599,11280,12851,1
0.0,0.0,0.0,11703,18362,9588,11304,12905,1
0.0,0.0,0.0,11678,18362,9588,11341,12918,1
0.0,0.0,0.0,11703,18399,9599,11416,12918,1
0.0,0.0,0.0,11728,18544,9599,11453,12905,1
0.0,0.0,0.0,11728,18581,9577,11503,12905,1
0.0,0.0,0.0,12009,18783,9588,11565,12918,1
0.0,0.0,0.0,12215,19249,9599,11855,12959,1
0.0,0.0,0.0,12060,19043,9621,11906,13040,1
0.0,0.0,0.0,11403,17169,9610,11817,13027,1
0.0,0.0,0.0,11403,16368,9588,11830,13027,1
0.0,0.0,0.0,11754,17968,9599,11957,13122,1
0.0,0.0,0.0,12150,18635,9621,12112,13122,1
0.0,0.0,0.0,12346,18875,9980,12424,13150,1
0.0,0.0,0.0,12398,18968,10267,12530,13177,1
0.0,0.0,0.0,12464,18949,10394,12716,13191,1
0.0,0.0,0.0,12424,18894,10535,12986,13260,1
0.0,0.0,0.0,12530,18709,10546,13013,13205,1
0.0,0.0,0.0,12583,18727,10535,13013,13218,1
0.0,0.0,0.0,12543,18654,10535,12959,13205,1
0.0,0.0,0.0,12543,18672,10535,12932,13177,1
0.0,0.0,0.0,12649,18709,10488,12905,13232,1
0.0,0.0,0.0,12716,18783,10488,12959,13218,1
0.0,0.0,0.0,12743,18857,10453,13013,13177,1
0.0,0.0,0.0,12878,19043,10441,13287,13177,1
0.0,0.0,0.0,13013,19099,10441,13371,13177,1
0.0,0.0,0.0,13177,19766,10406,13343,13136,1
0.0,0.0,0.0,13343,20078,10371,13315,13109,1
0.0,0.0,0.0,13454,20058,10371,13315,13122,1
0.0,0.0,0.0,13468,19960,10394,13343,13122,1
0.0,0.0,0.0,13510,19882,10359,13371,13081,1
0.0,0.0,0.0,13524,19902,10359,13426,13122,1
0.0,0.0,0.0,13735,20216,10394,13510,13095,1
0.0,0.0,0.0,13764,20315,10418,13566,13095,1
0.0,0.0,0.0,13749,20395,10441,13580,13122,1
0.0,0.0,0.0,13594,20256,10441,13566,13109,1
0.0,0.0,0.0,13524,20117,10441,13580,13081,1
0.0,0.0,0.0,13398,19999,10429,13524,13150,1
0.0,0.0,0.0,13287,19882,10441,13566,13068,1
0.0,0.0,0.0,13205,19824,10418,13510,13109,1
0.0,0.0,0.0,13150,19785,10406,13524,13095,1
0.0,0.0,0.0,13122,19785,10429,13524,13068,1
0.0,0.0,0.0,13122,19785,10441,13566,13122,1
0.0,0.0,0.0,13122,19727,10441,13566,13068,1
0.0,0.0,0.0,13109,19746,10453,13566,13081,1
0.0,0.0,0.0,13068,19727,10488,13594,13122,1
0.0,0.0,0.0,12959,19766,10511,13398,13205,1
0.0,0.0,0.0,12743,19631,10453,13040,13343,1
0.0,0.0,0.0,12663,19650,10406,13013,13301,1
0.0,0.0,0.0,12543,19708,10209,12743,13122,1
0.0,0.0,0.0,12451,19612,9935,12504,12932,1
0.0,0.0,0.0,12451,19458,9856,12424,12797,1
0.0,0.0,0.0,12424,19401,9845,12411,12851,1
0.0,0.0,0.0,12359,19344,9800,12372,12864,1
0.0,0.0,0.0,12320,19306,9721,12320,12878,1
0.0,0.0,0.0,12320,19325,9688,12320,12824,1
0.0,0.0,0.0,12267,19268,9710,12293,12797,1
0.0,0.0,0.0,12280,19344,9599,11804,12743,1
0.0,0.0,0.0,12372,19382,9588,11416,12241,1
0.0,0.0,0.0,12372,19420,9533,11341,12112,1
0.0,0.0,0.0,12372,19497,9599,11280,12228,1
0.0,0.0,0.0,12398,19439,9599,11231,12241,1
0.0,0.0,0.0,12385,19382,9588,11231,12346,1
0.0,0.0,0.0,12372,19382,9599,11231,12346,1
0.0,0.0,0.0,12372,19382,9588,11255,12770,1
0.0,0.0,0.0,12372,19382,9577,11255,12959,1
0.0,0.0,0.0,12398,19344,9588,11255,13650,1
0.0,0.0,0.0,12385,19382,9577,11280,14108,1
0.0,0.0,0.0,12372,19420,9599,11280,14547,1
0.0,0.0,0.0,12372,19382,9599,11280,14726,1
0.0,0.0,0.0,12372,19401,9588,11268,14547,1
0.0,0.0,0.0,12372,19382,9588,11268,14488,1
0.0,0.0,0.0,12372,19363,9577,11304,15058,1
0.0,0.0,0.0,12372,19344,9577,11354,14756,1
0.0,0.0,0.0,12372,19382,9599,11329,14108,1
0.0,0.0,0.0,12372,19344,9599,11304,13693,1
0.0,0.0,0.0,12346,19382,9577,11304,13426,1
0.0,0.0,0.0,12320,19325,9599,11255,13260,1
0.0,0.0,0.0,12320,19306,9599,11219,13122,1
0.0,0.0,0.0,12293,19268,9599,11206,13027,1
0.0,0.0,0.0,12280,19231,9588,11182,12959,1
0.0,0.0,0.0,12280,19080,9599,11157,12851,1
0.0,0.0,0.0,12267,18968,9588,11157,12851,1
0.0,0.0,0.0,12267,18931,9588,11157,12797,1
0.0,0.0,0.0,12215,18894,9610,11157,12756,1
0.0,0.0,0.0,12215,18875,9610,11157,12690,1
0.0,0.0,0.0,12241,18857,9588,11133,12716,1
0.0,0.0,0.0,12215,18857,9577,11133,12690,1
0.0,0.0,0.0,12215,18857,9588,11121,12690,1
0.0,0.0,0.0,12215,18857,9588,11121,12649,1
0.0,0.0,0.0,12189,18820,9599,11133,12636,1
0.0,0.0,0.0,12215,18820,9599,11133,12610,1
0.0,0.0,0.0,12215,18820,9599,11133,12636,1
0.0,0.0,0.0,12215,18820,9588,11121,12623,1
0.0,0.0,0.0,12202,18820,9599,11109,12610,1
0.0,0.0,0.0,12215,18820,9588,11133,12583,1
0.0,0.0,0.0,12176,18820,9577,11121,12583,1
0.0,0.0,0.0,12215,18875,9577,11133,12543,1
0.0,0.0,0.0,12215,18912,9599,11109,12583,1
0.0,0.0,0.0,12202,18931,9588,11109,12583,1
0.0,0.0,0.0,12215,19005,9588,11121,12543,1
0.0,0.0,0.0,12163,18949,9599,11109,12530,1
0.0,0.0,0.0,12202,18912,9588,11084,12570,1
0.0,0.0,0.0,12215,18857,9588,11084,12556,1
0.0,0.0,0.0,12215,18857,9599,11109,12490,1
0.0,0.0,0.0,12189,18875,9599,11084,12530,1
0.0,0.0,0.0,12163,19024,9588,11096,12504,1
0.0,0.0,0.0,12163,19005,9588,11121,12583,1
0.0,0.0,0.0,12163,19005,9588,11194,12810,1
0.0,0.0,0.0,12163,18931,9621,11157,12851,1
0.0,0.0,0.0,12124,18987,9599,11206,13260,1
0.0,0.0,0.0,12124,18968,9588,11255,13246,1
0.0,0.0,0.0,12137,19005,9621,11317,13136,1
0.0,0.0,0.0,12124,19043,9599,11255,13136,1
0.0,0.0,0.0,12163,19080,9666,11109,13027,1
0.0,0.0,0.0,12215,19099,10026,11133,12986,1
0.0,0.0,0.0,12228,19061,10049,11109,12878,1
0.0,0.0,0.0,12241,19005,10003,11084,12797,1
0.0,0.0,0.0,12267,19005,9935,11084,12756,1
0.0,0.0,0.0,12215,18949,9912,11084,12716,1
0.0,0.0,0.0,12215,18931,9845,11109,12743,1
0.0,0.0,0.0,12215,19043,9588,11072,12972,1
0.0,0.0,0.0,12280,19043,9588,11060,12972,1
0.0,0.0,0.0,12320,18949,9599,11012,13081,1
0.0,0.0,0.0,12320,18949,9588,11012,13013,1
0.0,0.0,0.0,12320,18949,9599,11012,12959,1
0.0,0.0,0.0,12346,18931,9599,11012,12986,1
0.0,0.0,0.0,12228,18857,9599,11036,13622,1
0.0,0.0,0.0,12215,18801,9856,11060,13246,1
0.0,0.0,0.0,12189,18764,9811,11084,13150,1
0.0,0.0,0.0,12189,18783,9733,11060,13081,1
0.0,0.0,0.0,12189,18709,9677,11060,13095,1
0.0,0.0,0.0,12163,18783,9643,11060,13122,1
0.0,0.0,0.0,12189,18727,9621,11036,13122,1
0.0,0.0,0.0,12150,18783,9599,11024,13068,1
0.0,0.0,0.0,12163,18746,9610,11060,13068,1
0.0,0.0,0.0,12150,18691,9621,11024,13122,1
0.0,0.0,0.0,12112,18709,9599,11060,13068,1
0.0,0.0,0.0,12163,18709,9599,11060,13081,1
0.0,0.0,0.0,12137,18727,9599,11060,13095,1
0.0,0.0,0.0,12150,18691,9599,11060,13095,1
0.0,0.0,0.0,12124,18709,9610,11060,13122,1
0.0,0.0,0.0,12124,18691,9621,11072,13095,1
0.0,0.0,0.0,12112,18654,9599,11060,13068,1
0.0,0.0,0.0,12112,18654,9588,11060,13081,1
0.0,0.0,0.0,12163,18691,9599,11060,13095,1
0.0,0.0,0.0,12124,18709,9588,11060,13081,1
0.0,0.0,0.0,12124,18672,9599,11048,13081,1
0.0,0.0,0.0,12163,18709,9621,11072,13095,1
0.0,0.0,0.0,12124,18635,9621,11060,13068,1
0.0,0.0,0.0,12112,18654,9621,11060,13068,1
0.0,0.0,0.0,12124,18709,9621,11084,13081,1
0.0,0.0,0.0,12112,18672,9621,11084,13081,1
0.0,0.0,0.0,12112,18709,9588,11060,13095,1
0.0,0.0,0.0,12112,18654,9599,11084,13068,1
0.0,0.0,0.0,12112,18635,9599,11072,13122,1
0.0,0.0,0.0,12112,18672,9621,11060,13136,1
0.0,0.0,0.0,12060,18709,9599,11084,13177,1
0.0,0.0,0.0,12060,18654,9621,11060,13191,1
0.0,0.0,0.0,12086,18654,9610,11072,13136,1
0.0,0.0,0.0,12112,18654,9621,11084,13150,1
0.0,0.0,0.0,12073,18654,9610,11084,13177,1
0.0,0.0,0.0,12073,18654,9621,11084,13122,1
0.0,0.0,0.0,12060,18635,9610,11060,13136,1
0.0,0.0,0.0,12073,18635,9621,11060,13095,1
0.0,0.0,0.0,12073,18691,9621,11060,13150,1
0.0,0.0,0.0,12060,18691,9599,11072,13150,1
0.0,0.0,0.0,12086,18654,9621,11072,13177,1
0.0,0.0,0.0,12060,18709,9599,11109,13287,1
0.0,0.0,0.0,12060,18709,9599,11072,13287,1
0.0,0.0,0.0,12047,18709,9577,11024,13260,1
0.0,0.0,0.0,12086,18709,9599,11109,13343,1
0.0,0.0,0.0,12112,18709,9599,11133,13081,1
0.0,0.0,0.0,12112,18783,9588,11133,13054,1
0.0,0.0,0.0,12112,18820,9588,11157,13013,1
0.0,0.0,0.0,12112,18820,9599,11145,13081,1
0.0,0.0,0.0,12124,18838,9599,11109,13150,1
0.0,0.0,0.0,12163,18875,9588,11096,13068,1
0.0,0.0,0.0,12163,18857,9577,11084,12959,1
0.0,0.0,0.0,12163,18783,9599,11084,12905,1
0.0,0.0,0.0,12124,18783,9599,11084,12905,1
0.0,0.0,0.0,12163,18783,9599,11084,12878,1
0.0,0.0,0.0,12176,18783,9577,11072,12864,1
0.0,0.0,0.0,12124,18801,9599,11084,12864,1
0.0,0.0,0.0,12176,18746,9577,11072,12837,1
0.0,0.0,0.0,12150,18746,9588,11084,12837,1
0.0,0.0,0.0,12176,18783,9588,11072,12810,1
0.0,0.0,0.0,12163,18746,9588,11060,12810,1
0.0,0.0,0.0,12163,18709,9588,11072,12810,1
0.0,0.0,0.0,12163,18672,9599,11084,12824,1
0.0,0.0,0.0,12163,18709,9599,11084,12797,1
0.0,0.0,0.0,12163,18709,9588,11072,12810,1
0.0,0.0,0.0,12163,18672,9599,11072,12810,1
0.0,0.0,0.0,12163,18635,9599,11096,12810,1
0.0,0.0,0.0,12124,18654,9599,11060,12797,1
0.0,0.0,0.0,12124,18654,9588,11060,12797,1
0.0,0.0,0.0,12124,18635,9610,11060,12770,1
0.0,0.0,0.0,12137,18635,9599,11060,12770,1
0.0,0.0,0.0,12124,18635,9588,11060,12770,1
0.0,0.0,0.0,12124,18635,9577,11084,12797,1
0.0,0.0,0.0,12124,18654,9588,11060,12756,1
0.0,0.0,0.0,12112,18654,9588,11060,12797,1
0.0,0.0,0.0,12124,18635,9588,11060,12797,1
0.0,0.0,0.0,12112,18617,9588,11060,12797,1
0.0,0.0,0.0,12099,18599,9599,11060,12797,1
0.0,0.0,0.0,12112,18635,9599,11072,12797,1
0.0,0.0,0.0,12112,18617,9577,11084,12797,1
0.0,0.0,0.0,12086,18617,9588,11109,12770,1
0.0,0.0,0.0,12086,18617,9599,11084,12810,1
0.0,0.0,0.0,12099,18654,9577,11072,12810,1
0.0,0.0,0.0,12086,18617,9599,11109,12851,1
0.0,0.0,0.0,12086,18599,9588,11084,12864,1
0.0,0.0,0.0,12060,18599,9555,11109,12959,1
0.0,0.0,0.0,12060,18599,9588,11109,12959,1
0.0,0.0,0.0,12073,18562,9599,11109,12945,1
0.0,0.0,0.0,12060,18599,9588,11133,12972,1
0.0,0.0,0.0,12060,18599,9577,11121,13287,1
0.0,0.0,0.0,12021,18562,9599,11133,13707,1
0.0,0.0,0.0,12021,18562,9577,11145,13735,1
0.0,0.0,0.0,12009,18562,9588,11157,13749,1
0.0,0.0,0.0,12009,18526,9588,11157,13764,1
0.0,0.0,0.0,12009,18526,9588,11170,13707,1
0.0,0.0,0.0,12009,18562,9599,11157,13679,1
0.0,0.0,0.0,12021,18562,9588,11170,13594,1
0.0,0.0,0.0,12009,18562,9588,11170,13580,1
0.0,0.0,0.0,12009,18544,9599,11157,13580,1
0.0,0.0,0.0,12009,18562,9588,11170,13594,1
0.0,0.0,0.0,12009,18562,9599,11157,13566,1
0.0,0.0,0.0,12021,18562,9599,11206,13454,1
0.0,0.0,0.0,12009,18562,9599,11182,13454,1
0.0,0.0,0.0,12009,18581,9621,11194,13426,1
0.0,0.0,0.0,12009,18562,9599,11182,13426,1
0.0,0.0,0.0,11983,18562,9599,11182,13412,1
0.0,0.0,0.0,11983,18544,9599,11206,13412,1
0.0,0.0,0.0,11983,18508,9599,11206,13398,1
0.0,0.0,0.0,11983,18544,9599,11182,13398,1
0.0,0.0,0.0,12009,18544,9599,11182,13398,1
0.0,0.0,0.0,12009,18508,9599,11182,13426,1
0.0,0.0,0.0,12009,18544,9599,11182,13398,1
0.0,0.0,0.0,11983,18508,9588,11182,13412,1
0.0,0.0,0.0,11957,18489,9621,11206,13398,1
0.0,0.0,0.0,11855,18435,9599,11206,13398,1
0.0,0.0,0.0,11779,18362,9621,11206,13371,1
0.0,0.0,0.0,11779,18344,9621,11206,13343,1
0.0,0.0,0.0,11779,18290,9621,11219,13315,1
0.0,0.0,0.0,11754,18272,9621,11206,13343,1
0.0,0.0,0.0,11754,18272,9621,11231,13343,1
0.0,0.0,0.0,11766,18254,9621,11219,13343,1
0.0,0.0,0.0,11741,18236,9632,11255,13343,1
0.0,0.0,0.0,11754,18236,9643,11219,13287,1
0.0,0.0,0.0,11716,18236,9643,11231,13343,1
0.0,0.0,0.0,11716,18218,9666,11231,13343,1
0.0,0.0,0.0,11716,18236,9666,11219,13315,1
0.0,0.0,0.0,11716,18200,9666,11206,13329,1
0.0,0.0,0.0,11741,18236,9654,11219,13301,1
0.0,0.0,0.0,11754,18200,9666,11219,13343,1
0.0,0.0,0.0,11703,18200,9666,11219,13315,1
0.0,0.0,0.0,11728,18200,9677,11219,13343,1
0.0,0.0,0.0,11754,18236,9688,11219,13315,1
0.0,0.0,0.0,11728,18236,9688,11206,13371,1
0.0,0.0,0.0,11728,18200,9699,11206,13343,1
0.0,0.0,0.0,11754,18200,9721,11219,13357,1
0.0,0.0,0.0,11716,18200,9733,11206,13343,1
0.0,0.0,0.0,11716,18200,9755,11206,13343,1
0.0,0.0,0.0,11728,18200,9766,11206,13371,1
0.0,0.0,0.0,11716,18164,9755,11206,13371,1
0.0,0.0,0.0,11728,18200,9755,11206,13343,1
0.0,0.0,0.0,11716,18182,9766,11182,13343,1
0.0,0.0,0.0,11716,18200,9755,11206,13343,1
0.0,0.0,0.0,11703,18164,9777,11231,13329,1
0.0,0.0,0.0,11703,18164,9777,11206,13329,1
0.0,0.0,0.0,11716,18236,9811,11206,13315,1
0.0,0.0,0.0,11703,18164,9800,11206,13343,1
0.0,0.0,0.0,11703,18147,9811,11206,13371,1
0.0,0.0,0.0,11703,18164,9822,11219,13343,1
0.0,0.0,0.0,11716,18129,9811,11206,13343,1
0.0,0.0,0.0,11703,18164,9845,11219,13315,1
0.0,0.0,0.0,11703,18164,9856,11206,13343,1
0.0,0.0,0.0,11703,18129,9867,11206,13357,1
0.0,0.0,0.0,11703,18129,9890,11231,13315,1
0.0,0.0,0.0,11703,18129,9901,11231,13343,1
0.0,0.0,0.0,11678,18129,9890,11219,13343,1
0.0,0.0,0.0,11665,18147,9901,11219,13343,1
0.0,0.0,0.0,11678,18164,9890,11206,13329,1
0.0,0.0,0.0,11678,18147,9901,11231,13301,1
0.0,0.0,0.0,11678,18129,9935,11231,13301,1
0.0,0.0,0.0,11678,18129,9935,11255,13343,1
0.0,0.0,0.0,11628,18129,9980,11255,13343,1
0.0,0.0,0.0,11653,18129,9958,11255,13301,1
0.0,0.0,0.0,11653,18147,9935,11255,13301,1
0.0,0.0,0.0,11628,18111,9845,11255,13343,1
0.0,0.0,0.0,11628,18147,9677,11255,13357,1
0.0,0.0,0.0,11653,18147,9599,11255,13343,1
0.0,0.0,0.0,11615,18272,9588,11255,13315,1
0.0,0.0,0.0,11603,18308,9577,11231,13260,1
0.0,0.0,0.0,11603,18272,9577,11231,13205,1
0.0,0.0,0.0,11615,18344,9599,11231,13177,1
0.0,0.0,0.0,11578,18344,9588,11255,13136,1
0.0,0.0,0.0,11578,18344,9588,11255,13150,1
0.0,0.0,0.0,11603,18362,9577,11255,13109,1
0.0,0.0,0.0,11603,18380,9588,11255,13081,1
0.0,0.0,0.0,11553,18380,9588,11268,13068,1
0.0,0.0,0.0,11578,18417,9599,11255,13054,1
0.0,0.0,0.0,11578,18380,9599,11280,13081,1
0.0,0.0,0.0,11553,18380,9588,11280,13068,1
0.0,0.0,0.0,11553,18417,9577,11280,13027,1
0.0,0.0,0.0,11553,18380,9599,11280,13040,1
0.0,0.0,0.0,11553,18417,9588,11268,13013,1
0.0,0.0,0.0,11553,18362,9577,11304,13040,1
0.0,0.0,0.0,11553,18399,9599,11280,13027,1
0.0,0.0,0.0,11528,18344,9599,11280,13027,1
0.0,0.0,0.0,11528,18362,9632,11304,13013,1
0.0,0.0,0.0,11553,18362,9599,11280,13013,1
0.0,0.0,0.0,11553,18362,9599,11280,13040,1
0.0,0.0,0.0,11553,18362,9588,11304,13013,1
0.0,0.0,0.0,11528,18344,9577,11280,13013,1
0.0,0.0,0.0,11528,18326,9588,11268,13040,1
0.0,0.0,0.0,11528,18344,9588,11280,13013,1
0.0,0.0,0.0,11515,18344,9599,11317,13013,1
0.0,0.0,0.0,11528,18290,9588,11304,13040,1
0.0,0.0,0.0,11528,18308,9599,11304,13027,1
0.0,0.0,0.0,11528,18344,9588,11268,13040,1
0.0,0.0,0.0,11528,18326,9599,11304,13027,1
0.0,0.0,0.0,11528,18308,9577,11304,13040,1
0.0,0.0,0.0,11515,18308,9588,11304,12986,1
0.0,0.0,0.0,11515,18308,9588,11292,13013,1
0.0,0.0,0.0,11515,18290,9599,11268,13013,1
0.0,0.0,0.0,11528,18308,9588,11280,13013,1
0.0,0.0,0.0,11528,18290,9599,11304,13013,1
0.0,0.0,0.0,11503,18308,9588,11304,12986,1
0.0,0.0,0.0,11528,18308,9577,11304,13013,1
0.0,0.0,0.0,11515,18344,9588,11304,13040,1
0.0,0.0,0.0,11503,18308,9588,11280,12999,1
0.0,0.0,0.0,11528,18290,9599,11280,12999,1
0.0,0.0,0.0,11528,18344,9599,11304,13013,1
0.0,0.0,0.0,11503,18308,9621,11280,13040,1
0.0,0.0,0.0,11528,18308,9599,11304,13013,1
0.0,0.0,0.0,11503,18272,9610,11268,12986,1
0.0,0.0,0.0,11515,18290,9588,11304,13013,1
0.0,0.0,0.0,11478,18308,9599,11304,13013,1
0.0,0.0,0.0,11503,18290,9588,11304,13013,1
0.0,0.0,0.0,11503,18308,9588,11280,13027,1
0.0,0.0,0.0,11503,18290,9588,11304,13027,1
0.0,0.0,0.0,11515,18272,9588,11255,13013,1
0.0,0.0,0.0,11503,18308,9599,11255,12972,1
0.0,0.0,0.0,11503,18308,9599,11292,12986,1
0.0,0.0,0.0,11503,18290,9588,11280,13013,1
0.0,0.0,0.0,11478,18308,9577,11268,12972,1
0.0,0.0,0.0,11490,18326,9588,11280,12972,1
0.0,0.0,0.0,11503,18272,9588,11268,13013,1
0.0,0.0,0.0,11478,18290,9588,11317,12999,1
0.0,0.0,0.0,11553,18326,9610,11268,12972,1
0.0,0.0,0.0,11478,18272,9588,11280,13013,1
0.0,0.0,0.0,11503,18272,9599,11280,12999,1
0.0,0.0,0.0,11503,18236,9588,11304,12986,1
0.0,0.0,0.0,11515,18290,9588,11304,12986,1
0.0,0.0,0.0,11490,18272,9588,11304,12959,1
0.0,0.0,0.0,11478,18272,9599,11280,12986,1
0.0,0.0,0.0,11453,18308,9599,11280,12999,1
0.0,0.0,0.0,11503,18308,9599,11304,12972,1
0.0,0.0,0.0,11465,18326,9588,11304,12932,1
0.0,0.0,0.0,11478,18272,9577,11280,12959,1
0.0,0.0,0.0,11478,18272,9588,11268,12959,1
0.0,0.0,0.0,11478,18272,9599,11304,12959,1
0.0,0.0,0.0,11465,18290,9588,11304,12932,1
0.0,0.0,0.0,11465,18344,9588,11292,12959,1
0.0,0.0,0.0,11465,18308,9577,11304,12918,1
0.0,0.0,0.0,11478,18308,9599,11280,12905,1
0.0,0.0,0.0,11465,18290,9599,11268,12932,1
0.0,0.0,0.0,11453,18308,9588,11280,12918,1
0.0,0.0,0.0,11453,18308,9588,11280,12918,1
0.0,0.0,0.0,11428,18308,9599,11268,12905,1
0.0,0.0,0.0,11428,18272,9588,11268,12905,1
0.0,0.0,0.0,11416,18290,9588,11268,12959,1
0.0,0.0,0.0,11428,18272,9588,11268,12932,1
0.0,0.0,0.0,11453,18290,9588,11268,12905,1
0.0,0.0,0.0,11440,18308,9577,11268,12932,1
0.0,0.0,0.0,11453,18290,9599,11268,12905,1
0.0,0.0,0.0,11453,18272,9577,11280,12905,1
0.0,0.0,0.0,11428,18290,9599,11280,12932,1
0.0,0.0,0.0,11453,18272,9599,11304,12918,1
0.0,0.0,0.0,11416,18254,9599,11280,12918,1
0.0,0.0,0.0,11416,18308,9599,11280,12932,1
0.0,0.0,0.0,11416,18272,9588,11268,12945,1
0.0,0.0,0.0,11428,18290,9588,11268,12918,1
0.0,0.0,0.0,11403,18272,9599,11280,12918,1
0.0,0.0,0.0,11403,18272,9577,11280,12918,1
0.0,0.0,0.0,11416,18272,9621,11304,12905,1
0.0,0.0,0.0,11391,18254,9588,11317,12945,1
0.0,0.0,0.0,11403,18254,9588,11280,12932,1
0.0,0.0,0.0,11366,18272,9588,11268,12932,1
0.0,0.0,0.0,11379,18272,9588,11268,12878,1
0.0,0.0,0.0,11403,18236,9588,11268,12891,1
0.0,0.0,0.0,11354,18218,9588,11268,12905,1
0.0,0.0,0.0,11379,18254,9588,11280,12878,1
0.0,0.0,0.0,11366,18200,9588,11255,12905,1
0.0,0.0,0.0,11354,18236,9599,11255,12905,1
0.0,0.0,0.0,11379,18236,9621,11255,12905,1
0.0,0.0,0.0,11354,18254,9588,11255,12851,1
0.0,0.0,0.0,11379,18218,9588,11255,12864,1
0.0,0.0,0.0,11354,18236,9599,11255,12918,1
0.0,0.0,0.0,11366,18236,9588,11255,12878,1
0.0,0.0,0.0,11354,18200,9588,11280,12864,1
0.0,0.0,0.0,11354,18200,9577,11280,12878,1
0.0,0.0,0.0,11379,18236,9599,11280,12918,1
0.0,0.0,0.0,11354,18236,9588,11304,12905,1
0.0,0.0,0.0,11354,18200,9588,11292,12932,1
0.0,0.0,0.0,11354,18200,9599,11304,12932,1
0.0,0.0,0.0,11354,18200,9577,11304,12878,1
0.0,0.0,0.0,11354,18200,9588,11280,12918,1
0.0,0.0,0.0,11329,18200,9599,11304,12905,1
0.0,0.0,0.0,11317,18236,9588,11268,12905,1
0.0,0.0,0.0,11354,18200,9577,11304,12891,1
0.0,0.0,0.0,11317,18236,9599,11304,12945,1
0.0,0.0,0.0,11354,18200,9588,11292,12932,1
0.0,0.0,0.0,11317,18182,9621,11304,12864,1
0.0,0.0,0.0,11354,18182,9599,11304,12864,1
0.0,0.0,0.0,11354,18200,9577,11317,12905,1
0.0,0.0,0.0,11354,18200,9588,11304,12851,1
0.0,0.0,0.0,11354,18200,9599,11304,12918,1
0.0,0.0,0.0,11403,18200,9577,11379,12905,1
0.0,0.0,0.0,11354,18200,9599,11379,12864,1
0.0,0.0,0.0,11354,18164,9599,11379,12905,1
0.0,0.0,0.0,11354,18164,9599,11379,12918,1
0.0,0.0,0.0,11354,18200,9588,11366,12851,1
0.0,0.0,0.0,11317,18200,9577,11379,12878,1
0.0,0.0,0.0,11304,18164,9588,11379,12905,1
0.0,0.0,0.0,11317,18182,9588,11379,12864,1
0.0,0.0,0.0,11317,18200,9599,11403,12905,1
0.0,0.0,0.0,11317,18182,9577,11391,12878,1
0.0,0.0,0.0,11317,18218,9588,11403,12864,1
0.0,0.0,0.0,11317,18200,9588,11403,12878,1
0.0,0.0,0.0,11317,18200,9577,11403,12878,1
0.0,0.0,0.0,11317,18200,9599,11403,12905,1
0.0,0.0,0.0,11317,18236,9577,11416,12864,1
0.0,0.0,0.0,11317,18200,9577,11428,12864,1
0.0,0.0,0.0,11317,18218,9588,11428,12864,1
0.0,0.0,0.0,11304,18093,9588,11453,12905,1
0.0,0.0,0.0,11304,18200,9588,11416,12851,1
0.0,0.0,0.0,11304,18236,9610,11453,12864,1
0.0,0.0,0.0,11317,18147,9599,11453,12851,1
0.0,0.0,0.0,11304,18218,9588,11478,12891,1
0.0,0.0,0.0,11317,18200,9588,11465,12851,1
0.0,0.0,0.0,11317,18182,9577,11478,12851,1
0.0,0.0,0.0,11304,18200,9588,11465,12864,1
0.0,0.0,0.0,11304,18164,9577,11465,12905,1
0.0,0.0,0.0,11304,18200,9577,11453,12864,1
0.0,0.0,0.0,11304,18182,9588,11453,12878,1
0.0,0.0,0.0,11317,18147,9599,11453,12864,1
0.0,0.0,0.0,11304,18182,9588,11440,12878,1
0.0,0.0,0.0,11304,18164,9599,11453,12891,1
0.0,0.0,0.0,11304,18200,9599,11453,12905,1
0.0,0.0,0.0,11304,18147,9599,11465,12905,1
0.0,0.0,0.0,11317,18147,9588,11465,12905,1
0.0,0.0,0.0,11304,18147,9588,11465,12851,1
0.0,0.0,0.0,11317,18200,9588,11465,12878,1
0.0,0.0,0.0,11304,18200,9599,11453,12878,1
0.0,0.0,0.0,11317,18164,9577,11453,12878,1
0.0,0.0,0.0,11304,18200,9588,11416,12905,1
0.0,0.0,0.0,11317,18200,9588,11478,12905,1
0.0,0.0,0.0,11304,18147,9599,11465,12864,1
0.0,0.0,0.0,11304,18164,9577,11478,12905,1
0.0,0.0,0.0,11304,18147,9577,11478,12905,1
0.0,0.0,0.0,11304,18164,9577,11478,12918,1
0.0,0.0,0.0,11304,18147,9588,11465,12878,1
0.0,0.0,0.0,11304,18200,9588,11465,12878,1
0.0,0.0,0.0,11292,18164,9599,11453,12878,1
0.0,0.0,0.0,11304,18147,9588,11465,12905,1
0.0,0.0,0.0,11304,18200,9599,11465,12905,1
0.0,0.0,0.0,11317,18200,9599,11453,12905,1
0.0,0.0,0.0,11292,18129,9577,11453,12891,1
0.0,0.0,0.0,11304,18147,9588,11453,12878,1
0.0,0.0,0.0,11304,18147,9599,11503,12864,1
0.0,0.0,0.0,11304,18164,9577,11453,12905,1
0.0,0.0,0.0,11304,18164,9599,11453,12864,1
0.0,0.0,0.0,11304,18147,9588,11478,12878,1
0.0,0.0,0.0,11317,18147,9599,11453,12905,1
0.0,0.0,0.0,11304,18147,9599,11453,12864,1
0.0,0.0,0.0,11304,18164,9599,11453,12878,1
0.0,0.0,0.0,11292,18129,9588,11465,12891,1
0.0,0.0,0.0,11304,18147,9599,11453,12864,1
0.0,0.0,0.0,11304,18147,9599,11465,12878,1
0.0,0.0,0.0,11304,18147,9577,11465,12878,1
0.0,0.0,0.0,11304,18164,9599,11478,12864,1
0.0,0.0,0.0,11304,18147,9588,11453,12851,1
0.0,0.0,0.0,11304,18147,9588,11453,12905,1
0.0,0.0,0.0,11304,18147,9588,11453,12864,1
0.0,0.0,0.0,11317,18164,9577,11478,12905,1
0.0,0.0,0.0,11304,18129,9588,11465,12864,1
0.0,0.0,0.0,11280,18164,9599,11478,12905,1
0.0,0.0,0.0,11280,18147,9599,11503,12864,1
0.0,0.0,0.0,11304,18147,9599,11465,12905,1
0.0,0.0,0.0,11304,18129,9599,11478,12905,1
0.0,0.0,0.0,11280,18129,9599,11503,12905,1
0.0,0.0,0.0,11317,18164,9599,11453,12864,1
0.0,0.0,0.0,11304,18129,9588,11465,12851,1
0.0,0.0,0.0,11304,18164,9599,11478,12878,1
0.0,0.0,0.0,11292,18164,9599,11478,12905,1
0.0,0.0,0.0,11304,18147,9577,11453,12905,1
0.0,0.0,0.0,11317,18218,9588,11453,12905,1
0.0,0.0,0.0,11304,18164,9599,11503,12864,1
0.0,0.0,0.0,11255,18200,9599,11478,12864,1
0.0,0.0,0.0,11255,18129,9588,11503,12905,1
0.0,0.0,0.0,11255,18164,9599,11503,12905,1
0.0,0.0,0.0,11255,18111,9599,11503,12878,1
0.0,0.0,0.0,11255,18129,9599,11503,12918,1
0.0,0.0,0.0,11219,18129,9599,11503,12932,1
0.0,0.0,0.0,11219,18129,9577,11503,12905,1
0.0,0.0,0.0,11219,18164,9599,11503,12891,1
0.0,0.0,0.0,11206,18129,9599,11503,12878,1
0.0,0.0,0.0,11206,18147,9610,11528,12932,1
0.0,0.0,0.0,11206,18129,9599,11503,12918,1
0.0,0.0,0.0,11206,18093,9599,11503,12918,1
0.0,0.0,0.0,11182,18129,9588,11515,12905,1
0.0,0.0,0.0,11182,18093,9599,11528,12905,1
0.0,0.0,0.0,11206,18111,9599,11553,12905,1
0.0,0.0,0.0,11170,18129,9599,11528,12932,1
0.0,0.0,0.0,11157,18093,9577,11528,12905,1
0.0,0.0,0.0,11170,18093,9599,11528,12918,1
0.0,0.0,0.0,11157,18075,9588,11540,12918,1
0.0,0.0,0.0,11182,18093,9599,11515,12918,1
0.0,0.0,0.0,11157,18075,9588,11540,12905,1
0.0,0.0,0.0,11170,18075,9599,11528,12905,1
0.0,0.0,0.0,11170,18075,9599,11528,12905,1
0.0,0.0,0.0,11170,18093,9599,11528,12918,1
0.0,0.0,0.0,11182,18075,9599,11528,12932,1
0.0,0.0,0.0,11182,18111,9588,11528,12932,1
0.0,0.0,0.0,11157,18111,9588,11528,12932,1
0.0,0.0,0.0,11157,18075,9599,11528,12932,1
0.0,0.0,0.0,11157,18093,9588,11528,12932,1
0.0,0.0,0.0,11133,18057,9588,11528,12918,1
0.0,0.0,0.0,11121,18075,9577,11528,12932,1
0.0,0.0,0.0,11157,18093,9621,11515,12918,1
0.0,0.0,0.0,11157,18075,9599,11528,12932,1
0.0,0.0,0.0,11133,18075,9588,11528,12891,1
0.0,0.0,0.0,11145,18057,9599,11528,12932,1
0.0,0.0,0.0,11157,18093,9599,11528,12905,1
0.0,0.0,0.0,11133,18093,9588,11515,12918,1
0.0,0.0,0.0,11157,18075,9588,11528,12918,1
0.0,0.0,0.0,11157,18075,9577,11528,12932,1
0.0,0.0,0.0,11121,18075,9588,11553,12959,1
0.0,0.0,0.0,11157,18057,9599,11528,12905,1
0.0,0.0,0.0,11145,18075,9577,11528,12932,1
0.0,0.0,0.0,11133,18075,9577,11528,12905,1
0.0,0.0,0.0,11157,18093,9599,11528,12932,1
0.0,0.0,0.0,11133,18022,9588,11540,12918,1
0.0,0.0,0.0,11133,18057,9599,11553,12918,1
0.0,0.0,0.0,11157,18057,9588,11528,12959,1
0.0,0.0,0.0,11133,18093,9599,11528,12959,1
0.0,0.0,0.0,11157,18057,9577,11553,12972,1
0.0,0.0,0.0,11133,18057,9610,11540,12905,1
0.0,0.0,0.0,11133,18057,9588,11553,12972,1
0.0,0.0,0.0,11145,18093,9588,11553,12959,1
0.0,0.0,0.0,11133,18075,9588,11528,12959,1
0.0,0.0,0.0,11145,18057,9599,11528,12959,1
0.0,0.0,0.0,11157,18075,9577,11553,12932,1
0.0,0.0,0.0,11157,18057,9588,11553,12959,1
0.0,0.0,0.0,11133,18129,9599,11553,12918,1
0.0,0.0,0.0,11157,18075,9588,11553,12932,1
0.0,0.0,0.0,11133,18057,9588,11528,12959,1
0.0,0.0,0.0,11157,18057,9599,11528,12959,1
0.0,0.0,0.0,11109,18075,9599,11553,12959,1
0.0,0.0,0.0,11109,18057,9599,11553,12972,1
0.0,0.0,0.0,11157,18093,9577,11528,12932,1
0.0,0.0,0.0,11133,18075,9599,11553,12945,1
0.0,0.0,0.0,11133,18057,9588,11553,12932,1
0.0,0.0,0.0,11121,18057,9577,11553,12932,1
0.0,0.0,0.0,11133,18022,9599,11553,12972,1
0.0,0.0,0.0,11121,18093,9577,11578,12918,1
0.0,0.0,0.0,11121,18057,9599,11578,12959,1
0.0,0.0,0.0,11133,18057,9599,11565,12972,1
0.0,0.0,0.0,11157,18057,9599,11565,12959,1
0.0,0.0,0.0,11133,18075,9588,11565,12959,1
0.0,0.0,0.0,11133,18075,9577,11553,12932,1
0.0,0.0,0.0,11157,18057,9599,11553,12878,1
0.0,0.0,0.0,11133,18129,9588,11553,12878,1
0.0,0.0,0.0,11133,18057,9577,11565,12824,1
0.0,0.0,0.0,11121,18057,9588,11578,12864,1
0.0,0.0,0.0,11133,18057,9599,11578,12824,1
0.0,0.0,0.0,11109,18057,9621,11578,12851,1
0.0,0.0,0.0,11121,18022,9588,11603,12851,1
0.0,0.0,0.0,11133,18057,9577,11565,12851,1
0.0,0.0,0.0,11145,18057,9599,11578,12851,1
0.0,0.0,0.0,11121,18022,9588,11578,12810,1
0.0,0.0,0.0,11121,18075,9588,11553,12851,1
0.0,0.0,0.0,11133,18057,9588,11565,12864,1
0.0,0.0,0.0,11121,18057,9577,11565,12851,1
0.0,0.0,0.0,11121,18057,9610,11565,12851,1
0.0,0.0,0.0,11133,18022,9588,11628,12851,1
0.0,0.0,0.0,11109,18057,9599,11653,12851,1
0.0,0.0,0.0,11060,18075,9599,11665,12797,1
0.0,0.0,0.0,11109,18075,9577,11691,12797,1
0.0,0.0,0.0,11109,18075,9588,11665,12824,1
0.0,0.0,0.0,11109,18093,9577,11665,12824,1
0.0,0.0,0.0,11096,18057,9599,11678,12810,1
0.0,0.0,0.0,11109,18075,9588,11703,12797,1
0.0,0.0,0.0,11109,18057,9588,11665,12824,1
0.0,0.0,0.0,11084,18129,9610,11691,12797,1
0.0,0.0,0.0,11096,18057,9599,11703,12824,1
0.0,0.0,0.0,11109,18022,9610,11703,12824,1
0.0,0.0,0.0,11084,18057,9588,11716,12797,1
0.0,0.0,0.0,11109,18075,9599,11716,12797,1
0.0,0.0,0.0,11096,18057,9588,11703,12797,1
0.0,0.0,0.0,11072,18057,9577,11703,12797,1
0.0,0.0,0.0,11084,18075,9577,11703,12824,1
0.0,0.0,0.0,11072,18004,9599,11703,12810,1
0.0,0.0,0.0,11072,18022,9610,11703,12810,1
0.0,0.0,0.0,11084,18111,9577,11703,12797,1
0.0,0.0,0.0,11072,18022,9588,11716,12810,1
0.0,0.0,0.0,11060,18022,9588,11703,12837,1
0.0,0.0,0.0,11072,18039,9588,11703,12797,1
0.0,0.0,0.0,11072,18022,9588,11703,12797,1
0.0,0.0,0.0,11060,18057,9577,11703,12797,1
0.0,0.0,0.0,11072,18057,9588,11703,12810,1
0.0,0.0,0.0,11072,17986,9588,11703,12810,1
0.0,0.0,0.0,11060,18022,9588,11703,12797,1
0.0,0.0,0.0,11109,18022,9599,11703,12797,1
0.0,0.0,0.0,11084,18039,9599,11678,12824,1
0.0,0.0,0.0,11072,18057,9588,11691,12810,1
0.0,0.0,0.0,11084,18039,9577,11703,12797,1
0.0,0.0,0.0,11072,18039,9599,11716,12810,1
0.0,0.0,0.0,11072,18057,9588,11703,12810,1
0.0,0.0,0.0,11072,18022,9588,11703,12797,1
0.0,0.0,0.0,11060,18022,9588,11703,12810,1
0.0,0.0,0.0,11084,18004,9599,11703,12797,1
0.0,0.0,0.0,11072,18022,9588,11703,12797,1
0.0,0.0,0.0,11072,18039,9588,11703,12810,1
0.0,0.0,0.0,11060,18022,9577,11703,12797,1
0.0,0.0,0.0,11072,18022,9588,11703,12797,1
0.0,0.0,0.0,11084,18057,9599,11703,12810,1
0.0,0.0,0.0,11060,18022,9599,11703,12797,1
0.0,0.0,0.0,11060,18057,9577,11703,12797,1
0.0,0.0,0.0,11060,18022,9588,11703,12810,1
0.0,0.0,0.0,11084,18022,9599,11703,12810,1
0.0,0.0,0.0,11072,18022,9588,11703,12810,1
0.0,0.0,0.0,11060,18039,9599,11716,12824,1
0.0,0.0,0.0,11072,17986,9588,11716,12810,1
0.0,0.0,0.0,11060,18004,9599,11703,12797,1
0.0,0.0,0.0,11060,18022,9577,11716,12810,1
0.0,0.0,0.0,11096,18039,9577,11703,12797,1
0.0,0.0,0.0,11072,18039,9588,11716,12824,1
0.0,0.0,0.0,11084,18022,9621,11703,12810,1
0.0,0.0,0.0,11060,18022,9588,11703,12810,1
0.0,0.0,0.0,11060,17986,9588,11653,12932,1
0.0,0.0,0.0,11060,18057,9577,11615,12986,1
0.0,0.0,0.0,11060,18022,9599,11578,13068,1
0.0,0.0,0.0,11072,18022,9577,11553,13013,1
0.0,0.0,0.0,11060,18022,9599,11528,13013,1
0.0,0.0,0.0,11072,18057,9588,11453,12986,1
0.0,0.0,0.0,11060,18039,9588,11403,13013,1
0.0,0.0,0.0,11084,18057,9577,11391,12959,1
0.0,0.0,0.0,11084,18057,9599,11379,12999,1
0.0,0.0,0.0,11084,18057,9588,11354,13013,1
0.0,0.0,0.0,11060,18057,9599,11354,12986,1
0.0,0.0,0.0,11060,18057,9599,11354,12959,1
0.0,0.0,0.0,11060,18057,9588,11317,12972,1
0.0,0.0,0.0,11084,18075,9588,11329,12972,1
0.0,0.0,0.0,11084,18057,9588,11354,13013,1
0.0,0.0,0.0,11072,18075,9588,11354,12986,1
0.0,0.0,0.0,11060,18039,9588,11329,12986,1
0.0,0.0,0.0,11072,18039,9588,11354,12986,1
0.0,0.0,0.0,11060,18039,9588,11354,12999,1
0.0,0.0,0.0,11060,18022,9588,11341,13027,1
0.0,0.0,0.0,11060,18057,9599,11329,13013,1
0.0,0.0,0.0,11084,18022,9588,11354,12972,1
0.0,0.0,0.0,11060,18022,9588,11354,13013,1
0.0,0.0,0.0,11060,18057,9577,11341,12972,1
0.0,0.0,0.0,11084,18057,9599,11354,13013,1
0.0,0.0,0.0,11060,18057,9577,11354,12986,1
0.0,0.0,0.0,11072,18057,9599,11354,12986,1
0.0,0.0,0.0,11060,18057,9599,11354,13013,1
0.0,0.0,0.0,11060,18057,9588,11366,13040,1
0.0,0.0,0.0,11060,18057,9588,11379,12986,1
0.0,0.0,0.0,11084,18057,9577,11379,12986,1
0.0,0.0,0.0,11060,18057,9588,11391,12959,1
0.0,0.0,0.0,11072,18022,9588,11366,12905,1
0.0,0.0,0.0,11060,18057,9599,11379,12918,1
0.0,0.0,0.0,11060,18057,9588,11379,12851,1
0.0,0.0,0.0,11060,18057,9588,11354,12891,1
0.0,0.0,0.0,11084,18075,9577,11379,12905,1
0.0,0.0,0.0,11060,18093,9577,11354,12864,1
0.0,0.0,0.0,11096,18093,9599,11354,12878,1
0.0,0.0,0.0,11072,18075,9599,11354,12851,1
0.0,0.0,0.0,11072,18129,9588,11341,12864,1
0.0,0.0,0.0,11084,18129,9588,11354,12918,1
0.0,0.0,0.0,11109,18147,9599,11354,13068,1
0.0,0.0,0.0,11096,18164,9599,11317,13122,1
0.0,0.0,0.0,11072,18164,9599,11329,13122,1
0.0,0.0,0.0,11060,18200,9588,11354,13122,1
0.0,0.0,0.0,11060,18164,9599,11317,13095,1
0.0,0.0,0.0,11060,18236,9588,11304,13081,1
0.0,0.0,0.0,11060,18200,9588,11354,13095,1
0.0,0.0,0.0,11072,18200,9599,11354,13068,1
0.0,0.0,0.0,11060,18218,9599,11317,13109,1
0.0,0.0,0.0,11060,18236,9577,11317,13081,1
0.0,0.0,0.0,11072,18236,9588,11317,13081,1
0.0,0.0,0.0,11060,18200,9599,11329,13081,1
0.0,0.0,0.0,11060,18236,9621,11329,13081,1
0.0,0.0,0.0,11036,18200,9599,11317,13095,1
0.0,0.0,0.0,11060,18200,9577,11317,13095,1
0.0,0.0,0.0,11060,18236,9599,11317,13081,1
0.0,0.0,0.0,11072,18272,9599,11304,13068,1
0.0,0.0,0.0,11072,18272,9588,11317,13068,1
0.0,0.0,0.0,11048,18272,9577,11329,13068,1
0.0,0.0,0.0,11060,18272,9577,11317,13068,1
0.0,0.0,0.0,11060,18308,9599,11317,13081,1
0.0,0.0,0.0,11060,18272,9588,11317,13068,1
0.0,0.0,0.0,11060,18290,9588,11329,13122,1
0.0,0.0,0.0,11060,18272,9599,11329,13095,1
0.0,0.0,0.0,11036,18272,9599,11329,13040,1
0.0,0.0,0.0,11072,18272,9588,11366,13122,1
0.0,0.0,0.0,11048,18290,9599,11329,13109,1
0.0,0.0,0.0,11060,18272,9577,11354,13081,1
0.0,0.0,0.0,11060,18272,9599,11354,13122,1
0.0,0.0,0.0,11060,18272,9588,11354,13068,1
0.0,0.0,0.0,11060,18254,9588,11354,13095,1
0.0,0.0,0.0,11060,18272,9599,11354,13095,1
0.0,0.0,0.0,11060,18236,9588,11354,13122,1
0.0,0.0,0.0,11060,18236,9599,11354,13068,1
0.0,0.0,0.0,11060,18236,9599,11354,13122,1
0.0,0.0,0.0,11060,18236,9599,11354,13122,1
0.0,0.0,0.0,11060,18236,9577,11354,13081,1
0.0,0.0,0.0,11036,18200,9599,11354,13068,1
0.0,0.0,0.0,11036,18200,9588,11354,13081,1
0.0,0.0,0.0,11060,18236,9588,11329,13095,1
0.0,0.0,0.0,11060,18200,9588,11354,13081,1
0.0,0.0,0.0,11048,18200,9588,11354,13122,1
0.0,0.0,0.0,11060,18200,9599,11354,13122,1
0.0,0.0,0.0,11060,18200,9588,11354,13122,1
0.0,0.0,0.0,11036,18200,9599,11379,13136,1
0.0,0.0,0.0,11060,18200,9577,11354,13136,1
0.0,0.0,0.0,11048,18147,9599,11366,13122,1
0.0,0.0,0.0,11060,18200,9577,11354,13081,1
0.0,0.0,0.0,11060,18200,9588,11354,13122,1
0.0,0.0,0.0,11060,18164,9599,11354,13122,1
0.0,0.0,0.0,11060,18200,9599,11354,13136,1
0.0,0.0,0.0,11060,18129,9588,11354,13136,1
0.0,0.0,0.0,11060,18200,9599,11354,13095,1
0.0,0.0,0.0,11036,18164,9588,11354,13136,1
0.0,0.0,0.0,11060,18200,9588,11341,13136,1
0.0,0.0,0.0,11060,18200,9588,11341,13122,1
0.0,0.0,0.0,11036,18200,9588,11379,13150,1
0.0,0.0,0.0,11036,18200,9588,11354,13136,1
0.0,0.0,0.0,11036,18147,9621,11354,13150,1
0.0,0.0,0.0,11024,18236,9577,11354,13136,1
0.0,0.0,0.0,11036,18200,9577,11354,13150,1
0.0,0.0,0.0,11024,18164,9599,11341,13122,1
0.0,0.0,0.0,11024,18200,9621,11317,13122,1
0.0,0.0,0.0,11012,18218,9588,11268,13081,1
0.0,0.0,0.0,11024,18200,9577,11317,13136,1
0.0,0.0,0.0,11024,18200,9588,11317,13095,1
0.0,0.0,0.0,11048,18147,9610,11304,13095,1
0.0,0.0,0.0,11036,18147,9588,11304,13095,1
0.0,0.0,0.0,11024,18147,9588,11304,13081,1
0.0,0.0,0.0,11012,18200,9588,11304,13081,1
0.0,0.0,0.0,11012,18182,9588,11317,13122,1
0.0,0.0,0.0,11024,18147,9588,11304,13081,1
0.0,0.0,0.0,11012,18129,9588,11304,13122,1
0.0,0.0,0.0,11060,18164,9610,11304,13081,1
0.0,0.0,0.0,11012,18147,9599,11304,13095,1
0.0,0.0,0.0,11024,18200,9621,11317,13081,1
0.0,0.0,0.0,11024,18164,9577,11304,13122,1
0.0,0.0,0.0,11024,18129,9588,11304,13122,1
0.0,0.0,0.0,11036,18164,9588,11304,13095,1
0.0,0.0,0.0,11024,18147,9599,11304,13136,1
0.0,0.0,0.0,11024,18129,9577,11304,13068,1
0.0,0.0,0.0,11036,18129,9588,11317,13081,1
0.0,0.0,0.0,11024,18147,9588,11292,13068,1
0.0,0.0,0.0,11012,18147,9588,11304,13081,1
0.0,0.0,0.0,11012,18164,9599,11304,13122,1
0.0,0.0,0.0,11024,18164,9599,11304,13068,1
0.0,0.0,0.0,11012,18129,9588,11304,13122,1
0.0,0.0,0.0,11024,18129,9577,11304,13068,1
0.0,0.0,0.0,11024,18164,9588,11304,13068,1
0.0,0.0,0.0,11012,18129,9599,11304,13122,1
0.0,0.0,0.0,11012,18129,9588,11304,13122,1
0.0,0.0,0.0,11024,18147,9599,11304,13068,1
0.0,0.0,0.0,11012,18147,9588,11317,13013,1
0.0,0.0,0.0,11024,18129,9599,11304,13068,1
0.0,0.0,0.0,11024,18129,9599,11329,13122,1
0.0,0.0,0.0,11012,18129,9577,11304,13095,1
0.0,0.0,0.0,11036,18129,9599,11317,13081,1
0.0,0.0,0.0,11036,18093,9599,11304,13081,1
0.0,0.0,0.0,11012,18129,9577,11317,13068,1
0.0,0.0,0.0,11012,18129,9588,11304,13068,1
0.0,0.0,0.0,11024,18164,9588,11317,13068,1
0.0,0.0,0.0,11024,18147,9588,11329,13068,1
0.0,0.0,0.0,11024,18147,9599,11317,13068,1
0.0,0.0,0.0,11024,18129,9599,11317,13122,1
0.0,0.0,0.0,11036,18111,9588,11317,13122,1
0.0,0.0,0.0,11012,18147,9588,11317,13109,1
0.0,0.0,0.0,11024,18129,9588,11341,13095,1
0.0,0.0,0.0,11012,18129,9599,11304,13095,1
0.0,0.0,0.0,11024,18093,9599,11317,13095,1
0.0,0.0,0.0,11024,18129,9588,11304,13068,1
0.0,0.0,0.0,11024,18075,9599,11304,13068,1
0.0,0.0,0.0,11024,18129,9599,11317,13068,1
0.0,0.0,0.0,11036,18129,9599,11329,13122,1
0.0,0.0,0.0,11012,18129,9599,11329,13122,1
0.0,0.0,0.0,11012,18129,9599,11317,13095,1
0.0,0.0,0.0,11012,18093,9599,11317,13068,1
0.0,0.0,0.0,11012,18129,9599,11317,13095,1
0.0,0.0,0.0,11012,18129,9599,11329,13081,1
0.0,0.0,0.0,11024,18129,9577,11354,13081,1
0.0,0.0,0.0,11024,18129,9599,11317,13122,1
0.0,0.0,0.0,11012,18111,9588,11317,13095,1
0.0,0.0,0.0,11024,18093,9610,11317,13095,1
0.0,0.0,0.0,11012,18093,9599,11317,13095,1
0.0,0.0,0.0,11012,18129,9599,11354,13068,1
0.0,0.0,0.0,11024,18093,9599,11317,13095,1
0.0,0.0,0.0,11012,18129,9577,11329,13109,1
0.0,0.0,0.0,11012,18111,9588,11354,13109,1
0.0,0.0,0.0,11024,18093,9599,11304,13081,1
0.0,0.0,0.0,11012,18093,9599,11329,13081,1
0.0,0.0,0.0,11012,18129,9588,11354,13122,1
0.0,0.0,0.0,11012,18129,9588,11317,13068,1
0.0,0.0,0.0,11012,18093,9577,11354,13068,1
0.0,0.0,0.0,11012,18093,9621,11329,13081,1
0.0,0.0,0.0,11012,18129,9599,11317,13068,1
0.0,0.0,0.0,11012,18093,9599,11329,13081,1
0.0,0.0,0.0,11036,18129,9599,11354,13068,1
0.0,0.0,0.0,11024,18129,9599,11354,13081,1
0.0,0.0,0.0,11012,18093,9588,11329,13068,1
0.0,0.0,0.0,11012,18093,9599,11304,13109,1
0.0,0.0,0.0,11036,18129,9577,11329,13081,1
0.0,0.0,0.0,11012,18129,9599,11317,13068,1
0.0,0.0,0.0,11012,18057,9599,11354,13040,1
0.0,0.0,0.0,11024,18111,9610,11341,13068,1
0.0,0.0,0.0,11012,18129,9599,11354,13095,1
0.0,0.0,0.0,11024,18093,9588,11329,13109,1
0.0,0.0,0.0,11012,18093,9588,11317,13109,1
0.0,0.0,0.0,11012,18075,9588,11317,13081,1
0.0,0.0,0.0,11024,18093,9599,11354,13068,1
0.0,0.0,0.0,11024,18111,9588,11317,13081,1
0.0,0.0,0.0,11012,18075,9599,11329,13068,1
0.0,0.0,0.0,11024,18093,9588,11317,13081,1
0.0,0.0,0.0,11024,18075,9599,11280,13054,1
0.0,0.0,0.0,11012,18093,9599,11329,13068,1
0.0,0.0,0.0,11036,18093,9621,11354,13068,1
0.0,0.0,0.0,11012,18093,9588,11329,13095,1
0.0,0.0,0.0,10999,18057,9577,11329,13068,1
0.0,0.0,0.0,11012,18093,9599,11329,13068,1
0.0,0.0,0.0,11012,18075,9577,11354,13081,1
0.0,0.0,0.0,11012,18057,9610,11354,13068,1
0.0,0.0,0.0,11024,18129,9588,11341,13068,1
0.0,0.0,0.0,11012,18129,9599,11341,13068,1
0.0,0.0,0.0,10999,18093,9588,11354,13068,1
0.0,0.0,0.0,11024,18075,9588,11317,13095,1
0.0,0.0,0.0,11024,18075,9599,11317,13122,1
0.0,0.0,0.0,11036,18093,9621,11329,13068,1
0.0,0.0,0.0,11012,18093,9577,11329,13081,1
0.0,0.0,0.0,11012,18093,9588,11317,13081,1
0.0,0.0,0.0,11012,18129,9588,11329,13081,1
0.0,0.0,0.0,11024,18075,9577,11329,13068,1
0.0,0.0,0.0,11012,18093,9588,11341,13081,1
0.0,0.0,0.0,11024,18093,9588,11329,13068,1
0.0,0.0,0.0,11012,18093,9588,11354,13081,1
0.0,0.0,0.0,11036,18093,9588,11317,13040,1
0.0,0.0,0.0,11024,18111,9588,11329,13068,1
0.0,0.0,0.0,11012,18093,9588,11317,13068,1
0.0,0.0,0.0,11024,18075,9588,11354,13068,1
0.0,0.0,0.0,11012,18129,9588,11403,13040,1
0.0,0.0,0.0,11024,18093,9599,11403,12986,1
0.0,0.0,0.0,11012,18129,9599,11379,13013,1
0.0,0.0,0.0,11024,18129,9599,11403,12986,1
0.0,0.0,0.0,11012,18129,9599,11453,12932,1
0.0,0.0,0.0,10975,18147,9588,11453,12905,1
0.0,0.0,0.0,11048,18129,9577,11503,12905,1
0.0,0.0,0.0,11012,18129,9599,11503,12878,1
0.0,0.0,0.0,10987,18129,9599,11503,12851,1
0.0,0.0,0.0,11012,18147,9610,11490,12878,1
0.0,0.0,0.0,10975,18147,9577,11503,12851,1
0.0,0.0,0.0,10975,18075,9577,11503,12905,1
0.0,0.0,0.0,10987,18075,9599,11503,12905,1
0.0,0.0,0.0,10987,18075,9599,11503,12905,1
0.0,0.0,0.0,10987,18093,9577,11503,12878,1
0.0,0.0,0.0,10987,18093,9599,11503,12905,1
0.0,0.0,0.0,10975,18075,9588,11503,12905,1
0.0,0.0,0.0,10987,18129,9577,11503,12905,1
0.0,0.0,0.0,11012,18093,9588,11503,12918,1
0.0,0.0,0.0,11012,18093,9588,11503,12878,1
0.0,0.0,0.0,10987,18075,9588,11503,12905,1
0.0,0.0,0.0,10987,18129,9577,11490,12864,1
0.0,0.0,0.0,10975,18075,9599,11478,12905,1
0.0,0.0,0.0,10987,18057,9577,11503,12918,1
0.0,0.0,0.0,10987,18039,9588,11515,12905,1
0.0,0.0,0.0,10975,18057,9588,11503,12905,1
0.0,0.0,0.0,10987,18075,9588,11515,12905,1
0.0,0.0,0.0,10999,18075,9599,11515,12878,1
0.0,0.0,0.0,10987,18057,9599,11503,12905,1
0.0,0.0,0.0,10975,18057,9599,11503,12905,1
0.0,0.0,0.0,11012,18075,9599,11503,12905,1
0.0,0.0,0.0,10987,18075,9588,11515,12905,1
0.0,0.0,0.0,11012,18057,9588,11515,12891,1
0.0,0.0,0.0,10975,18057,9588,11503,12932,1
0.0,0.0,0.0,10999,18075,9599,11503,12905,1
0.0,0.0,0.0,10987,18075,9588,11528,12905,1
0.0,0.0,0.0,10987,18075,9588,11503,12932,1
0.0,0.0,0.0,11012,18093,9588,11503,12905,1
0.0,0.0,0.0,10987,18075,9588,11503,12905,1
0.0,0.0,0.0,10975,18075,9588,11503,12905,1
0.0,0.0,0.0,11012,18075,9588,11503,12932,1
0.0,0.0,0.0,10987,18057,9599,11503,12891,1
0.0,0.0,0.0,10987,18093,9599,11503,12905,1
0.0,0.0,0.0,10975,18075,9599,11503,12905,1
0.0,0.0,0.0,10975,18057,9577,11503,12905,1
0.0,0.0,0.0,10987,18075,9544,11503,12918,1
0.0,0.0,0.0,10975,18057,9599,11528,12932,1
0.0,0.0,0.0,10975,18075,9599,11503,12905,1
0.0,0.0,0.0,10963,18075,9577,11503,12905,1
0.0,0.0,0.0,10987,18057,9599,11503,12918,1
0.0,0.0,0.0,10987,18093,9599,11503,12918,1
0.0,0.0,0.0,10975,18057,9599,11503,12945,1
0.0,0.0,0.0,10975,18129,9610,11503,12932,1
0.0,0.0,0.0,10987,18075,9577,11453,12905,1
0.0,0.0,0.0,10987,18057,9599,11503,12918,1
0.0,0.0,0.0,11012,18057,9599,11503,12932,1
0.0,0.0,0.0,10987,18057,9599,11503,12918,1
0.0,0.0,0.0,10987,18057,9599,11503,12932,1
0.0,0.0,0.0,10987,18057,9599,11503,12959,1
0.0,0.0,0.0,11012,18057,9588,11515,12918,1
0.0,0.0,0.0,10975,18057,9599,11478,12905,1
0.0,0.0,0.0,10987,18039,9577,11503,12918,1
0.0,0.0,0.0,10987,18057,9599,11503,12905,1
0.0,0.0,0.0,10975,18057,9599,11503,12905,1
0.0,0.0,0.0,10987,18075,9599,11503,12918,1
0.0,0.0,0.0,10987,18057,9599,11503,12918,1
0.0,0.0,0.0,10963,18057,9599,11503,12918,1
0.0,0.0,0.0,10963,18039,9599,11503,12918,1
0.0,0.0,0.0,10987,18057,9588,11465,12918,1
0.0,0.0,0.0,10999,18022,9599,11490,12905,1
0.0,0.0,0.0,10963,18057,9599,11453,12918,1
0.0,0.0,0.0,10987,18039,9599,11453,12905,1
0.0,0.0,0.0,10963,18039,9577,11453,12905,1
0.0,0.0,0.0,10975,18022,9588,11453,12878,1
0.0,0.0,0.0,10975,18057,9610,11453,12905,1
0.0,0.0,0.0,10975,18075,9588,11453,12878,1
0.0,0.0,0.0,10963,18057,9599,11453,12905,1
0.0,0.0,0.0,10975,18039,9588,11453,12905,1
0.0,0.0,0.0,10987,18057,9599,11428,12905,1
0.0,0.0,0.0,10987,18004,9599,11453,12905,1
0.0,0.0,0.0,10987,18004,9577,11453,12918,1
0.0,0.0,0.0,10987,18022,9599,11453,12932,1
0.0,0.0,0.0,10987,18039,9599,11453,12905,1
0.0,0.0,0.0,10963,18004,9588,11465,12932,1
0.0,0.0,0.0,10975,18057,9599,11453,12959,1
0.0,0.0,0.0,10975,18057,9577,11453,12918,1
0.0,0.0,0.0,10987,18004,9577,11465,12932,1
0.0,0.0,0.0,10963,18057,9588,11478,12918,1
0.0,0.0,0.0,10963,18022,9599,11465,12932,1
0.0,0.0,0.0,10987,18039,9588,11453,12932,1
0.0,0.0,0.0,10975,18004,9577,11478,12932,1
0.0,0.0,0.0,10963,18057,9599,11453,12932,1
0.0,0.0,0.0,10975,18057,9577,11453,12918,1
0.0,0.0,0.0,10975,18057,9588,11478,12959,1
0.0,0.0,0.0,10987,18022,9588,11465,12918,1
0.0,0.0,0.0,10975,18004,9577,11478,12959,1
0.0,0.0,0.0,10975,18022,9588,11465,12945,1
