GyroX,GyroY,GyroZ,Thumb,Index,Middle,Ring,Pinky,Gesture
0.0,0.0,0.0,11157,23294,21839,28783,16731,5
0.0,0.0,0.0,11157,23294,21882,28783,16748,5
0.0,0.0,0.0,11170,23248,21839,28812,16748,5
0.0,0.0,0.0,11157,23316,21818,28754,16781,5
0.0,0.0,0.0,11170,23339,21839,28754,16748,5
0.0,0.0,0.0,11157,23225,21818,28783,16748,5
0.0,0.0,0.0,11170,23294,21818,28812,16715,5
0.0,0.0,0.0,11170,23294,21860,28754,16748,5
0.0,0.0,0.0,11157,23294,21796,28697,16698,5
0.0,0.0,0.0,11157,23294,21818,28697,16765,5
0.0,0.0,0.0,11145,23294,21818,28697,16765,5
0.0,0.0,0.0,11157,23294,21860,28754,16698,5
0.0,0.0,0.0,11182,23271,21818,28697,16632,5
0.0,0.0,0.0,11170,23294,21796,28640,16748,5
0.0,0.0,0.0,11157,23294,21775,28697,16748,5
0.0,0.0,0.0,11145,23271,21754,28640,16765,5
0.0,0.0,0.0,11157,23294,21796,28640,16748,5
0.0,0.0,0.0,11157,23248,21818,28640,16748,5
0.0,0.0,0.0,11157,23271,21796,28640,16748,5
0.0,0.0,0.0,11157,23271,21818,28669,16748,5
0.0,0.0,0.0,11157,23294,21796,28612,16748,5
0.0,0.0,0.0,11157,23294,21775,28583,16748,5
0.0,0.0,0.0,11157,23248,21818,28640,16748,5
0.0,0.0,0.0,11157,23294,21818,28640,16715,5
0.0,0.0,0.0,11157,23225,21796,28583,16681,5
0.0,0.0,0.0,11219,23294,21818,28612,16582,5
0.0,0.0,0.0,11403,23385,21882,28640,16549,5
0.0,0.0,0.0,11553,23362,21882,28697,16483,5
0.0,0.0,0.0,11653,23431,22010,28414,16483,5
0.0,0.0,0.0,11754,23499,22053,28470,16385,5
0.0,0.0,0.0,11716,23522,22075,28555,16287,5
0.0,0.0,0.0,11804,23569,22183,28555,16238,5
0.0,0.0,0.0,11766,23546,22140,28612,16222,5
0.0,0.0,0.0,11741,23569,22140,28726,16222,5
0.0,0.0,0.0,11716,23546,22140,28697,16173,5
0.0,0.0,0.0,11703,23522,22161,28697,16222,5
0.0,0.0,0.0,11703,23477,22226,28697,16157,5
0.0,0.0,0.0,11653,23477,22161,28697,16173,5
0.0,0.0,0.0,11640,23499,22161,28697,16173,5
0.0,0.0,0.0,11628,23431,22140,28640,16157,5
0.0,0.0,0.0,11603,23454,22118,28669,16157,5
0.0,0.0,0.0,11603,23431,22161,28697,16173,5
0.0,0.0,0.0,11578,23431,22140,28612,16173,5
0.0,0.0,0.0,11565,23431,22118,28583,16157,5
0.0,0.0,0.0,11578,23431,22118,28669,16125,5
0.0,0.0,0.0,11565,23431,22140,28583,16157,5
0.0,0.0,0.0,11578,23431,22140,28640,16157,5
0.0,0.0,0.0,11603,23431,22096,28583,16238,5
0.0,0.0,0.0,11553,23477,22053,28583,16222,5
0.0,0.0,0.0,11553,23431,22096,28583,16238,5
0.0,0.0,0.0,11528,23385,22096,28583,16254,5
0.0,0.0,0.0,11528,23431,22053,28555,16222,5
0.0,0.0,0.0,11528,23362,22053,28555,16222,5
0.0,0.0,0.0,11553,23385,22053,28527,16222,5
0.0,0.0,0.0,11503,23385,22075,28555,16287,5
0.0,0.0,0.0,11503,23339,22010,28498,16287,5
0.0,0.0,0.0,11503,23362,22053,28527,16287,5
0.0,0.0,0.0,11490,23339,22010,28555,16287,5
0.0,0.0,0.0,11503,23385,22053,28470,16303,5
0.0,0.0,0.0,11478,23362,22053,28498,16287,5
0.0,0.0,0.0,11503,23362,22053,28527,16287,5
0.0,0.0,0.0,11453,23339,22053,28498,16254,5
0.0,0.0,0.0,11490,23339,22010,28527,16287,5
0.0,0.0,0.0,11528,23316,22053,28527,16254,5
0.0,0.0,0.0,11653,23316,22010,28527,16238,5
0.0,0.0,0.0,11957,23431,22032,28470,16254,5
0.0,0.0,0.0,12112,23385,22053,28498,16254,5
0.0,0.0,0.0,12060,23362,22053,28498,16287,5
0.0,0.0,0.0,12112,23339,22010,28470,16287,5
0.0,0.0,0.0,11983,23385,22010,28470,16254,5
0.0,0.0,0.0,11957,23362,22010,28470,16238,5
0.0,0.0,0.0,11906,23339,22010,28470,16319,5
0.0,0.0,0.0,11830,23339,22010,28414,16499,5
0.0,0.0,0.0,11754,23316,22010,28470,16781,5
0.0,0.0,0.0,11703,23339,22010,28470,16681,5
0.0,0.0,0.0,11703,23385,21967,28840,16615,5
0.0,0.0,0.0,11716,23316,22010,28414,16549,5
0.0,0.0,0.0,11665,23294,22010,28414,16582,5
0.0,0.0,0.0,11653,23316,21924,28812,16483,5
0.0,0.0,0.0,11578,23294,21924,28783,16254,5
0.0,0.0,0.0,11565,23294,21903,28869,16093,5
0.0,0.0,0.0,11565,23248,21967,28869,16028,5
0.0,0.0,0.0,11553,23316,21967,28955,15900,5
0.0,0.0,0.0,11528,23294,22010,28583,15805,5
0.0,0.0,0.0,11528,23294,22010,28612,15773,5
0.0,0.0,0.0,11553,23271,22053,28697,15789,5
0.0,0.0,0.0,11515,23248,22010,28640,15773,5
0.0,0.0,0.0,11515,23203,21967,29042,15773,5
0.0,0.0,0.0,11503,23203,22053,28640,15757,5
0.0,0.0,0.0,11503,23225,22053,28697,15773,5
0.0,0.0,0.0,11503,23203,22053,28754,15757,5
0.0,0.0,0.0,11503,23203,22053,28754,15773,5
0.0,0.0,0.0,11503,23203,22140,28812,15773,5
0.0,0.0,0.0,11503,23225,22096,28697,15741,5
0.0,0.0,0.0,11503,23225,22053,28470,15773,5
0.0,0.0,0.0,11453,23135,22053,28414,15773,5
0.0,0.0,0.0,11465,23112,22010,28357,15741,5
0.0,0.0,0.0,11465,23135,22010,28357,15757,5
0.0,0.0,0.0,11478,23112,22010,28357,15741,5
0.0,0.0,0.0,11465,23112,22010,28301,15757,5
0.0,0.0,0.0,11453,23112,21946,28754,15773,5
0.0,0.0,0.0,11453,23112,22010,28357,15773,5
0.0,0.0,0.0,11453,23112,22010,28329,15805,5
0.0,0.0,0.0,11453,23090,22010,28329,15773,5
0.0,0.0,0.0,11465,23135,21924,28697,15805,5
0.0,0.0,0.0,11453,23067,21946,28754,15868,5
0.0,0.0,0.0,11453,23112,22010,28357,15868,5
0.0,0.0,0.0,11453,23112,21946,28754,15916,5
0.0,0.0,0.0,11465,23067,21903,28697,15900,5
0.0,0.0,0.0,11453,23135,21924,28726,15964,5
0.0,0.0,0.0,11453,23112,21903,28697,15900,5
0.0,0.0,0.0,11453,23067,21903,28697,15900,5
0.0,0.0,0.0,11453,23112,21924,28697,15868,5
0.0,0.0,0.0,11453,23067,21924,28669,15900,5
0.0,0.0,0.0,11453,23112,21924,28726,15900,5
0.0,0.0,0.0,11440,23090,21903,28697,15900,5
0.0,0.0,0.0,11440,23067,22010,28357,15916,5
0.0,0.0,0.0,11453,23044,21903,28697,15868,5
0.0,0.0,0.0,11465,23067,21882,28669,15852,5
0.0,0.0,0.0,11416,23112,21903,28669,15900,5
0.0,0.0,0.0,11453,23067,21882,28669,15900,5
0.0,0.0,0.0,11428,23022,21882,28640,15900,5
0.0,0.0,0.0,11416,23067,21882,28697,15964,5
0.0,0.0,0.0,11453,23044,21818,28640,15980,5
0.0,0.0,0.0,11478,23067,21882,28697,16028,5
0.0,0.0,0.0,11453,23067,21882,28697,16319,5
0.0,0.0,0.0,11465,23112,21818,28640,16287,5
0.0,0.0,0.0,11453,23022,21882,28612,16238,5
0.0,0.0,0.0,11453,23022,21882,28697,16238,5
0.0,0.0,0.0,11453,23022,21860,28640,16222,5
0.0,0.0,0.0,11453,23022,21882,28640,16222,5
0.0,0.0,0.0,11465,23022,21860,28697,16352,5
0.0,0.0,0.0,11703,23022,21839,28697,16385,5
0.0,0.0,0.0,11678,23112,21818,28640,16681,5
0.0,0.0,0.0,11665,23067,21796,28640,16648,5
0.0,0.0,0.0,11653,23112,21818,28697,16516,5
0.0,0.0,0.0,11653,23067,21818,28783,16681,5
0.0,0.0,0.0,11628,23067,21796,28697,16765,5
0.0,0.0,0.0,11628,23044,21754,28640,16932,5
0.0,0.0,0.0,11615,23067,21733,28612,16831,5
0.0,0.0,0.0,11590,23067,21733,28612,16915,5
0.0,0.0,0.0,11553,23044,21711,28583,17033,5
0.0,0.0,0.0,11716,23044,21711,28583,17101,5
0.0,0.0,0.0,11804,23044,21711,28527,17084,5
0.0,0.0,0.0,11868,23067,21711,28470,17050,5
0.0,0.0,0.0,11804,23067,21711,28470,17084,5
0.0,0.0,0.0,11792,23067,21711,28470,17101,5
0.0,0.0,0.0,11779,23022,21711,28470,17101,5
0.0,0.0,0.0,11754,23067,21711,28470,17084,5
0.0,0.0,0.0,11728,23022,21711,28498,17101,5
0.0,0.0,0.0,11703,23022,21669,28498,17169,5
0.0,0.0,0.0,11691,23022,21669,28414,17272,5
0.0,0.0,0.0,11678,23067,21648,28470,17220,5
0.0,0.0,0.0,11678,23044,21627,28442,17237,5
0.0,0.0,0.0,11653,23022,21711,28470,17254,5
0.0,0.0,0.0,11603,23044,21627,28498,17220,5
0.0,0.0,0.0,11603,23067,21627,28414,17237,5
0.0,0.0,0.0,11603,22977,21648,28414,17254,5
0.0,0.0,0.0,11590,23022,21648,28329,17254,5
0.0,0.0,0.0,11603,23044,21606,28329,17237,5
0.0,0.0,0.0,11603,23022,21627,28329,17289,5
0.0,0.0,0.0,11603,23022,21627,28329,17220,5
0.0,0.0,0.0,11590,23022,21627,28357,17237,5
0.0,0.0,0.0,11578,23022,21627,28357,17237,5
0.0,0.0,0.0,11578,23022,21606,28357,17220,5
0.0,0.0,0.0,11578,22977,21627,28357,17254,5
0.0,0.0,0.0,11553,23022,21627,28357,17254,5
0.0,0.0,0.0,11565,23022,21584,28357,17237,5
0.0,0.0,0.0,11553,23022,21542,28357,17220,5
0.0,0.0,0.0,11553,22977,21606,28301,17220,5
0.0,0.0,0.0,11565,22977,21627,28357,17289,5
0.0,0.0,0.0,11553,22977,21584,28301,17426,5
0.0,0.0,0.0,11553,22999,21584,28189,17426,5
0.0,0.0,0.0,11553,23022,21563,28245,17530,5
0.0,0.0,0.0,11553,22955,21542,28189,18272,5
0.0,0.0,0.0,11553,22999,21584,28189,18654,5
0.0,0.0,0.0,11553,22977,21563,28161,18489,5
0.0,0.0,0.0,11603,22977,21542,28133,18362,5
0.0,0.0,0.0,11653,22977,21542,28105,18272,5
0.0,0.0,0.0,11804,23022,21521,28161,18236,5
0.0,0.0,0.0,11830,22999,21479,28077,18218,5
0.0,0.0,0.0,11779,22977,21542,28133,18200,5
0.0,0.0,0.0,11754,22932,21542,28077,18272,5
0.0,0.0,0.0,11716,22955,21500,28161,18272,5
0.0,0.0,0.0,11703,22932,21500,28133,18290,5
0.0,0.0,0.0,11678,22999,21542,28133,18344,5
0.0,0.0,0.0,11653,22977,21479,28105,18344,5
0.0,0.0,0.0,11665,22932,21542,28189,18453,5
0.0,0.0,0.0,11691,22999,21500,28077,18380,5
0.0,0.0,0.0,11653,22932,21479,28133,18435,5
0.0,0.0,0.0,11653,22977,21500,28161,18857,5
0.0,0.0,0.0,11653,22932,21479,28189,19005,5
0.0,0.0,0.0,11665,22932,21458,28133,18949,5
0.0,0.0,0.0,11665,22932,21479,28133,19005,5
0.0,0.0,0.0,11653,22932,21458,28133,19005,5
0.0,0.0,0.0,11754,22977,21458,28049,18931,5
0.0,0.0,0.0,11716,22932,21458,28133,18894,5
0.0,0.0,0.0,11716,22955,21437,28022,18894,5
0.0,0.0,0.0,11716,22887,21416,28022,18912,5
0.0,0.0,0.0,11716,22887,21395,28049,18875,5
0.0,0.0,0.0,11703,22887,21416,28022,18875,5
0.0,0.0,0.0,11703,22887,21458,28022,18875,5
0.0,0.0,0.0,11703,22932,21479,28049,18875,5
0.0,0.0,0.0,11703,22887,21458,28077,18857,5
0.0,0.0,0.0,11703,22843,21416,28022,18709,5
0.0,0.0,0.0,11653,22910,21416,28022,18344,5
0.0,0.0,0.0,11678,22932,21458,28022,18272,5
0.0,0.0,0.0,11703,22887,21375,28022,18489,5
0.0,0.0,0.0,11665,22887,21416,28077,17880,5
0.0,0.0,0.0,11653,22843,21395,28022,17792,5
0.0,0.0,0.0,11691,22843,21416,28049,17757,5
0.0,0.0,0.0,11665,22887,21458,28022,17704,5
0.0,0.0,0.0,11665,22843,21416,28022,17757,5
0.0,0.0,0.0,11665,22820,21416,28022,17809,5
0.0,0.0,0.0,11628,22865,21416,28077,17862,5
0.0,0.0,0.0,11653,22843,21416,28049,17774,5
0.0,0.0,0.0,11678,22887,21375,28022,17792,5
0.0,0.0,0.0,11653,22843,21375,28022,17827,5
0.0,0.0,0.0,11628,22843,21437,28022,17809,5
0.0,0.0,0.0,11653,22865,21395,27966,17792,5
0.0,0.0,0.0,11640,22843,21375,27966,17845,5
0.0,0.0,0.0,11628,22798,21395,27966,17809,5
0.0,0.0,0.0,11653,22843,21375,27966,17792,5
0.0,0.0,0.0,11615,22843,21375,27966,17792,5
0.0,0.0,0.0,11653,22843,21395,27994,17915,5
0.0,0.0,0.0,11578,22798,21416,28022,17915,5
0.0,0.0,0.0,11754,22865,21395,27911,17845,5
0.0,0.0,0.0,11754,22843,21375,27911,17845,5
0.0,0.0,0.0,11728,22887,21395,28022,17845,5
0.0,0.0,0.0,11716,22843,21395,27966,17862,5
0.0,0.0,0.0,11716,22843,21375,27911,17845,5
0.0,0.0,0.0,11703,22843,21375,27939,17845,5
0.0,0.0,0.0,11703,22843,21416,27966,17827,5
0.0,0.0,0.0,11703,22843,21375,27911,17845,5
0.0,0.0,0.0,11703,22820,21395,27939,17862,5
0.0,0.0,0.0,11703,22843,21375,27966,17845,5
0.0,0.0,0.0,11691,22843,21375,27939,17809,5
0.0,0.0,0.0,11703,22798,21395,27966,17845,5
0.0,0.0,0.0,11691,22843,21375,27911,17845,5
0.0,0.0,0.0,11678,22798,21395,27966,17792,5
0.0,0.0,0.0,11703,22865,21395,27911,17845,5
0.0,0.0,0.0,11703,22843,21395,27966,17845,5
0.0,0.0,0.0,11703,22843,21395,27911,17792,5
0.0,0.0,0.0,11703,22776,21375,27911,17774,5
0.0,0.0,0.0,11678,22776,21395,27939,17845,5
0.0,0.0,0.0,11678,22820,21375,27911,17845,5
0.0,0.0,0.0,11691,22843,21375,27939,17845,5
0.0,0.0,0.0,11678,22820,21375,27911,17845,5
0.0,0.0,0.0,11703,22776,21375,27994,17845,5
0.0,0.0,0.0,11665,22798,21333,27856,17809,5
0.0,0.0,0.0,11703,22820,21354,27911,17915,5
0.0,0.0,0.0,11678,22820,21375,27856,17880,5
0.0,0.0,0.0,11678,22798,21375,27883,17862,5
0.0,0.0,0.0,11703,22798,21375,27911,17845,5
0.0,0.0,0.0,11703,22776,21354,27883,17845,5
0.0,0.0,0.0,11653,22843,21354,27911,17845,5
0.0,0.0,0.0,11678,22798,21395,27911,17862,5
0.0,0.0,0.0,11665,22776,21333,27911,17862,5
0.0,0.0,0.0,11703,22754,21395,27856,17845,5
0.0,0.0,0.0,11703,22798,21333,27883,17845,5
0.0,0.0,0.0,11691,22776,21375,27911,17845,5
0.0,0.0,0.0,11678,22843,21333,27856,17880,5
0.0,0.0,0.0,11678,22754,21333,27883,17880,5
0.0,0.0,0.0,11665,22798,21375,27856,17845,5
0.0,0.0,0.0,11665,22754,21375,27856,17880,5
0.0,0.0,0.0,11703,22798,21375,27883,17845,5
0.0,0.0,0.0,11703,22754,21333,27911,17809,5
0.0,0.0,0.0,11653,22776,21333,27856,17845,5
0.0,0.0,0.0,11678,22776,21312,27856,17845,5
0.0,0.0,0.0,11665,22776,21354,27828,17915,5
0.0,0.0,0.0,11678,22798,21333,27856,17880,5
0.0,0.0,0.0,11678,22754,21312,27856,17915,5
0.0,0.0,0.0,11653,22798,21333,27911,17862,5
0.0,0.0,0.0,11665,22754,21333,27828,17845,5
0.0,0.0,0.0,11628,22776,21354,27828,17880,5
0.0,0.0,0.0,11678,22776,21333,27911,17880,5
0.0,0.0,0.0,11665,22754,21312,27856,17845,5
0.0,0.0,0.0,11665,22754,21312,27800,17792,5
0.0,0.0,0.0,11703,22754,21312,27856,17880,5
0.0,0.0,0.0,11678,22754,21312,27828,17845,5
0.0,0.0,0.0,11703,22754,21312,27800,17862,5
0.0,0.0,0.0,11678,22776,21333,27800,17862,5
0.0,0.0,0.0,11691,22754,21312,27800,17862,5
0.0,0.0,0.0,11703,22731,21333,27828,17845,5
0.0,0.0,0.0,11665,22731,21333,27883,17845,5
0.0,0.0,0.0,11703,22754,21312,27856,17862,5
0.0,0.0,0.0,11678,22731,21375,27856,17845,5
0.0,0.0,0.0,11678,22798,21333,27856,17862,5
0.0,0.0,0.0,11678,22754,21333,27800,17845,5
0.0,0.0,0.0,11678,22754,21312,27745,17845,5
0.0,0.0,0.0,11703,22754,21250,27828,17880,5
0.0,0.0,0.0,11703,22709,21312,27800,17809,5
0.0,0.0,0.0,11678,22731,21312,27828,17845,5
0.0,0.0,0.0,11703,22798,21312,27856,17845,5
0.0,0.0,0.0,11678,22754,21375,27856,17845,5
0.0,0.0,0.0,11703,22776,21291,27800,17845,5
0.0,0.0,0.0,11665,22754,21333,27828,17845,5
0.0,0.0,0.0,11653,22754,21312,27828,17845,5
0.0,0.0,0.0,11703,22754,21333,27856,17845,5
0.0,0.0,0.0,11691,22754,21333,27745,17845,5
0.0,0.0,0.0,11691,22754,21333,27828,17862,5
0.0,0.0,0.0,11703,22776,21312,27745,17845,5
0.0,0.0,0.0,11703,22754,21333,27800,17845,5
0.0,0.0,0.0,11678,22709,21312,27800,17845,5
0.0,0.0,0.0,11703,22754,21312,27856,17845,5
0.0,0.0,0.0,11703,22754,21312,27800,17845,5
0.0,0.0,0.0,11703,22754,21312,27773,17880,5
0.0,0.0,0.0,11716,22709,21312,27773,17845,5
0.0,0.0,0.0,11703,22754,21291,27800,17845,5
0.0,0.0,0.0,11678,22798,21312,27828,17845,5
0.0,0.0,0.0,11703,22754,21312,27828,17845,5
0.0,0.0,0.0,11703,22798,21270,27745,17845,5
0.0,0.0,0.0,11653,22709,21333,27828,17845,5
0.0,0.0,0.0,11678,22754,21291,27800,17880,5
0.0,0.0,0.0,11665,22754,21312,27800,17862,5
0.0,0.0,0.0,11691,22754,21312,27773,17845,5
0.0,0.0,0.0,11703,22776,21291,27745,17845,5
0.0,0.0,0.0,11703,22754,21312,27800,17915,5
0.0,0.0,0.0,11703,22754,21291,27800,17845,5
0.0,0.0,0.0,11691,22709,21312,27800,17862,5
0.0,0.0,0.0,11678,22754,21291,27828,17880,5
0.0,0.0,0.0,11678,22709,21291,27745,17915,5
0.0,0.0,0.0,11703,22709,21291,27800,17915,5
0.0,0.0,0.0,11678,22731,21291,27800,17933,5
0.0,0.0,0.0,11665,22754,21312,27828,17915,5
0.0,0.0,0.0,11678,22709,21291,27691,17933,5
0.0,0.0,0.0,11678,22709,21312,27773,17915,5
0.0,0.0,0.0,11653,22709,21291,27745,17880,5
0.0,0.0,0.0,11665,22754,21333,27773,17915,5
0.0,0.0,0.0,11665,22709,21291,27745,17933,5
0.0,0.0,0.0,11691,22754,21291,27745,17880,5
0.0,0.0,0.0,11678,22709,21291,27800,17968,5
0.0,0.0,0.0,11703,22709,21291,27773,17933,5
0.0,0.0,0.0,11665,22687,21270,27773,17915,5
0.0,0.0,0.0,11703,22709,21312,27773,17915,5
0.0,0.0,0.0,11703,22687,21291,27800,17915,5
0.0,0.0,0.0,11703,22709,21229,27745,17933,5
0.0,0.0,0.0,11678,22754,21291,27718,17915,5
0.0,0.0,0.0,11665,22709,21291,27800,17933,5
0.0,0.0,0.0,11665,22754,21291,27745,17951,5
0.0,0.0,0.0,11665,22754,21291,27691,17986,5
0.0,0.0,0.0,11691,22709,21291,27718,17951,5
0.0,0.0,0.0,11665,22731,21229,27800,17986,5
0.0,0.0,0.0,11678,22709,21291,27745,17951,5
0.0,0.0,0.0,11716,22731,21291,27800,17951,5
0.0,0.0,0.0,11665,22798,21291,27800,17968,5
0.0,0.0,0.0,11703,22709,21270,27773,18004,5
0.0,0.0,0.0,11678,22754,21291,27718,17986,5
0.0,0.0,0.0,11678,22754,21291,27745,17968,5
0.0,0.0,0.0,11678,22709,21291,27745,17951,5
0.0,0.0,0.0,11703,22665,21270,27745,17986,5
0.0,0.0,0.0,11703,22709,21291,27800,18004,5
0.0,0.0,0.0,11678,22709,21250,27718,17986,5
0.0,0.0,0.0,11665,22709,21291,27745,17933,5
0.0,0.0,0.0,11691,22754,21312,27745,18004,5
0.0,0.0,0.0,11678,22687,21250,27718,17951,5
0.0,0.0,0.0,11703,22709,21291,27745,18004,5
0.0,0.0,0.0,11678,22754,21312,27718,17986,5
0.0,0.0,0.0,11703,22709,21270,27691,17986,5
0.0,0.0,0.0,11691,22754,21250,27800,17986,5
0.0,0.0,0.0,11716,22665,21250,27745,18004,5
0.0,0.0,0.0,11678,22665,21250,27718,18022,5
0.0,0.0,0.0,11678,22731,21229,27718,17986,5
0.0,0.0,0.0,11678,22665,21291,27745,18004,5
0.0,0.0,0.0,11703,22709,21250,27691,17986,5
0.0,0.0,0.0,11703,22709,21291,27691,18004,5
0.0,0.0,0.0,11678,22731,21250,27691,18057,5
0.0,0.0,0.0,11665,22709,21229,27745,17986,5
0.0,0.0,0.0,11703,22687,21208,27691,18004,5
0.0,0.0,0.0,11678,22709,21270,27691,17951,5
0.0,0.0,0.0,11665,22665,21250,27745,17915,5
0.0,0.0,0.0,11665,22709,21250,27691,17915,5
0.0,0.0,0.0,11678,22709,21250,27636,17915,5
0.0,0.0,0.0,11665,22709,21250,27691,17915,5
0.0,0.0,0.0,11678,22709,21291,27691,17862,5
0.0,0.0,0.0,11653,22709,21291,27718,17845,5
0.0,0.0,0.0,11703,22754,21312,27691,17792,5
0.0,0.0,0.0,11804,22709,21312,27636,17704,5
0.0,0.0,0.0,11754,22754,21333,27691,17600,5
0.0,0.0,0.0,11716,22754,21333,27636,17565,5
0.0,0.0,0.0,11678,22798,21291,27581,17565,5
0.0,0.0,0.0,11653,22798,21375,27745,17392,5
0.0,0.0,0.0,11653,22798,21395,27800,17220,5
0.0,0.0,0.0,11716,22843,21416,27939,16949,5
0.0,0.0,0.0,11855,22776,21542,28189,16615,5
0.0,0.0,0.0,11906,22843,21627,28357,16319,5
0.0,0.0,0.0,11957,22887,21627,28470,16157,5
0.0,0.0,0.0,11932,22932,21648,28527,16060,5
0.0,0.0,0.0,11893,22955,21648,28527,16093,5
0.0,0.0,0.0,11830,22887,21648,28527,16028,5
0.0,0.0,0.0,11804,22887,21648,28527,15996,5
0.0,0.0,0.0,11779,22865,21648,28527,16060,5
0.0,0.0,0.0,11754,22865,21648,28442,15996,5
0.0,0.0,0.0,11728,22887,21627,28414,16028,5
0.0,0.0,0.0,11665,22843,21606,28414,16060,5
0.0,0.0,0.0,11703,22798,21606,28385,16093,5
0.0,0.0,0.0,11691,22776,21627,28470,16093,5
0.0,0.0,0.0,11703,22798,21627,28385,16093,5
0.0,0.0,0.0,11678,22843,21584,28414,16125,5
0.0,0.0,0.0,11678,22887,21584,28357,16157,5
0.0,0.0,0.0,11653,22865,21584,28385,16157,5
0.0,0.0,0.0,11678,22843,21563,28301,16157,5
0.0,0.0,0.0,11665,22843,21606,28357,16157,5
0.0,0.0,0.0,11653,22754,21584,28301,16157,5
0.0,0.0,0.0,11653,22820,21542,28329,16125,5
0.0,0.0,0.0,11665,22776,21563,28301,16189,5
0.0,0.0,0.0,11665,22776,21563,28357,16157,5
0.0,0.0,0.0,11653,22776,21542,28301,16157,5
0.0,0.0,0.0,11653,22843,21584,28357,16222,5
0.0,0.0,0.0,11665,22798,21500,28301,16189,5
0.0,0.0,0.0,11653,22798,21542,28301,16254,5
0.0,0.0,0.0,11653,22798,21542,28301,16271,5
0.0,0.0,0.0,11653,22798,21542,28301,16254,5
0.0,0.0,0.0,11653,22798,21542,28301,16287,5
0.0,0.0,0.0,11653,22798,21542,28245,16189,5
0.0,0.0,0.0,11628,22754,21542,28245,16254,5
0.0,0.0,0.0,11653,22798,21542,28301,16271,5
0.0,0.0,0.0,11628,22754,21521,28301,16222,5
0.0,0.0,0.0,11628,22798,21479,28245,16222,5
0.0,0.0,0.0,11653,22776,21479,28245,16238,5
0.0,0.0,0.0,11628,22754,21479,28245,16238,5
0.0,0.0,0.0,11615,22754,21542,28301,16287,5
0.0,0.0,0.0,11615,22754,21500,28301,16352,5
0.0,0.0,0.0,11615,22754,21500,28245,16287,5
0.0,0.0,0.0,11653,22754,21500,28245,16303,5
0.0,0.0,0.0,11628,22754,21500,28245,16352,5
0.0,0.0,0.0,11628,22754,21500,28301,16352,5
0.0,0.0,0.0,11628,22709,21500,28301,16352,5
0.0,0.0,0.0,11615,22754,21458,28217,16385,5
0.0,0.0,0.0,11615,22709,21479,28301,16352,5
0.0,0.0,0.0,11603,22754,21479,28245,16352,5
0.0,0.0,0.0,11615,22754,21479,28189,16319,5
0.0,0.0,0.0,11603,22754,21479,28245,16352,5
0.0,0.0,0.0,11615,22754,21500,28189,16303,5
0.0,0.0,0.0,11590,22709,21521,28273,16352,5
0.0,0.0,0.0,11603,22754,21458,28245,16385,5
0.0,0.0,0.0,11603,22754,21458,28245,16352,5
0.0,0.0,0.0,11578,22754,21458,28189,16417,5
0.0,0.0,0.0,11578,22754,21479,28301,16385,5
0.0,0.0,0.0,11578,22754,21458,28245,16368,5
0.0,0.0,0.0,11578,22754,21521,28245,16401,5
0.0,0.0,0.0,11578,22709,21479,28245,16385,5
0.0,0.0,0.0,11603,22731,21479,28217,16368,5
0.0,0.0,0.0,11578,22709,21479,28245,16417,5
0.0,0.0,0.0,11578,22709,21458,28245,16368,5
0.0,0.0,0.0,11578,22709,21458,28217,16368,5
0.0,0.0,0.0,11578,22754,21458,28189,16385,5
0.0,0.0,0.0,11565,22709,21458,28217,16450,5
0.0,0.0,0.0,11578,22665,21458,28217,16417,5
0.0,0.0,0.0,11578,22709,21479,28245,16417,5
0.0,0.0,0.0,11578,22754,21479,28189,16450,5
0.0,0.0,0.0,11578,22665,21458,28245,16467,5
0.0,0.0,0.0,11578,22709,21479,28189,16434,5
0.0,0.0,0.0,11578,22709,21458,28245,16417,5
0.0,0.0,0.0,11565,22754,21416,28245,16417,5
0.0,0.0,0.0,11553,22754,21416,28245,16450,5
0.0,0.0,0.0,11553,22709,21458,28217,16483,5
0.0,0.0,0.0,11578,22754,21458,28189,16417,5
0.0,0.0,0.0,11553,22731,21479,28357,16499,5
0.0,0.0,0.0,11515,22709,21458,28245,16483,5
0.0,0.0,0.0,11515,22709,21479,28245,16483,5
0.0,0.0,0.0,11528,22709,21416,28189,16483,5
0.0,0.0,0.0,11528,22754,21437,28189,16549,5
0.0,0.0,0.0,11503,22665,21458,28245,16516,5
0.0,0.0,0.0,11528,22709,21458,28301,16549,5
0.0,0.0,0.0,11503,22709,21458,28189,16532,5
0.0,0.0,0.0,11478,22754,21458,28301,16532,5
0.0,0.0,0.0,11503,22709,21458,28217,16483,5
0.0,0.0,0.0,11490,22731,21395,28133,16499,5
0.0,0.0,0.0,11503,22709,21416,28133,16516,5
0.0,0.0,0.0,11503,22665,21416,28161,16516,5
0.0,0.0,0.0,11503,22709,21416,28133,16549,5
0.0,0.0,0.0,11528,22709,21458,28133,16483,5
0.0,0.0,0.0,11503,22709,21458,28189,16499,5
0.0,0.0,0.0,11503,22709,21375,28133,16483,5
0.0,0.0,0.0,11490,22731,21416,28189,16582,5
0.0,0.0,0.0,11528,22665,21395,28105,16499,5
0.0,0.0,0.0,11515,22665,21458,28133,16499,5
0.0,0.0,0.0,11503,22665,21416,28133,16565,5
0.0,0.0,0.0,11503,22709,21395,28077,16681,5
0.0,0.0,0.0,11553,22665,21395,28189,16949,5
0.0,0.0,0.0,11553,22709,21416,28189,16915,5
0.0,0.0,0.0,11578,22709,21416,28133,16915,5
0.0,0.0,0.0,11578,22665,21354,28049,16915,5
0.0,0.0,0.0,11615,22643,21395,28133,17067,5
0.0,0.0,0.0,11754,22709,21395,28133,17084,5
0.0,0.0,0.0,12060,22665,21395,28161,17118,5
0.0,0.0,0.0,12086,22709,21416,28161,17084,5
0.0,0.0,0.0,12060,22709,21375,28133,17186,5
0.0,0.0,0.0,11983,22709,21375,28105,17169,5
0.0,0.0,0.0,11970,22709,21375,28133,17220,5
0.0,0.0,0.0,11932,22709,21375,28133,17323,5
0.0,0.0,0.0,11932,22687,21375,28133,17289,5
0.0,0.0,0.0,11957,22687,21375,28133,17306,5
0.0,0.0,0.0,11919,22665,21375,28077,17357,5
0.0,0.0,0.0,11957,22643,21375,28133,17357,5
0.0,0.0,0.0,11983,22665,21354,28077,17357,5
0.0,0.0,0.0,11957,22665,21312,28022,17323,5
0.0,0.0,0.0,11944,22709,21375,28077,17272,5
0.0,0.0,0.0,11932,22621,21375,28022,17306,5
0.0,0.0,0.0,11957,22665,21333,28049,17289,5
0.0,0.0,0.0,11983,22665,21375,28049,17323,5
0.0,0.0,0.0,12021,22643,21375,27994,17357,5
0.0,0.0,0.0,12009,22621,21375,27966,17289,5
0.0,0.0,0.0,11881,22621,21375,27966,17289,5
0.0,0.0,0.0,11817,22643,21312,27939,17289,5
0.0,0.0,0.0,11855,22621,21333,28022,17306,5
0.0,0.0,0.0,11817,22599,21312,27966,17323,5
0.0,0.0,0.0,11817,22576,21333,28022,17306,5
0.0,0.0,0.0,11804,22576,21333,28022,17289,5
0.0,0.0,0.0,11817,22599,21354,27966,17289,5
0.0,0.0,0.0,11766,22576,21291,27966,17323,5
0.0,0.0,0.0,11653,22621,21333,27939,17289,5
0.0,0.0,0.0,11653,22709,21354,27856,17289,5
0.0,0.0,0.0,11640,22709,21291,27828,17289,5
0.0,0.0,0.0,11603,22709,21333,27800,17272,5
0.0,0.0,0.0,11653,22709,21333,27828,17357,5
0.0,0.0,0.0,11603,22709,21333,27745,17289,5
0.0,0.0,0.0,11615,22709,21333,27800,17357,5
0.0,0.0,0.0,11665,22687,21333,27800,17323,5
0.0,0.0,0.0,11779,22709,21291,27745,17357,5
0.0,0.0,0.0,11957,22709,21291,27745,17357,5
0.0,0.0,0.0,12163,22776,21312,27636,17392,5
0.0,0.0,0.0,12215,22709,21312,27636,17426,5
0.0,0.0,0.0,12060,22754,21291,27609,17357,5
0.0,0.0,0.0,12009,22709,21333,27663,17392,5
0.0,0.0,0.0,11970,22687,21312,27636,17392,5
0.0,0.0,0.0,12034,22731,21291,27609,17357,5
0.0,0.0,0.0,12797,22754,21333,27609,17392,5
0.0,0.0,0.0,13792,22843,21375,27609,17495,5
0.0,0.0,0.0,14666,22865,21375,27527,17530,5
0.0,0.0,0.0,15521,22887,21458,27472,17669,5
0.0,0.0,0.0,15741,22843,21458,27581,17634,5
0.0,0.0,0.0,15964,22843,21458,27527,17652,5
0.0,0.0,0.0,16028,22887,21416,27499,17704,5
0.0,0.0,0.0,15996,22798,21437,27527,17704,5
0.0,0.0,0.0,15789,22865,21375,27472,17704,5
0.0,0.0,0.0,15647,22798,21437,27472,17704,5
0.0,0.0,0.0,15521,22754,21354,27391,17652,5
0.0,0.0,0.0,15412,22754,21333,27445,17704,5
0.0,0.0,0.0,15397,22798,21333,27445,17669,5
0.0,0.0,0.0,15304,22709,21333,27418,17704,5
0.0,0.0,0.0,15211,22754,21291,27391,17652,5
0.0,0.0,0.0,15165,22754,21354,27472,17634,5
0.0,0.0,0.0,15165,22754,21333,27445,17669,5
0.0,0.0,0.0,15150,22754,21291,27418,17634,5
0.0,0.0,0.0,14922,22665,21333,27418,17652,5
0.0,0.0,0.0,14801,22687,21312,27364,17669,5
0.0,0.0,0.0,14801,22709,21291,27418,17634,5
0.0,0.0,0.0,14846,22709,21291,27364,17634,5
0.0,0.0,0.0,14786,22709,21312,27418,17652,5
0.0,0.0,0.0,14741,22709,21291,27445,17634,5
0.0,0.0,0.0,14666,22709,21312,27391,17617,5
0.0,0.0,0.0,14532,22731,21333,27472,17617,5
0.0,0.0,0.0,14414,22665,21291,27391,17634,5
0.0,0.0,0.0,14414,22665,21291,27391,17617,5
0.0,0.0,0.0,14311,22665,21291,27472,17617,5
0.0,0.0,0.0,14253,22687,21291,27418,17634,5
0.0,0.0,0.0,14151,22643,21312,27391,17634,5
0.0,0.0,0.0,14137,22665,21270,27364,17565,5
0.0,0.0,0.0,14108,22621,21291,27364,17669,5
0.0,0.0,0.0,13978,22665,21250,27391,17600,5
0.0,0.0,0.0,13964,22665,21208,27418,17600,5
0.0,0.0,0.0,13849,22665,21291,27391,17530,5
0.0,0.0,0.0,13735,22621,21250,27391,17513,5
0.0,0.0,0.0,13735,22665,21208,27418,17513,5
0.0,0.0,0.0,13707,22643,21250,27391,17513,5
0.0,0.0,0.0,13650,22599,21208,27364,17513,5
0.0,0.0,0.0,13622,22621,21208,27364,17530,5
0.0,0.0,0.0,13608,22665,21229,27418,17547,5
0.0,0.0,0.0,13524,22599,21208,27364,17513,5
0.0,0.0,0.0,13440,22599,21208,27418,17495,5
0.0,0.0,0.0,13398,22576,21208,27418,17530,5
0.0,0.0,0.0,13343,22576,21167,27391,17513,5
0.0,0.0,0.0,13287,22599,21208,27364,17478,5
0.0,0.0,0.0,13260,22576,21208,27391,17495,5
0.0,0.0,0.0,13246,22576,21208,27364,17495,5
0.0,0.0,0.0,13232,22599,21187,27337,17461,5
0.0,0.0,0.0,13232,22621,21229,27418,17513,5
0.0,0.0,0.0,13191,22576,21146,27337,17495,5
0.0,0.0,0.0,13122,22576,21229,27364,17495,5
0.0,0.0,0.0,13122,22599,21146,27283,17461,5
0.0,0.0,0.0,13068,22576,21167,27364,17495,5
0.0,0.0,0.0,13068,22576,21146,27364,17478,5
0.0,0.0,0.0,13040,22621,21167,27337,17478,5
0.0,0.0,0.0,13013,22532,21167,27418,17495,5
0.0,0.0,0.0,12972,22532,21167,27391,17443,5
0.0,0.0,0.0,12959,22576,21208,27364,17495,5
0.0,0.0,0.0,12959,22576,21208,27337,17495,5
0.0,0.0,0.0,12945,22488,21167,27364,17443,5
0.0,0.0,0.0,12878,22532,21187,27337,17495,5
0.0,0.0,0.0,12878,22532,21125,27337,17426,5
0.0,0.0,0.0,12891,22488,21146,27337,17374,5
0.0,0.0,0.0,12864,22488,21167,27364,17340,5
0.0,0.0,0.0,12851,22510,21125,27364,17254,5
0.0,0.0,0.0,12851,22554,21167,27581,16983,5
0.0,0.0,0.0,12837,22510,21291,27994,16450,5
0.0,0.0,0.0,12824,22510,21250,28022,16303,5
0.0,0.0,0.0,12824,22532,21333,28077,16157,5
0.0,0.0,0.0,12824,22488,21333,28189,16125,5
0.0,0.0,0.0,12824,22532,21375,28245,16125,5
0.0,0.0,0.0,12770,22576,21416,28470,15980,5
0.0,0.0,0.0,12743,22621,21458,28555,15805,5
0.0,0.0,0.0,12690,22665,21458,28583,15837,5
0.0,0.0,0.0,12663,22599,21479,28583,15773,5
0.0,0.0,0.0,12636,22621,21458,28527,15789,5
0.0,0.0,0.0,12636,22665,21458,28470,15773,5
0.0,0.0,0.0,12610,22576,21479,28527,15741,5
0.0,0.0,0.0,12596,22554,21479,28555,15757,5
0.0,0.0,0.0,12583,22576,21479,28498,15726,5
0.0,0.0,0.0,12583,22576,21395,28470,15710,5
0.0,0.0,0.0,12543,22532,21416,28442,15741,5
0.0,0.0,0.0,12530,22576,21458,28470,15710,5
0.0,0.0,0.0,12504,22510,21458,28470,15663,5
0.0,0.0,0.0,12504,22532,21458,28583,15647,5
0.0,0.0,0.0,12477,22576,21500,28697,15647,5
0.0,0.0,0.0,12451,22599,21542,28812,15647,5
0.0,0.0,0.0,12451,22554,21542,28869,15600,5
0.0,0.0,0.0,12438,22621,21542,28898,15584,5
0.0,0.0,0.0,12424,22576,21584,28869,15615,5
0.0,0.0,0.0,12438,22488,21584,28955,15600,5
0.0,0.0,0.0,12398,22510,21584,28984,15553,5
0.0,0.0,0.0,12359,22576,21627,29100,15459,5
0.0,0.0,0.0,12346,22532,21648,29216,15366,5
0.0,0.0,0.0,12333,22576,21669,29333,15304,5
0.0,0.0,0.0,12293,22576,21669,29333,15227,5
0.0,0.0,0.0,12306,22532,21648,29274,15227,5
0.0,0.0,0.0,12241,22576,21711,29391,15211,5
0.0,0.0,0.0,12215,22576,21669,29274,15211,5
0.0,0.0,0.0,12215,22576,21669,29274,15181,5
0.0,0.0,0.0,12215,22576,21711,29245,15165,5
0.0,0.0,0.0,12215,22576,21669,29216,15150,5
0.0,0.0,0.0,12176,22554,21648,29216,15165,5
0.0,0.0,0.0,12176,22576,21627,29216,15181,5
0.0,0.0,0.0,12176,22576,21669,29274,15181,5
0.0,0.0,0.0,12189,22532,21690,29274,15181,5
0.0,0.0,0.0,12163,22532,21711,29216,15150,5
0.0,0.0,0.0,12163,22532,21627,29158,15165,5
0.0,0.0,0.0,12163,22576,21648,29129,15150,5
0.0,0.0,0.0,12163,22510,21627,29100,15150,5
0.0,0.0,0.0,12163,22576,21627,29129,15150,5
0.0,0.0,0.0,12124,22510,21648,29158,15119,5
0.0,0.0,0.0,12099,22466,21584,29158,15165,5
0.0,0.0,0.0,12060,22488,21606,29158,15181,5
0.0,0.0,0.0,11957,22599,21584,29100,15211,5
0.0,0.0,0.0,11970,22665,21648,29071,15211,5
0.0,0.0,0.0,11957,22643,21627,29158,15288,5
0.0,0.0,0.0,11970,22576,21606,29071,15381,5
0.0,0.0,0.0,11983,22576,21627,29100,15521,5
0.0,0.0,0.0,11983,22599,21627,29071,15647,5
0.0,0.0,0.0,11970,22621,21584,28984,15837,5
0.0,0.0,0.0,12009,22621,21584,28927,15868,5
0.0,0.0,0.0,12009,22621,21584,28927,16060,5
0.0,0.0,0.0,11957,22576,21542,28898,15980,5
0.0,0.0,0.0,11957,22554,21584,28927,15868,5
0.0,0.0,0.0,11957,22576,21627,28869,15741,5
0.0,0.0,0.0,11957,22576,21542,28898,15710,5
0.0,0.0,0.0,11932,22576,21584,28812,15789,5
0.0,0.0,0.0,11957,22576,21584,28869,15916,5
0.0,0.0,0.0,11932,22532,21563,28840,16287,5
0.0,0.0,0.0,11919,22532,21563,28812,16549,5
0.0,0.0,0.0,11932,22510,21500,28754,16798,5
0.0,0.0,0.0,11906,22532,21521,28783,16999,5
0.0,0.0,0.0,11906,22532,21500,28726,16882,5
0.0,0.0,0.0,11919,22488,21521,28754,16949,5
0.0,0.0,0.0,11932,22576,21479,28640,16882,5
0.0,0.0,0.0,11906,22510,21458,28697,16949,5
0.0,0.0,0.0,11932,22488,21458,28640,17016,5
0.0,0.0,0.0,11957,22532,21458,28527,16966,5
0.0,0.0,0.0,11957,22510,21479,28583,17016,5
0.0,0.0,0.0,11957,22576,21458,28470,17237,5
0.0,0.0,0.0,11932,22488,21437,28498,17152,5
0.0,0.0,0.0,11957,22510,21416,28470,17050,5
0.0,0.0,0.0,11944,22532,21416,28357,16949,5
0.0,0.0,0.0,11957,22510,21375,28357,16882,5
0.0,0.0,0.0,11957,22488,21416,28470,16882,5
0.0,0.0,0.0,11932,22488,21416,28414,16915,5
0.0,0.0,0.0,11983,22488,21416,28414,16815,5
0.0,0.0,0.0,11957,22532,21375,28357,16848,5
0.0,0.0,0.0,11957,22466,21375,28385,16882,5
0.0,0.0,0.0,11957,22444,21437,28357,16882,5
0.0,0.0,0.0,11932,22444,21416,28414,16882,5
0.0,0.0,0.0,11932,22444,21416,28357,16915,5
0.0,0.0,0.0,11957,22488,21375,28357,16966,5
0.0,0.0,0.0,11957,22488,21333,28301,16966,5
0.0,0.0,0.0,11944,22488,21375,28357,16949,5
0.0,0.0,0.0,11932,22510,21375,28357,16915,5
0.0,0.0,0.0,11906,22488,21375,28301,16932,5
0.0,0.0,0.0,11932,22444,21333,28329,16882,5
0.0,0.0,0.0,11919,22444,21375,28357,16865,5
0.0,0.0,0.0,11932,22444,21375,28301,16798,5
0.0,0.0,0.0,11919,22488,21354,28301,16848,5
0.0,0.0,0.0,11957,22488,21333,28301,16815,5
0.0,0.0,0.0,11932,22444,21375,28301,16983,5
0.0,0.0,0.0,11932,22444,21375,28301,16966,5
0.0,0.0,0.0,11906,22423,21375,28273,16966,5
0.0,0.0,0.0,11932,22444,21395,28301,16983,5
0.0,0.0,0.0,11932,22423,21354,28301,17016,5
0.0,0.0,0.0,11919,22488,21333,28245,16949,5
0.0,0.0,0.0,11932,22401,21312,28273,16966,5
0.0,0.0,0.0,11919,22444,21354,28301,17050,5
0.0,0.0,0.0,11919,22423,21291,28301,17118,5
0.0,0.0,0.0,11906,22488,21291,28301,17306,5
0.0,0.0,0.0,11906,22488,21312,28245,17254,5
0.0,0.0,0.0,11906,22444,21333,28245,17289,5
0.0,0.0,0.0,11919,22401,21312,28217,17254,5
0.0,0.0,0.0,11906,22444,21333,28245,17254,5
0.0,0.0,0.0,11906,22401,21354,28273,17254,5
0.0,0.0,0.0,11893,22488,21291,28245,17306,5
0.0,0.0,0.0,11906,22401,21375,28245,17289,5
0.0,0.0,0.0,11906,22423,21333,28189,17306,5
0.0,0.0,0.0,11906,22423,21333,28245,17443,5
0.0,0.0,0.0,11932,22444,21312,28189,17426,5
0.0,0.0,0.0,12124,22444,21291,28189,17426,5
0.0,0.0,0.0,12504,22466,21333,28189,17495,5
0.0,0.0,0.0,12530,22401,21354,28217,17669,5
0.0,0.0,0.0,12424,22423,21291,28189,17634,5
0.0,0.0,0.0,12372,22401,21291,28189,17617,5
0.0,0.0,0.0,12346,22466,21312,28133,17704,5
0.0,0.0,0.0,12346,22444,21291,28077,17845,5
0.0,0.0,0.0,12267,22444,21291,28133,17968,5
0.0,0.0,0.0,12241,22444,21250,28133,18022,5
0.0,0.0,0.0,12215,22401,21291,28077,17915,5
0.0,0.0,0.0,12215,22401,21291,28049,17898,5
0.0,0.0,0.0,12176,22423,21250,28077,17933,5
0.0,0.0,0.0,12163,22488,21291,28049,18022,5
0.0,0.0,0.0,12163,22423,21250,28022,17986,5
0.0,0.0,0.0,12112,22379,21250,28022,17986,5
0.0,0.0,0.0,12124,22444,21250,28022,18004,5
0.0,0.0,0.0,12112,22444,21250,27966,18022,5
0.0,0.0,0.0,12112,22401,21291,28022,18129,5
0.0,0.0,0.0,12086,22335,21250,27939,18182,5
0.0,0.0,0.0,12073,22401,21291,27939,18164,5
0.0,0.0,0.0,12060,22357,21229,27966,18129,5
0.0,0.0,0.0,12086,22357,21291,27966,18147,5
0.0,0.0,0.0,12099,22357,21229,27911,18164,5
0.0,0.0,0.0,12099,22401,21250,27883,18164,5
0.0,0.0,0.0,12060,22357,21208,27883,18236,5
0.0,0.0,0.0,12060,22401,21250,27856,18164,5
0.0,0.0,0.0,12086,22357,21208,27856,18147,5
0.0,0.0,0.0,12086,22401,21208,27800,18200,5
0.0,0.0,0.0,12060,22379,21229,27911,18236,5
0.0,0.0,0.0,12060,22357,21250,27828,18236,5
0.0,0.0,0.0,12086,22401,21229,27828,18200,5
0.0,0.0,0.0,12060,22401,21375,27883,18200,5
0.0,0.0,0.0,12060,22313,21208,27828,18200,5
0.0,0.0,0.0,12112,22357,21208,27828,18200,5
0.0,0.0,0.0,12034,22335,21208,27828,18218,5
0.0,0.0,0.0,12086,22357,21208,27828,18200,5
0.0,0.0,0.0,12060,22357,21250,27828,18200,5
0.0,0.0,0.0,12060,22313,21187,27800,18200,5
0.0,0.0,0.0,12073,22401,21208,27800,18236,5
0.0,0.0,0.0,12060,22313,21208,27828,18200,5
0.0,0.0,0.0,12060,22401,21229,27828,18147,5
0.0,0.0,0.0,12060,22357,21208,27800,18129,5
0.0,0.0,0.0,12047,22313,21229,27828,18182,5
0.0,0.0,0.0,12060,22379,21208,27800,18164,5
0.0,0.0,0.0,12060,22335,21208,27828,18200,5
0.0,0.0,0.0,12086,22357,21229,27800,18093,5
0.0,0.0,0.0,12034,22335,21208,27800,18147,5
0.0,0.0,0.0,12047,22357,21229,27691,18147,5
0.0,0.0,0.0,12034,22357,21146,27800,18129,5
0.0,0.0,0.0,12034,22357,21208,27800,18147,5
0.0,0.0,0.0,12060,22313,21229,27828,18129,5
0.0,0.0,0.0,12060,22335,21167,27718,18093,5
0.0,0.0,0.0,12060,22401,21229,27800,18075,5
0.0,0.0,0.0,12060,22313,21208,27828,18129,5
0.0,0.0,0.0,12060,22335,21229,27800,18129,5
0.0,0.0,0.0,12047,22335,21187,27745,18129,5
0.0,0.0,0.0,12060,22313,21208,27800,18164,5
0.0,0.0,0.0,12047,22335,21208,27800,18129,5
0.0,0.0,0.0,12060,22357,21208,27745,18218,5
0.0,0.0,0.0,12034,22313,21208,27745,18200,5
0.0,0.0,0.0,12034,22335,21208,27745,18236,5
0.0,0.0,0.0,12034,22401,21167,27745,18236,5
0.0,0.0,0.0,12021,22270,21229,27800,18200,5
0.0,0.0,0.0,12034,22357,21208,27800,18236,5
0.0,0.0,0.0,12060,22335,21167,27800,18164,5
0.0,0.0,0.0,12060,22313,21146,27745,18218,5
0.0,0.0,0.0,12060,22313,21208,27718,18236,5
0.0,0.0,0.0,12034,22335,21208,27800,18236,5
0.0,0.0,0.0,12034,22313,21229,27718,18272,5
0.0,0.0,0.0,12021,22335,21084,27718,18344,5
0.0,0.0,0.0,12021,22270,21208,27745,18362,5
0.0,0.0,0.0,12047,22357,21167,27691,18344,5
0.0,0.0,0.0,12009,22335,21208,27718,18344,5
0.0,0.0,0.0,12034,22335,21208,27745,18362,5
0.0,0.0,0.0,12034,22313,21208,27745,18489,5
0.0,0.0,0.0,12009,22270,21250,27718,18489,5
0.0,0.0,0.0,12021,22357,21229,27745,18489,5
0.0,0.0,0.0,12021,22401,21167,27718,18526,5
0.0,0.0,0.0,12034,22313,21229,27691,18562,5
0.0,0.0,0.0,12009,22357,21208,27718,18489,5
0.0,0.0,0.0,12034,22357,21146,27745,18489,5
0.0,0.0,0.0,12021,22335,21167,27718,18453,5
0.0,0.0,0.0,12047,22357,21125,27636,18489,5
0.0,0.0,0.0,12021,22270,21208,27691,18489,5
0.0,0.0,0.0,12034,22313,21250,27800,18417,5
0.0,0.0,0.0,12034,22335,21208,27691,18489,5
0.0,0.0,0.0,12060,22313,21146,27691,18435,5
0.0,0.0,0.0,12034,22270,21208,27745,18508,5
0.0,0.0,0.0,12009,22248,21167,27745,18562,5
0.0,0.0,0.0,12009,22335,21187,27718,18435,5
0.0,0.0,0.0,12034,22335,21167,27773,18344,5
0.0,0.0,0.0,12009,22270,21187,27745,18399,5
0.0,0.0,0.0,12060,22335,21208,27718,18417,5
0.0,0.0,0.0,12021,22313,21146,27745,18380,5
0.0,0.0,0.0,12060,22292,21125,27745,18435,5
0.0,0.0,0.0,12034,22313,21146,27609,18508,5
0.0,0.0,0.0,12034,22270,21208,27745,18489,5
0.0,0.0,0.0,12047,22313,21167,27745,18417,5
0.0,0.0,0.0,12021,22357,21146,27691,18362,5
0.0,0.0,0.0,12060,22313,21146,27718,18344,5
0.0,0.0,0.0,12034,22313,21167,27663,18362,5
0.0,0.0,0.0,12047,22335,21167,27636,18344,5
0.0,0.0,0.0,12021,22357,21167,27691,18344,5
0.0,0.0,0.0,12009,22313,21125,27718,18344,5
0.0,0.0,0.0,12009,22335,21208,27745,18344,5
0.0,0.0,0.0,12009,22313,21146,27663,18308,5
0.0,0.0,0.0,12009,22357,21208,27718,18308,5
0.0,0.0,0.0,12021,22313,21167,27663,18344,5
0.0,0.0,0.0,12034,22313,21146,27663,18344,5
0.0,0.0,0.0,12021,22270,21146,27581,18308,5
0.0,0.0,0.0,12009,22248,21167,27691,18272,5
0.0,0.0,0.0,12021,22357,21146,27581,18236,5
0.0,0.0,0.0,12021,22270,21064,27663,18272,5
0.0,0.0,0.0,12021,22313,21146,27609,18272,5
0.0,0.0,0.0,12009,22292,21125,27636,18218,5
0.0,0.0,0.0,12021,22292,21125,27636,18236,5
0.0,0.0,0.0,12009,22226,21125,27663,18236,5
0.0,0.0,0.0,12021,22292,21125,27581,18236,5
0.0,0.0,0.0,12021,22270,21125,27609,18200,5
0.0,0.0,0.0,12009,22270,21146,27609,18200,5
0.0,0.0,0.0,11983,22292,21167,27636,18272,5
0.0,0.0,0.0,12034,22270,21146,27609,18218,5
0.0,0.0,0.0,12021,22270,21167,27609,18236,5
0.0,0.0,0.0,12021,22226,21167,27691,18200,5
0.0,0.0,0.0,12009,22248,21125,27581,18218,5
0.0,0.0,0.0,12009,22270,21125,27636,18147,5
0.0,0.0,0.0,12009,22270,21146,27636,18200,5
0.0,0.0,0.0,12009,22292,21146,27527,18182,5
0.0,0.0,0.0,12021,22313,21167,27609,18182,5
0.0,0.0,0.0,12009,22313,21125,27581,18182,5
0.0,0.0,0.0,12009,22313,21125,27609,18182,5
0.0,0.0,0.0,12009,22270,21125,27581,18236,5
0.0,0.0,0.0,12034,22248,21125,27581,18254,5
0.0,0.0,0.0,12021,22270,21146,27636,18236,5
0.0,0.0,0.0,12009,22313,21146,27636,18200,5
0.0,0.0,0.0,12009,22270,21208,27691,18218,5
0.0,0.0,0.0,12009,22270,21167,27636,18200,5
0.0,0.0,0.0,12060,22313,21125,27581,18236,5
0.0,0.0,0.0,12009,22313,21167,27663,18236,5
0.0,0.0,0.0,12021,22313,21146,27581,18200,5
0.0,0.0,0.0,12021,22313,21125,27636,18236,5
0.0,0.0,0.0,12009,22270,21125,27581,18200,5
0.0,0.0,0.0,12009,22313,21125,27636,18236,5
0.0,0.0,0.0,12009,22292,21146,27581,18200,5
0.0,0.0,0.0,12009,22226,21146,27581,18236,5
0.0,0.0,0.0,12009,22313,21146,27636,18200,5
0.0,0.0,0.0,12021,22313,21146,27581,18272,5
0.0,0.0,0.0,12009,22292,21167,27636,18272,5
0.0,0.0,0.0,12009,22248,21146,27609,18200,5
0.0,0.0,0.0,12034,22335,21125,27527,18272,5
0.0,0.0,0.0,12021,22270,21064,27581,18200,5
0.0,0.0,0.0,12021,22292,21208,27663,18200,5
0.0,0.0,0.0,12009,22357,21167,27609,18200,5
0.0,0.0,0.0,12021,22313,21146,27581,18236,5
0.0,0.0,0.0,12060,22313,21146,27609,18200,5
0.0,0.0,0.0,12034,22270,21105,27581,18200,5
0.0,0.0,0.0,12021,22270,21167,27581,18218,5
0.0,0.0,0.0,12034,22335,21167,27609,18272,5
0.0,0.0,0.0,12009,22292,21146,27609,18290,5
0.0,0.0,0.0,12009,22335,21146,27581,18380,5
0.0,0.0,0.0,12060,22335,21146,27609,18453,5
0.0,0.0,0.0,12021,22270,21146,27581,18489,5
0.0,0.0,0.0,12034,22270,21167,27636,18489,5
0.0,0.0,0.0,11983,22313,21167,27609,18453,5
0.0,0.0,0.0,12034,22313,21125,27581,18417,5
0.0,0.0,0.0,12021,22248,21146,27745,18489,5
0.0,0.0,0.0,12009,22248,21208,27609,18417,5
0.0,0.0,0.0,12034,22248,21146,27581,18435,5
0.0,0.0,0.0,12034,22270,21064,27554,18399,5
0.0,0.0,0.0,12021,22270,21146,27554,18435,5
0.0,0.0,0.0,12021,22270,21125,27581,18417,5
0.0,0.0,0.0,12021,22226,21146,27581,18417,5
0.0,0.0,0.0,12034,22248,21125,27527,18435,5
0.0,0.0,0.0,12060,22270,21167,27581,18453,5
0.0,0.0,0.0,12060,22313,21084,27581,18417,5
0.0,0.0,0.0,12021,22270,21125,27581,18435,5
0.0,0.0,0.0,12060,22226,21146,27499,18453,5
0.0,0.0,0.0,12009,22270,21167,27609,18471,5
0.0,0.0,0.0,12034,22270,21125,27581,18417,5
0.0,0.0,0.0,12034,22335,21084,27554,18417,5
0.0,0.0,0.0,12034,22313,21125,27527,18435,5
0.0,0.0,0.0,12034,22313,21105,27581,18417,5
0.0,0.0,0.0,12009,22313,21125,27527,18417,5
0.0,0.0,0.0,12034,22335,21125,27527,18417,5
0.0,0.0,0.0,12021,22270,21125,27499,18380,5
0.0,0.0,0.0,12021,22270,21125,27527,18380,5
0.0,0.0,0.0,12034,22335,21105,27499,18417,5
0.0,0.0,0.0,12021,22313,21125,27472,18417,5
0.0,0.0,0.0,12009,22313,21125,27527,18453,5
0.0,0.0,0.0,12009,22313,21105,27581,18417,5
0.0,0.0,0.0,12009,22226,21125,27499,18417,5
0.0,0.0,0.0,12034,22270,21125,27581,18417,5
0.0,0.0,0.0,12060,22270,21167,27581,18453,5
0.0,0.0,0.0,12021,22226,21125,27581,18581,5
0.0,0.0,0.0,12021,22248,21125,27527,18857,5
0.0,0.0,0.0,12034,22248,21125,27527,19249,5
0.0,0.0,0.0,12021,22313,21146,27581,19306,5
0.0,0.0,0.0,12021,22270,21167,27636,19325,5
0.0,0.0,0.0,12424,22313,21125,27527,19344,5
0.0,0.0,0.0,12636,22270,21125,27581,19344,5
0.0,0.0,0.0,12543,22226,21167,27636,19306,5
0.0,0.0,0.0,12424,22270,21125,27581,19287,5
0.0,0.0,0.0,12359,22270,21125,27554,19268,5
0.0,0.0,0.0,12320,22270,21146,27527,19249,5
0.0,0.0,0.0,12346,22313,21125,27472,19249,5
0.0,0.0,0.0,12346,22292,21125,27527,19268,5
0.0,0.0,0.0,12293,22313,21125,27472,19268,5
0.0,0.0,0.0,12320,22313,21105,27554,19212,5
0.0,0.0,0.0,12267,22226,21125,27527,19231,5
0.0,0.0,0.0,12320,22226,21125,27527,19231,5
0.0,0.0,0.0,12293,22313,21084,27445,19193,5
0.0,0.0,0.0,12306,22248,21125,27499,19212,5
0.0,0.0,0.0,12280,22226,21125,27554,19231,5
0.0,0.0,0.0,12280,22335,21125,27499,19231,5
0.0,0.0,0.0,12280,22270,21125,27581,19231,5
0.0,0.0,0.0,12293,22270,21084,27472,19193,5
0.0,0.0,0.0,12293,22183,21125,27499,19231,5
0.0,0.0,0.0,12267,22248,21125,27527,19174,5
0.0,0.0,0.0,12280,22313,21125,27472,19231,5
0.0,0.0,0.0,12267,22270,21125,27527,19212,5
0.0,0.0,0.0,12280,22270,21125,27472,19231,5
0.0,0.0,0.0,12267,22205,21084,27472,19193,5
0.0,0.0,0.0,12267,22313,21064,27527,19174,5
0.0,0.0,0.0,12267,22292,21146,27527,19174,5
0.0,0.0,0.0,12267,22248,21125,27472,19155,5
0.0,0.0,0.0,12241,22226,21125,27527,19174,5
0.0,0.0,0.0,12267,22248,21125,27499,19212,5
0.0,0.0,0.0,12280,22270,21125,27527,19193,5
0.0,0.0,0.0,12267,22335,21084,27418,19193,5
0.0,0.0,0.0,12241,22248,21125,27499,19212,5
0.0,0.0,0.0,12254,22248,21146,27527,19231,5
0.0,0.0,0.0,12267,22313,21084,27472,19155,5
0.0,0.0,0.0,12267,22270,21125,27472,19193,5
0.0,0.0,0.0,12241,22248,21125,27527,19212,5
0.0,0.0,0.0,12267,22270,21105,27472,19155,5
0.0,0.0,0.0,12280,22270,21105,27472,19231,5
0.0,0.0,0.0,12267,22226,21125,27499,19155,5
0.0,0.0,0.0,12267,22313,21125,27445,19155,5
0.0,0.0,0.0,12228,22270,21084,27472,19155,5
0.0,0.0,0.0,12241,22248,21125,27472,19193,5
0.0,0.0,0.0,12241,22270,21125,27499,19155,5
0.0,0.0,0.0,12267,22248,21125,27472,19136,5
0.0,0.0,0.0,12267,22313,21146,27472,19174,5
0.0,0.0,0.0,12267,22270,21105,27472,19155,5
0.0,0.0,0.0,12267,22292,21125,27445,19099,5
0.0,0.0,0.0,12267,22313,21084,27472,19080,5
0.0,0.0,0.0,12254,22226,21064,27472,19080,5
0.0,0.0,0.0,12267,22313,21084,27418,19155,5
0.0,0.0,0.0,12267,22270,21105,27418,19043,5
0.0,0.0,0.0,12215,22226,21146,27472,19080,5
0.0,0.0,0.0,12254,22226,21125,27472,19024,5
0.0,0.0,0.0,12267,22248,21084,27445,18949,5
0.0,0.0,0.0,12241,22226,21146,27472,19080,5
0.0,0.0,0.0,12241,22313,21125,27364,19005,5
0.0,0.0,0.0,12267,22248,21125,27472,18968,5
0.0,0.0,0.0,12228,22270,21125,27472,18912,5
0.0,0.0,0.0,12254,22248,21125,27472,18838,5
0.0,0.0,0.0,12241,22270,21105,27472,18857,5
0.0,0.0,0.0,12241,22270,21125,27472,18857,5
0.0,0.0,0.0,12241,22226,21125,27472,18875,5
0.0,0.0,0.0,12241,22270,21125,27472,18894,5
0.0,0.0,0.0,12215,22270,21125,27445,18875,5
0.0,0.0,0.0,12267,22270,21146,27418,18894,5
0.0,0.0,0.0,12241,22248,21125,27472,18857,5
0.0,0.0,0.0,12241,22226,21146,27472,18931,5
0.0,0.0,0.0,12267,22248,21084,27391,18857,5
0.0,0.0,0.0,12215,22270,21125,27472,18931,5
0.0,0.0,0.0,12228,22226,21084,27391,18857,5
0.0,0.0,0.0,12241,22313,21105,27418,18931,5
0.0,0.0,0.0,12228,22270,21084,27418,18875,5
0.0,0.0,0.0,12241,22292,21125,27418,18931,5
0.0,0.0,0.0,12267,22226,21125,27472,18894,5
0.0,0.0,0.0,12228,22226,21125,27418,18894,5
0.0,0.0,0.0,12241,22226,21084,27472,18931,5
0.0,0.0,0.0,12241,22270,21105,27364,18857,5
0.0,0.0,0.0,12267,22270,21125,27418,18894,5
0.0,0.0,0.0,12228,22292,21146,27472,18894,5
0.0,0.0,0.0,12241,22226,21146,27391,18857,5
0.0,0.0,0.0,12241,22248,21125,27418,18820,5
0.0,0.0,0.0,12241,22313,21084,27364,18857,5
0.0,0.0,0.0,12215,22248,21125,27445,18912,5
0.0,0.0,0.0,12215,22226,21084,27418,18857,5
0.0,0.0,0.0,12241,22226,21146,27418,18875,5
0.0,0.0,0.0,12241,22226,21125,27418,18857,5
0.0,0.0,0.0,12241,22270,21146,27418,18931,5
0.0,0.0,0.0,12241,22270,21146,27364,18912,5
0.0,0.0,0.0,12241,22270,21125,27472,18857,5
0.0,0.0,0.0,12254,22226,21105,27418,18894,5
0.0,0.0,0.0,12254,22270,20981,27418,18894,5
0.0,0.0,0.0,12267,22292,21146,27418,18931,5
0.0,0.0,0.0,12267,22313,21125,27337,18931,5
0.0,0.0,0.0,12228,22248,21125,27472,18931,5
0.0,0.0,0.0,12228,22270,21125,27418,18894,5
0.0,0.0,0.0,12267,22226,21084,27391,18912,5
0.0,0.0,0.0,12228,22226,21105,27445,18931,5
0.0,0.0,0.0,12241,22226,21146,27418,18931,5
0.0,0.0,0.0,12215,22270,21167,27418,18931,5
0.0,0.0,0.0,12215,22270,21084,27391,18875,5
0.0,0.0,0.0,12228,22292,21084,27418,19005,5
0.0,0.0,0.0,12215,22226,21125,27418,18949,5
0.0,0.0,0.0,12215,22183,21146,27418,18949,5
0.0,0.0,0.0,12202,22248,21146,27472,18949,5
0.0,0.0,0.0,12228,22226,21125,27418,18949,5
0.0,0.0,0.0,12228,22313,21125,27364,19005,5
0.0,0.0,0.0,12228,22248,21146,27418,19005,5
0.0,0.0,0.0,12228,22313,21084,27391,18931,5
0.0,0.0,0.0,12241,22248,21146,27445,18949,5
0.0,0.0,0.0,12215,22226,21146,27391,18894,5
0.0,0.0,0.0,12215,22270,21167,27418,18931,5
0.0,0.0,0.0,12215,22226,21125,27364,18875,5
0.0,0.0,0.0,12228,22205,21125,27418,18931,5
0.0,0.0,0.0,12241,22292,21125,27418,18931,5
0.0,0.0,0.0,12215,22270,21125,27364,18894,5
0.0,0.0,0.0,12267,22226,21125,27364,18894,5
0.0,0.0,0.0,12215,22248,21146,27472,18949,5
0.0,0.0,0.0,12241,22313,21125,27391,18875,5
0.0,0.0,0.0,12241,22313,21125,27418,18931,5
0.0,0.0,0.0,12228,22270,21125,27391,18912,5
0.0,0.0,0.0,12228,22270,21125,27364,18912,5
0.0,0.0,0.0,12228,22248,21084,27418,18857,5
0.0,0.0,0.0,12215,22226,21146,27364,18931,5
0.0,0.0,0.0,12241,22226,21125,27364,18931,5
0.0,0.0,0.0,12228,22226,21125,27445,18931,5
0.0,0.0,0.0,12215,22205,21125,27418,18912,5
0.0,0.0,0.0,12241,22292,21125,27391,18949,5
0.0,0.0,0.0,12267,22248,21084,27364,18875,5
0.0,0.0,0.0,12215,22226,21084,27418,18931,5
0.0,0.0,0.0,12215,22270,21084,27364,18894,5
0.0,0.0,0.0,12228,22270,21125,27364,18894,5
0.0,0.0,0.0,12228,22226,21105,27418,18894,5
0.0,0.0,0.0,12228,22313,21084,27364,18875,5
0.0,0.0,0.0,12228,22226,21125,27364,18931,5
0.0,0.0,0.0,12215,22226,21125,27472,18894,5
0.0,0.0,0.0,12215,22248,21125,27364,18931,5
0.0,0.0,0.0,12228,22270,21125,27283,18894,5
0.0,0.0,0.0,12215,22183,21125,27472,18894,5
0.0,0.0,0.0,12215,22270,21125,27391,18857,5
0.0,0.0,0.0,12228,22226,21125,27364,18857,5
0.0,0.0,0.0,12228,22248,21125,27418,18599,5
0.0,0.0,0.0,12202,22270,21125,27391,18562,5
0.0,0.0,0.0,12280,22313,21125,27391,18147,5
0.0,0.0,0.0,12267,22226,21146,27472,17880,5
0.0,0.0,0.0,12267,22270,21125,27391,17845,5
0.0,0.0,0.0,12267,22313,21125,27418,17845,5
0.0,0.0,0.0,12254,22270,21125,27445,17862,5
0.0,0.0,0.0,12215,22270,21146,27418,17792,5
0.0,0.0,0.0,12215,22335,21125,27445,17757,5
0.0,0.0,0.0,12215,22335,21167,27472,17634,5
0.0,0.0,0.0,12189,22379,21167,27472,17513,5
0.0,0.0,0.0,12215,22357,21250,27636,17357,5
0.0,0.0,0.0,12176,22401,21167,27581,17186,5
0.0,0.0,0.0,12176,22401,21250,27691,16949,5
0.0,0.0,0.0,12215,22401,21291,27828,16582,5
0.0,0.0,0.0,12215,22488,21291,27911,16352,5
0.0,0.0,0.0,12215,22488,21250,27966,16287,5
0.0,0.0,0.0,12189,22510,21333,28022,16222,5
0.0,0.0,0.0,12189,22532,21375,28105,16189,5
0.0,0.0,0.0,12202,22576,21375,28133,16093,5
0.0,0.0,0.0,12202,22576,21375,28049,16060,5
0.0,0.0,0.0,12163,22510,21333,28133,16060,5
0.0,0.0,0.0,12112,22510,21312,28049,16028,5
0.0,0.0,0.0,12086,22488,21312,28133,16028,5
0.0,0.0,0.0,12124,22444,21333,28049,16060,5
0.0,0.0,0.0,12112,22554,21354,28022,16028,5
0.0,0.0,0.0,12073,22532,21291,27966,15980,5
0.0,0.0,0.0,12060,22488,21333,28022,16060,5
0.0,0.0,0.0,12034,22444,21291,28022,16028,5
0.0,0.0,0.0,12021,22488,21291,27966,16028,5
0.0,0.0,0.0,11983,22510,21250,27966,16028,5
0.0,0.0,0.0,11983,22401,21312,27994,15964,5
0.0,0.0,0.0,11970,22423,21250,27939,15996,5
0.0,0.0,0.0,11983,22488,21250,27966,15964,5
0.0,0.0,0.0,11919,22444,21291,27939,15964,5
0.0,0.0,0.0,11944,22401,21270,27966,15980,5
0.0,0.0,0.0,11957,22401,21250,27966,15980,5
0.0,0.0,0.0,11970,22401,21229,27966,15980,5
