GyroX,GyroY,GyroZ,Thumb,Index,Middle,Ring,Pinky,Gesture
-125,-122,143,26202,11060,11170,11453,19650,4
-217,-342,183,26331,11072,11280,11553,20098,4
-88,-204,44,26150,11072,11182,11603,19980,4
-65,-162,107,25920,11121,11304,11603,19863,4
-20,-48,23,25717,11121,11170,11678,19882,4
-23,-77,46,25843,11157,11194,11665,19999,4
-8,-95,29,26047,11170,11304,11804,20256,4
-148,-309,154,25894,11206,11354,12280,20395,4
-127,-472,287,25717,11219,11317,12743,20415,4
-281,-781,360,24824,11231,11403,12596,20176,4
78,166,-154,24678,11255,11304,12086,20137,4
-33,211,-220,25241,11157,11219,11665,20256,4
50,-57,-2,26124,11170,11268,11478,20039,4
-101,-69,-22,26047,11157,11243,11366,20039,4
-13,145,-67,25996,11206,11109,11354,19999,4
-39,-8,59,25996,11157,11109,11304,19882,4
18,108,-34,26047,11157,11206,11317,19999,4
-10,-58,57,26228,11121,11060,11268,20078,4
-4,48,-4,26176,11194,11072,11268,19999,4
-12,77,39,26073,11157,11182,11354,20019,4
3,-64,71,26124,11170,11182,11268,20196,4
13,-49,-21,26253,11121,11219,11341,20256,4
52,189,-100,26124,11121,11219,11354,20315,4
32,-27,-88,26202,11157,11255,11268,20176,4
38,44,-55,26124,11121,11255,11379,20335,4
2,6,57,26228,11170,11317,11292,20335,4
-33,-52,75,26150,11121,11268,11366,20275,4
-55,-2,90,26305,11170,11206,11379,20335,4
-20,-29,17,26150,11157,11304,11280,20415,4
-57,70,-59,26099,11109,11280,11329,20395,4
-19,82,-71,26150,11121,11255,11317,20117,4
-72,-62,83,26331,11036,11304,11366,20335,4
-34,-17,-4,26357,11048,11243,11268,20315,4
-13,-37,-16,26228,11072,11280,11366,20196,4
-11,-7,-8,26202,11072,11304,11354,20335,4
-38,-77,29,26228,11012,11231,11255,20236,4
-42,-51,-5,26228,10975,11255,11354,20236,4
13,-37,4,26279,11012,11206,11304,20295,4
118,69,-67,26202,11024,11182,11268,20236,4
34,31,32,26202,10987,11268,11255,20098,4
144,-27,43,26435,11048,11268,11304,20117,4
151,-211,1,26383,11036,11231,11304,20098,4
242,-192,112,26513,11012,11366,11304,20098,4
79,33,97,26749,10999,11317,11354,20078,4
53,-20,-36,27636,11084,11329,11453,20236,4
30,65,-12,26961,11084,11341,11403,21250,4
-38,52,72,26829,11109,11354,11503,20275,4
0,-78,26,26802,11036,11403,11428,20256,4
46,58,18,26882,11072,11428,11515,20335,4
90,-155,-28,26644,11096,11403,11590,20236,4
211,-201,-129,26644,11133,11503,11628,19999,4
54,-22,-9,26592,11036,11503,11628,20275,4
-9,15,-12,26409,11145,11453,11691,20315,4
-13,-8,19,26022,11157,11553,11728,20535,4
45,10,-39,25793,11096,11478,11754,20435,4
19,53,19,25691,11109,11465,11868,20315,4
19,-11,5,25490,11121,11478,11957,20275,4
7,-93,21,25291,11072,11553,12021,20435,4
15,-89,-12,25019,11170,11515,12112,20555,4
-18,-50,27,24727,11121,11503,12398,20435,4
-28,-59,48,24654,11219,11603,12464,20335,4
-132,-96,83,24510,11157,11603,12398,20236,4
-27,-13,11,24342,11157,11503,12112,20355,4
-38,28,17,24630,11170,11465,11919,20236,4
-11,101,-35,25616,11121,11403,11804,20236,4
-15,112,-19,26357,11170,11428,11754,20078,4
131,158,-200,26749,11157,11366,11503,20315,4
21,74,-30,27256,11121,11243,11490,20475,4
48,38,-5,27310,11121,11219,11416,20716,4
38,-13,-1,27283,11096,11268,11403,20696,4
65,-4,60,27310,11157,11317,11503,20716,4
41,74,3,27148,11121,11231,11465,21043,4
34,73,15,27041,11133,11317,11553,20981,4
-96,-12,80,26882,11109,11292,11465,20737,4
-139,-37,-96,26908,11121,11280,11503,20676,4
-186,-3,-55,26802,11109,11231,11416,20395,4
-358,-247,129,26829,11109,11109,11304,20117,4
-336,-253,182,26961,11109,11109,11329,20098,4
-137,-123,54,26935,11133,11060,11255,20157,4
-19,55,-54,26988,11145,11060,11292,20078,4
25,141,-84,27148,11121,11012,11268,19960,4
-43,79,14,26961,11157,11145,11206,19921,4
-7,-16,31,26935,11157,11012,11255,20157,4
38,53,-6,27041,11157,11012,11206,20039,4
39,112,3,26882,11121,11096,11206,20078,4
-21,36,58,26961,11109,11012,11304,20117,4
-29,55,70,26908,11121,10975,11219,20137,4
-6,49,17,26855,11109,11072,11243,20078,4
30,84,-6,26829,11133,11060,11231,20236,4
40,48,-71,26829,11072,11060,11304,20475,4
25,14,29,26802,11133,11206,11206,20435,4
35,23,-10,26802,11157,11109,11255,20475,4
-18,-29,42,26723,11109,11121,11317,20475,4
19,35,-9,26829,11121,11157,11268,20435,4
-2,3,17,26723,11096,11157,11317,20475,4
-2,9,-4,26802,11109,11121,11329,20495,4
12,13,2,26855,11084,11096,11255,20495,4
12,-1,-14,26697,11145,11157,11317,20575,4
-11,-5,7,26697,11060,11157,11268,20555,4
-2,2,7,26829,11133,11133,11317,20455,4
18,25,-22,26749,11121,11133,11255,20495,4
-2,-3,19,26618,11109,11121,11317,20535,4
5,0,6,26723,11157,11206,11304,20495,4
3,13,-9,26670,11133,11121,11268,20395,4
-23,-37,47,26697,11109,11206,11354,20355,4
28,0,-26,26723,11133,11182,11329,20475,4
13,53,-105,26723,11109,11206,11354,20555,4
-29,-27,-114,26697,11060,11206,11317,20575,4
-100,-38,-68,26618,11157,11219,11304,20636,4
-48,-75,-56,26409,11084,11206,11379,20615,4
-60,10,-73,26305,11133,11157,11304,20575,4
-37,-6,-86,26279,11096,11231,11379,20535,4
-27,-80,-86,26150,11145,11206,11317,20475,4
6,-25,-127,26202,11109,11243,11379,20455,4
45,36,-65,26099,11157,11280,11416,20415,4
58,66,34,26202,11084,11280,11354,20495,4
27,27,15,26176,11109,11304,11428,20495,4
13,-8,-6,26202,11157,11317,11366,20315,4
-23,-33,45,26124,11157,11354,11453,20275,4
45,-93,5,26253,11109,11379,11428,20455,4
-48,109,-54,26176,11096,11304,11403,20335,4
-28,-70,-65,26228,11109,11304,11317,20236,4
-92,29,-52,26150,11084,11194,11317,19708,4
-32,-21,5,26099,11133,11084,11304,19554,4
12,47,-40,26099,11096,11182,11280,19592,4
26,81,-39,25996,11072,11121,11243,19785,4
-19,162,-16,26073,11121,11084,11255,19902,4
-12,98,-59,25996,11133,11194,11255,19863,4
-9,6,-10,25996,11084,11170,11354,19902,4
-29,-40,52,26022,11109,11157,11268,19999,4
26,-48,-73,25971,11133,11206,11268,19999,4
14,-20,-25,25996,11133,11206,11366,19999,4
18,79,-127,25920,11109,11243,11354,20019,4
41,5,-200,25996,11048,11255,11354,19999,4
55,48,-74,26099,11084,11219,11329,20078,4
53,87,-22,26047,11109,11268,11354,20019,4
35,32,-3,25996,11072,11317,11354,19921,4
28,99,-63,26124,11109,11280,11354,19999,4
23,18,-12,25996,11060,11304,11440,19902,4
-53,19,9,26022,11072,11329,11478,19863,4
-53,-18,13,26022,11109,11292,11453,19921,4
-30,-67,65,26073,11145,11354,11354,19882,4
-32,77,-2,26047,11121,11317,11304,19669,4
-15,12,-10,25996,11109,11206,11329,19420,4
-41,-60,4,25945,11072,11182,11292,19231,4
-78,-47,66,25869,11084,11084,11304,19249,4
22,50,-125,25818,11121,11121,11255,19231,4
-60,43,-54,25818,11060,11206,11304,19193,4
-35,40,-66,25793,11109,11194,11280,19212,4
-6,-62,-3,25793,11109,11109,11292,19268,4
-30,84,-30,25717,11109,11096,11206,19155,4
-15,-49,0,25818,11072,11012,11206,19231,4
3,7,-14,25843,11048,11084,11268,19155,4
-10,-37,40,25793,11121,11012,11231,19249,4
5,-3,5,25945,11109,11012,11304,19231,4
-6,-10,37,25894,11121,11072,11255,19249,4
-18,32,7,25945,11072,11036,11219,19458,4
-2,18,32,25894,11133,11060,11268,19727,4
-13,-21,65,25945,11072,11121,11268,19689,4
-2,3,14,25945,11109,11182,11304,19863,4
22,33,-9,25894,11072,11182,11255,19921,4
10,7,-1,25920,11109,11121,11317,19902,4
22,16,-5,25843,11060,11206,11317,19785,4
9,13,7,25843,11133,11133,11255,19921,4
26,10,-3,25793,11109,11182,11255,20019,4
4,-4,-2,25894,11133,11157,11255,19863,4
16,20,-6,25793,11084,11170,11292,19960,4
7,17,1,25793,11121,11231,11268,19960,4
13,5,-12,25894,11109,11206,11317,19921,4
-11,3,0,25894,11109,11231,11304,19843,4
2,11,5,25843,11084,11231,11255,19941,4
26,16,-25,25843,11084,11243,11354,19902,4
26,22,-11,25793,11072,11317,11354,19766,4
-7,-21,10,25742,11072,11206,11304,19941,4
-7,-6,16,25742,11121,11255,11354,19805,4
-15,14,8,25920,11109,11170,11255,19805,4
-2,-15,7,25843,11084,11182,11341,19921,4
12,9,-5,25793,11072,11219,11268,19843,4
8,49,-23,25742,11060,11317,11354,19843,4
17,-19,-19,25793,11060,11280,11329,19921,4
27,62,-7,25767,11072,11231,11366,19843,4
9,-30,-3,25894,11109,11255,11354,19843,4
-9,3,18,25818,11072,11255,11366,19785,4
-26,-47,38,25767,11121,11255,11354,19843,4
3,18,-19,25869,11060,11243,11280,19921,4
-5,2,0,25818,11072,11182,11354,19805,4
-24,-40,24,25767,11060,11182,11268,19941,4
17,-11,24,25793,11060,11243,11354,19902,4
0,5,-25,25742,11036,11243,11317,19882,4
14,11,-12,25818,11133,11206,11268,20039,4
-2,-8,3,25818,11096,11206,11354,19999,4
-13,54,-38,25793,11060,11231,11304,20019,4
-25,-27,24,25869,11060,11157,11268,20078,4
11,43,-9,25767,11060,11317,11268,20039,4
8,-1,-6,25793,11133,11255,11354,19999,4
3,11,-13,25971,11084,11280,11268,20039,4
10,6,-12,25894,11060,11182,11304,20078,4
15,10,-4,25920,11084,11255,11268,20078,4
22,-1,-13,25818,11121,11170,11304,20117,4
-2,13,5,26099,11060,11255,11379,20176,4
0,5,-1,25869,11109,11170,11403,20176,4
4,-45,50,25945,11060,11255,11403,20236,4
22,-13,-6,25971,11072,11255,11366,20256,4
56,44,-37,25894,11133,11182,11403,20196,4
21,-46,-21,25691,11121,11206,11317,19999,4
74,36,-100,25742,11072,11060,11304,19535,4
-31,-39,-47,25691,11072,11096,11255,19401,4
-96,-9,29,25641,11072,11012,11304,19382,4
3,-61,-13,25691,11109,11036,11219,19155,4
9,68,-134,25843,11060,10963,11268,19249,4
37,35,-52,26022,11084,10987,11268,19155,4
-13,-4,5,26124,11048,11012,11206,19155,4
-2,27,-16,26099,11109,11109,11255,19249,4
-24,14,9,26022,11036,11012,11280,19325,4
17,32,-59,26073,11060,11012,11206,19497,4
8,25,-3,26047,11024,11024,11268,19535,4
8,14,-20,26047,11109,10951,11268,19669,4
49,35,-28,26047,11060,11084,11255,19708,4
18,-19,20,26124,11109,11012,11206,19689,4
55,-44,11,25996,11060,11024,11255,19766,4
-3,26,-28,25894,11060,10975,11219,19708,4
-7,20,-3,26073,11109,10963,11182,19650,4
-41,24,-21,26022,11096,11012,11255,19785,4
-1,64,-30,25920,11024,11024,11268,19960,4
17,38,-24,25894,11024,11109,11280,19941,4
109,48,-20,26022,11084,11157,11243,20236,4
-35,-158,175,26202,11121,11170,11317,20176,4
-41,-28,1,26022,11048,11280,11403,20117,4
-8,-52,65,25920,11060,11268,11354,20078,4
-84,-126,82,25843,11036,11304,11403,20157,4
-12,-27,22,25717,11036,11268,11403,19999,4
12,-15,-3,25717,11084,11231,11354,19999,4
1,-36,9,25591,11109,11133,11317,19824,4
-128,-31,53,25742,11060,11170,11304,19766,4
82,-392,66,26124,11109,11024,11280,19382,4
143,161,-152,26305,11121,11072,11304,19136,4
74,108,-61,26073,11096,11084,11292,19118,4
-73,4,-11,26305,11109,11133,11304,19155,4
-49,-66,36,26228,11121,11170,11219,19099,4
62,69,-70,26435,11060,11121,11268,19231,4
33,37,-13,26305,11109,11206,11292,19382,4
26,45,-7,26409,11084,11268,11268,19535,4
5,45,-32,26409,11121,11268,11304,19631,4
12,20,-2,26228,11157,11304,11304,19631,4
111,50,-21,26305,11133,11503,11354,19882,4
60,-4,2,26487,11109,11603,11653,19960,4
39,29,-16,26513,11219,12424,12346,19863,4
19,-49,26,26670,11453,14282,13013,20019,4
37,-21,11,26855,11957,15412,13246,20039,4
11,-33,32,26935,12490,16565,13608,19999,4
24,-69,37,26988,13122,17634,14166,20098,4
-11,-15,39,27068,13665,18654,14997,20098,4
15,56,-26,27256,14224,19155,15366,20196,4
-4,-10,5,27068,14726,19573,15459,20236,4
-4,-4,16,27148,14741,19650,15428,20315,4
15,32,-13,26882,14922,19612,15211,20475,4
23,22,-39,26855,15350,19477,14982,20415,4
-1,-1,-8,26749,16254,19805,15043,20475,4
-135,-116,80,26882,16915,21043,14891,20515,4
-37,-13,-11,26829,17101,20798,14967,20395,4
19,-1,2,26935,16532,19960,14967,20256,4
1,18,-12,26935,16093,19325,15028,20315,4
5,11,-20,27041,16222,19136,14982,20435,4
-39,-16,27,27472,16109,18599,14846,20818,4
6,-54,32,27175,15964,18489,14846,20595,4
-2,-36,48,27445,15996,18182,14444,20636,4
122,-74,10,27745,15884,17582,14151,20636,4
19,-82,25,28022,15773,17495,14122,20636,4
59,6,-30,28301,15710,17443,14195,20395,4
93,218,-223,28301,15852,17323,14108,20058,4
-45,-29,-79,28414,15789,16983,13878,19689,4
42,-19,-5,28414,15805,16681,13246,19344,4
-19,-54,-26,28301,15837,16483,12959,19043,4
-8,32,-18,28470,15900,16582,12851,19024,4
-66,61,-62,28357,15773,16549,12918,18987,4
-2,-11,-9,28189,15647,16565,12756,19080,4
3,67,-16,28049,15600,16483,12743,19099,4
19,8,-1,27911,15615,16516,12676,18968,4
16,-10,34,27718,15584,16450,12743,19024,4
-9,-41,48,27745,15089,16417,12972,19061,4
-5,-59,19,27745,14592,16434,13287,19005,4
41,-12,-15,27828,14385,16401,13482,19043,4
-25,-183,141,27828,14311,16615,13679,19080,4
23,-85,83,28245,14166,16715,13749,19005,4
67,62,-60,28217,13594,16352,13749,19005,4
188,67,-51,27800,12346,15553,13580,18931,4
42,-73,63,27691,11490,14370,13426,18875,4
-39,67,-55,27691,11255,13964,13246,18931,4
10,50,-44,27691,11231,13821,13095,18820,4
-31,6,20,27663,11268,13792,13013,18801,4
-41,-23,51,27554,11231,13792,12703,18857,4
56,48,-53,27554,11280,13764,12663,18875,4
-11,114,-100,27418,11219,13835,12649,18801,4
-24,23,-21,27472,11280,13707,12556,18801,4
-5,-26,35,27418,11268,13749,12543,18801,4
-1,11,-22,27472,11280,13821,12636,18801,4
-31,-38,4,27364,11243,13735,12583,18783,4
-70,-98,5,27418,11243,13650,12398,18949,4
36,72,-101,27472,11268,13482,12320,18894,4
43,-99,77,27581,11206,13027,12320,18783,4
9,-25,29,27636,11219,12649,12280,18635,4
37,142,-102,27499,11219,12477,12189,18709,4
-4,17,36,27691,11255,12424,12228,18654,4
22,94,-33,27472,11219,12703,13122,18709,4
1,63,-27,27364,11231,12649,13246,18857,4
43,102,-59,27418,11268,12690,13287,18857,4
8,-30,23,27364,11255,12824,13287,18801,4
1,16,-22,27256,11255,12851,13287,18801,4
-21,-12,27,27202,11268,12851,13315,18857,4
-17,19,-4,27229,11268,12864,13205,18857,4
36,14,-27,27175,11255,12851,13232,18746,4
20,-4,3,27122,11243,12770,13205,18764,4
12,-24,23,27256,11255,12690,13136,18746,4
-33,21,11,27068,11231,12690,13150,18672,4
-14,11,20,27068,11255,12703,13191,18727,4
10,0,15,26961,11255,12690,12999,18857,4
-44,203,-125,26908,11280,12756,12851,18801,4
-22,-56,80,26961,11403,12730,12596,18931,4
-155,-40,64,26829,11703,12690,12060,18857,4
-5,79,-43,26961,11919,12596,11665,19080,4
-43,-106,118,28385,11932,12530,11678,20157,4
-70,82,-7,28470,11855,12424,11703,20435,4
-43,8,45,28022,11957,12293,11653,19921,4
-150,137,-110,27663,12864,12034,11553,19631,4
-109,-152,65,28077,13287,11983,11465,19708,4
-187,156,-69,27966,13315,11906,11465,20078,4
-121,-179,213,27828,13357,11983,11553,21270,4
-106,-35,28,27718,13398,11983,11590,21754,4
57,-137,67,27800,12918,11428,11503,21882,4
-24,-151,64,27911,12851,11219,11391,21627,4
-31,-343,132,27911,12851,11219,11317,21002,4
-255,-367,118,28133,12891,11182,11292,20335,4
-94,-88,23,28245,13232,11084,11280,20058,4
28,-38,-84,28161,13566,11121,11341,19941,4
-141,1,2,28133,13721,11084,11354,19824,4
2,-206,116,28442,14547,11145,11317,19727,4
-5,143,-70,28385,15459,11354,11304,19921,4
-5,127,-75,28357,15726,11304,11354,19863,4
-195,-226,54,28161,15678,11403,11354,19766,4
-126,-237,111,28442,16417,11528,11304,19439,4
-22,-198,34,28385,16615,11653,11304,19344,4
-55,69,-59,28357,16632,11754,11317,19174,4
-159,135,-68,28189,16549,11766,11354,19193,4
20,-9,0,28217,16615,11766,11366,19118,4
-57,58,-11,28245,16698,11830,11354,19024,4
-43,-43,24,28133,16681,11817,11354,19080,4
-48,-231,154,28245,16632,11728,11354,19155,4
53,78,-38,28301,16499,11766,11416,19174,4
-17,45,3,28357,16368,11741,11453,19005,4
20,167,-75,28245,16238,11779,11453,19080,4
27,20,8,28133,16189,11716,11478,18949,4
37,43,-30,28049,16157,11792,11503,19024,4
71,-24,9,28077,16125,11779,11465,19080,4
11,-9,-189,28049,16141,11754,11503,19099,4
57,57,-194,28133,16141,11716,11515,18968,4
-40,-88,-293,28077,16109,11754,11515,19099,4
112,-164,-325,28133,16093,11779,11515,19080,4
18,-1,-53,28245,16028,11716,11453,19193,4
185,-25,-196,28189,16109,11703,11503,19249,4
262,-33,-137,28077,16093,11766,11453,19249,4
314,-201,-17,28357,16028,11804,11503,19401,4
221,-232,-318,28357,15980,11728,11478,19592,4
189,-176,49,28442,16060,11817,11503,19805,4
143,-292,97,28927,15996,11868,11615,19999,4
325,-187,-58,29274,15600,11970,11678,20315,4
383,58,89,30075,13357,12215,11754,21167,4
208,158,153,30469,12009,12320,11932,21416,4
291,-87,-247,29865,11817,12346,12163,20475,4
33,-25,-29,29304,11565,12346,12150,20256,4
78,90,85,28955,11304,12293,12124,20058,4
-28,196,142,28898,11255,12086,12112,19960,4
187,343,115,29042,11157,11665,11868,19921,4
-16,567,-110,28583,11121,11465,11565,19843,4
-162,253,16,28498,11109,11416,11366,19554,4
-110,120,104,28301,11109,11280,11391,19401,4
45,53,-37,28189,11084,11157,11366,19193,4
72,111,-124,28357,11121,11157,11329,19231,4
79,-12,-28,28385,11060,11219,11354,19024,4
179,-284,-134,28273,11133,11354,11379,19306,4
117,-322,-82,26409,11170,11465,12504,20176,4
-52,-28,-134,25490,11182,11428,12438,19902,4
12,-9,-94,24970,11157,11490,12293,18691,4
-32,-95,56,24654,11170,11453,12372,17986,4
-17,-55,50,24366,11121,11515,12490,17792,4
61,20,-36,24152,11133,11553,12477,17774,4
-47,-6,42,24011,11145,11653,12477,17774,4
-73,-23,22,24510,11170,11703,12530,16093,4
-77,-14,-12,25241,11170,11855,12451,15211,4
-65,-63,12,26409,11170,12034,12543,13792,4
36,13,-90,27554,11182,12073,12490,12703,4
145,266,-162,29627,11170,12163,12530,12267,4
152,187,-134,31244,11194,12293,12972,12086,4
175,-138,-34,32500,11145,12596,13949,13679,4
143,-1,-178,34341,11206,12797,14547,14562,4
128,34,-135,36462,11304,12972,14532,14326,4
-46,62,147,36462,11255,12810,14036,15789,4
-345,49,290,36843,11304,12610,14108,16254,4
29,-155,71,36690,11578,12464,13835,16815,4
128,-43,4,36424,11817,12424,13580,16882,4
85,-85,-60,36310,11817,12451,13665,16815,4
73,-86,19,36010,11754,12451,13921,17118,4
-13,-45,13,36160,11716,12438,14967,17289,4
40,-92,-51,36424,11603,12636,16222,16949,4
-168,-127,90,36462,11653,12530,16028,16949,4
-110,-88,71,36499,11615,12543,15475,16731,4
16,18,21,36538,11653,12583,15335,16681,4
-38,-117,124,36499,11640,12824,16698,16598,4
-231,-122,81,36920,11615,12743,14726,16582,4
-22,-236,172,36499,11665,12596,13343,16516,4
-44,-69,76,36160,11615,12649,12398,16434,4
32,122,-131,35898,11603,12570,12124,16352,4
-20,35,-14,35492,11653,12320,11957,16109,4
-104,107,-132,35127,11653,12047,11628,16157,4
-86,-28,44,35091,11615,11804,11478,16157,4
-63,58,-80,35018,11603,11640,11453,16028,4
-100,-50,20,34731,11578,11603,11465,16044,4
-95,195,-159,34696,11553,11565,11453,16060,4
-37,101,14,34660,11515,11603,11403,16109,4
-19,-11,-11,34553,11528,11565,11465,16060,4
24,36,19,34589,11453,11578,11453,16044,4
-2,31,1,34553,11465,11565,11453,16093,4
-3,-16,36,34624,11515,11640,11465,16093,4
-3,-68,37,34518,11528,11590,11379,16028,4
10,39,-11,34589,11515,11678,11379,16028,4
-4,52,-4,34624,11528,11754,11465,16028,4
48,17,-10,34767,11453,11665,11453,16060,4
34,4,-28,34447,11478,11766,11515,16012,4
30,74,-71,34553,11503,11703,11528,16352,4
-5,-10,7,34341,11503,11754,11515,16287,4
29,-44,23,34482,11515,11665,11515,16303,4
34,-76,12,34447,11478,11678,11478,16238,4
22,-26,0,34518,11366,11716,11490,16157,4
5,-15,-5,34518,11416,11603,11490,16222,4
4,20,-47,34482,11366,11653,11553,16141,4
12,-28,40,34553,11354,11615,11804,16093,4
40,19,-22,34624,11292,11640,11983,16189,4
-44,-56,73,34731,11304,11628,11906,16368,4
19,-47,52,34553,11304,11578,11817,16189,4
7,47,-45,34306,11366,11603,11855,16254,4
1,-9,32,34341,11304,11528,11779,16173,4
-81,-26,35,34412,11354,11615,11754,16189,4
-26,27,-30,34271,11366,11565,11465,16044,4
7,-10,-39,34026,11478,11540,11453,15980,4
-123,-109,132,33921,11553,11453,11453,15980,4
-81,-64,16,33852,11754,11440,11354,15996,4
-95,-29,59,33679,12254,11440,11317,15900,4
85,119,-100,33474,12346,11478,11366,15964,4
-50,216,-31,33168,12583,11465,11403,15964,4
-195,44,97,32899,12756,11478,11366,15964,4
-14,15,117,32765,13081,11515,11379,16093,4
-44,34,43,32566,13566,11515,11453,16254,4
22,-37,15,32500,13580,11453,11453,16206,4
-10,-114,50,32666,13608,11453,11465,16109,4
51,-17,3,32666,13608,11478,11440,16109,4
-22,-35,-30,32799,13650,11416,11428,15980,4
-210,-500,276,32732,13792,11317,11379,15980,4
-16,-53,23,32899,13964,11317,11403,15884,4
71,114,-21,32799,13863,11366,11304,15852,4
40,86,1,32699,13906,11317,11304,15932,4
75,83,-24,32699,13849,11255,11366,15868,4
38,63,12,32533,13835,11255,11366,15868,4
-20,-13,39,32500,13735,11317,11379,15852,4
-2,-15,36,32566,13821,11280,11403,15789,4
65,-80,49,32566,13835,11268,11453,15852,4
30,78,-66,32500,13764,11329,11403,15868,4
41,29,-39,32633,13792,11341,11403,15821,4
21,3,-5,32699,13735,11354,11453,15789,4
26,15,-4,32666,13721,11366,11428,15805,4
69,121,-28,32765,13735,11366,11403,15741,4
28,82,-1,32633,13650,11304,11465,15821,4
15,90,-67,32402,13693,11354,11453,15900,4
42,33,-29,32500,13693,11317,11453,15884,4
25,7,-40,32500,13679,11304,11428,15900,4
23,-2,5,32566,13693,11317,11478,15837,4
0,6,48,32336,13650,11366,11453,15789,4
0,-45,9,32369,13679,11416,11403,15868,4
-25,-115,48,32336,13650,11403,11416,15741,4
43,44,-63,32303,13580,11428,11428,15805,4
-19,-13,-27,32303,13580,11416,11428,15821,4
49,-113,44,32533,13068,11628,11515,15789,4
47,-20,-14,32932,12596,11957,11553,15900,4
-23,-9,-20,32899,11970,11868,11578,15900,4
38,84,-105,32899,11590,11868,11653,15964,4
-8,101,-60,32799,11503,11830,11653,15964,4
-16,17,14,32899,11503,11792,11578,15900,4
15,3,0,33033,11428,11919,11703,15821,4
-34,32,16,32866,11465,11868,11665,15900,4
23,19,-18,32799,11503,11906,11754,15852,4
12,-12,-35,32666,11403,11970,11766,15789,4
11,43,9,32765,11453,11957,11766,15837,4
18,-6,-38,32765,11478,11970,11804,15773,4
-14,10,11,32666,11428,12009,11804,15789,4
11,32,-24,32699,11478,12047,11868,15773,4
31,27,-40,32633,11453,12047,11855,15805,4
7,19,-23,32500,11453,12021,11804,15837,4
1,29,-8,32533,11453,12073,11766,15789,4
13,10,-27,32435,11403,12060,11868,15710,4
-19,-23,22,32369,11416,12073,11792,15805,4
-29,-24,10,32402,11428,12009,11766,15837,4
6,30,-45,32303,11465,12060,11855,15710,4
0,-57,43,32369,11465,11970,11766,15663,4
-15,-32,18,32271,11453,11893,11817,15710,4
-33,-30,31,32238,11453,11804,11741,15663,4
-22,-9,1,32271,11403,11766,11653,15710,4
-26,-11,-15,32140,11391,11653,11703,15773,4
29,29,-22,32369,11354,11728,11754,16093,4
49,61,24,32402,11317,11678,11932,15837,4
25,57,-2,32599,11354,11766,11957,16028,4
14,-16,10,33067,11354,11817,12073,16450,4
46,-36,86,32899,11416,11932,12477,16549,4
159,145,-116,33748,11428,11983,12703,16966,4
-13,-61,67,33474,11465,11792,12176,16748,4
41,62,-36,33269,11465,11792,12073,16815,4
14,20,-36,33303,11465,11817,12137,16765,4
-64,-12,64,32899,11403,11830,12073,16157,4
8,45,-17,32765,11403,11868,12150,15647,4
-8,1,10,33303,11403,11881,12086,15211,4
7,36,4,33542,11465,11932,12176,14741,4
-8,8,7,31817,11366,12034,12215,14282,4
-68,-11,43,31624,11403,12047,12163,14137,4
1,38,-51,30838,11391,12047,12215,13906,4
-17,24,-27,30438,11453,12034,12241,13849,4
-114,-52,-11,30256,11453,12021,12320,13849,4
9,18,-65,27800,11428,12073,12320,13764,4
-12,21,-8,25490,11465,12112,12477,14326,4
-9,-76,30,23847,11428,12047,12477,16681,4
-79,-80,50,23135,11453,12047,12703,17827,4
-32,-32,47,22665,11528,12086,12810,18727,4
-120,-237,140,22248,11528,12099,12824,19306,4
-72,-402,291,21989,11603,12086,12810,19344,4
-53,-315,185,23090,11403,12060,12756,19136,4
44,-4,-52,24534,11304,11728,12359,18820,4
-36,145,-57,25894,11329,11615,12189,19401,4
-26,29,30,26988,11354,11615,12073,19941,4
29,83,-53,27068,11403,11553,12060,19805,4
-10,65,-3,26829,11391,11578,12163,19902,4
-45,5,12,27041,11329,11615,12137,19999,4
-82,79,-38,26618,11341,11640,12112,19689,4
-17,79,10,26935,11317,11628,12189,19921,4
-145,-83,91,27364,11317,11603,12163,20176,4
-20,-41,-60,27554,11366,11503,11817,20039,4
-186,-170,-27,27581,11553,11280,11453,19824,4
-225,-246,77,27718,11416,11206,11354,19554,4
-59,22,-62,27800,11317,11157,11354,19249,4
-39,144,-142,27828,11354,11060,11304,19155,4
-204,75,-24,27939,11292,11109,11280,19136,4
-57,20,-55,27718,11268,11060,11354,19099,4
21,30,-14,27773,11206,11133,11280,19099,4
63,-2,22,27828,11206,11060,11304,19231,4
10,12,26,27800,11170,11109,11280,19249,4
245,36,86,27828,11170,11084,11354,19193,4
84,99,120,28077,11121,11157,11268,19535,4
21,-10,29,28049,11133,11280,11268,19458,4
25,4,4,28077,11170,11280,11354,19516,4
47,209,-88,28049,11121,11255,11354,19325,4
-10,246,-139,28022,11157,11219,11292,19249,4
-67,-93,42,27939,11206,11280,11366,19268,4
-100,-222,84,27856,11121,11194,11354,19043,4
114,-51,-31,28105,11157,11133,11317,18801,4
7,39,16,28022,11182,11182,11317,18838,4
-4,-7,19,27911,11182,11206,11280,18801,4
-21,-20,34,27800,11145,11280,11317,18857,4
20,23,10,27911,11194,11145,11329,18727,4
-17,41,27,27828,11133,11255,11317,18783,4
-9,4,24,27718,11170,11157,11280,18987,4
53,36,-3,27745,11170,11304,11366,19005,4
22,-60,53,27800,11170,11453,11416,19024,4
0,-136,84,27828,11219,11515,11366,19193,4
-45,-153,26,27911,11219,11553,11379,18912,4
46,73,-102,27939,11194,11603,11354,18783,4
-2,-19,69,28077,11206,11603,11304,18617,4
0,35,-44,28022,11170,11515,11304,18709,4
2,12,1,27745,11133,11503,11354,18599,4
9,37,-23,27636,11182,11503,11304,18654,4
-8,3,42,27636,11206,11565,11304,18599,4
10,15,14,27691,11206,11515,11304,18709,4
16,27,16,27499,11182,11565,11329,18783,4
15,6,25,27663,11182,11528,11379,18727,4
18,-38,31,27527,11182,11553,11354,18783,4
10,-2,-6,27527,11145,11603,11354,18709,4
-21,62,-68,27609,11157,11503,11379,18783,4
17,-7,12,27472,11182,11565,11366,18783,4
-26,-5,50,27527,11219,11603,11354,18783,4
-2,-18,46,27636,11206,11553,11354,18727,4
-6,4,34,27527,11157,11653,11366,18783,4
3,-2,18,27499,11206,11691,11391,18931,4
8,15,-4,27581,11219,11703,11453,18801,4
5,10,-16,27636,11133,11754,11515,18912,4
17,28,-13,27636,11145,11678,11478,18875,4
5,9,-18,27609,11157,11665,11453,18801,4
7,-14,17,27581,11182,11754,11515,18801,4
-1,-33,24,27691,11219,11703,11403,18894,4
46,-2,-43,27581,11170,11703,11453,18801,4
-5,114,-98,27581,11109,11653,11416,18783,4
-5,22,-14,27636,11206,11565,11453,18857,4
10,36,-43,27636,11182,11628,11465,18875,4
-12,28,13,27691,11182,11665,11503,18894,4
-5,24,-18,27527,11157,11628,11503,18857,4
-3,13,-5,27581,11182,11691,11503,18783,4
14,-2,-16,27609,11157,11653,11416,18857,4
-6,1,13,27499,11206,11653,11503,18875,4
-5,9,-15,27472,11219,11754,11428,18857,4
-9,-3,15,27527,11145,11665,11453,18857,4
4,19,-22,27472,11157,11716,11440,18801,4
1,-29,14,27364,11206,11716,11453,18764,4
3,-3,3,27472,11219,11703,11440,18857,4
7,8,-4,27472,11182,11754,11453,18709,4
-26,-56,47,27445,11157,11665,11503,18783,4
-27,-56,8,27472,11219,11653,11379,18764,4
-34,-22,-45,27527,11170,11553,11366,18654,4
-24,-10,-31,27554,11194,11540,11416,18709,4
-13,31,-25,27472,11157,11453,11366,18562,4
9,26,-20,27527,11268,11465,11329,18526,4
-70,18,-20,27499,11428,11528,11304,18562,4
-86,-15,10,27472,11503,11465,11354,18635,4
-68,33,-24,27527,11603,11553,11366,18562,4
-18,19,11,27418,11578,11503,11304,18709,4
35,12,-44,27364,11603,11515,11304,18783,4
36,65,-33,27391,11983,11503,11304,18820,4
6,-2,7,27283,12716,11528,11354,18894,4
4,99,-65,27364,13177,11553,11379,18820,4
-88,79,-20,27229,13552,11553,11354,18783,4
-12,27,-36,27283,14064,11490,11304,18746,4
-16,47,-19,27418,14021,11465,11317,18746,4
17,8,-7,27256,13935,11503,11317,18801,4
11,-38,5,27256,13693,11540,11366,18857,4
20,55,-23,27310,13693,11565,11354,18857,4
1,0,-28,27310,13636,11515,11403,18820,4
6,-78,56,27202,13608,11503,11366,18764,4
51,-118,51,27554,13205,11565,11366,18875,4
57,-144,28,27911,12490,11553,11490,18820,4
-9,-141,-20,28133,11944,11578,11416,18783,4
-1,-65,-38,28049,11354,11478,11403,18709,4
97,79,-259,28049,11157,11341,11304,18489,4
-62,382,-269,27994,11157,11231,11280,18489,4
90,21,36,28022,11170,11157,11354,18508,4
-37,49,-7,28049,11157,11206,11304,18801,4
64,81,-24,28049,11133,11231,11304,18931,4
-25,-10,12,28049,11182,11170,11354,19024,4
-61,20,2,28301,11109,11121,11354,19249,4
-189,-105,137,28612,11145,11133,11280,19325,4
-28,-83,47,28612,11157,11157,11366,19231,4
83,68,-58,28754,11170,11182,11255,19306,4
66,-30,4,28869,11206,11170,11280,19306,4
37,13,-10,28442,11133,11133,11304,19249,4
0,-4,15,28498,11182,11121,11354,19231,4
-7,-40,80,28442,11206,11109,11354,19118,4
25,13,5,28357,11170,11304,11329,19212,4
-17,33,29,28357,11206,11133,11354,19193,4
61,48,-31,28357,11206,11170,11268,19193,4
15,-22,9,28133,11182,11317,11304,19174,4
-14,9,21,28161,11121,11219,11341,19249,4
5,2,1,28245,11109,11170,11317,19193,4
9,-3,5,28133,11182,11157,11268,19174,4
53,46,-41,28301,11157,11157,11329,19249,4
-6,4,0,28217,11206,11231,11280,19325,4
7,8,2,28245,11157,11206,11268,19193,4
-35,-15,16,28161,11121,11231,11304,19268,4
-47,15,0,28301,11157,11194,11354,19306,4
-15,36,-16,28133,11121,11292,11366,19231,4
-9,-13,-5,28301,11133,11280,11292,19612,4
12,10,-1,28245,11157,11206,11317,19477,4
56,48,-57,28189,11170,11304,11366,19535,4
56,43,-27,28273,11206,11317,11341,19573,4
28,40,-2,28357,11206,11268,11341,19882,4
22,13,-17,28470,11219,11292,11379,19960,4
4,40,-11,28612,11170,11304,11453,20137,4
-64,-28,42,28726,11243,11317,11478,20078,4
-211,-134,135,28669,11231,11403,11515,20236,4
-10,36,-5,28414,11157,11465,11603,20395,4
41,9,-10,28385,11170,11453,11615,20495,4
21,52,-41,28022,11170,11465,11615,19999,4
196,186,-171,28133,11157,11465,11653,18654,4
19,31,-36,28726,11206,11515,11741,18004,4
32,95,-84,28754,11157,11565,11804,16287,4
89,66,-52,29865,11194,11665,11868,13398,4
407,268,-130,30165,11157,11691,11868,12477,4
0,-20,171,31720,11157,11766,12060,12241,4
-3,-84,62,32402,11219,11957,12451,12424,4
-77,-58,71,32765,11219,12112,12464,13964,4
-77,36,4,33439,11255,12086,12490,15074,4
