GyroX,GyroY,GyroZ,Thumb,Index,Middle,Ring,Pinky,Gesture
9,12,-6,16798,31087,41757,34910,34271,0
26,-8,-4,16815,31150,41757,34946,34200,0
-25,-4,20,16748,31056,41712,34946,34165,0
-2,-12,11,16781,31119,41757,34874,34200,0
-9,12,4,16815,31087,41757,34910,34200,0
4,-6,-5,16882,31119,41757,34910,34235,0
17,7,-5,16915,31087,41712,34874,34165,0
21,2,26,16983,31025,41622,34910,34165,0
18,-25,-12,16949,31119,41712,34982,34165,0
25,-24,-20,16966,31087,41622,34982,34165,0
81,-78,-68,16983,31087,41622,34982,34200,0
116,-18,-157,16983,31025,41757,35055,34200,0
123,-33,-179,17084,31025,41622,35091,34130,0
171,12,-175,17186,30962,41712,35199,34165,0
57,54,-73,17289,30962,41803,35199,34165,0
134,6,-13,17374,30931,41667,35199,34200,0
97,42,19,17669,30962,41622,35127,34200,0
100,40,21,17600,30994,41622,34982,34165,0
77,-53,-5,17513,30869,41443,34874,34060,0
36,6,-18,17634,30900,41399,34767,34060,0
-131,181,-28,17289,30900,41309,34589,34165,0
11,-6,37,16983,30962,41309,34589,34060,0
134,-9,-38,16815,31087,41265,34553,33991,0
30,119,-20,16483,30962,41399,34624,33991,0
52,90,28,16125,30869,41399,34553,33991,0
100,340,21,21989,30776,41488,34874,34060,0
196,135,-80,24630,30807,41577,35055,34060,0
-95,12,-80,25490,30745,41577,34874,33991,0
-118,-158,51,27041,30622,41488,34767,33956,0
4,-228,43,27527,30499,41443,34731,34026,0
-100,-282,-4,28329,30561,41488,34553,33991,0
-33,-101,70,28301,30469,41488,34589,34060,0
44,-5,-37,29071,30317,41443,34696,34026,0
18,-51,-42,29746,30256,41488,34696,33921,0
50,3,-22,29865,30165,41488,34696,33887,0
-14,59,-2,30347,30165,41399,34696,33956,0
39,84,-18,29746,30105,41265,34553,33852,0
-2,-16,-21,28385,30105,41309,34376,33852,0
35,10,-28,28329,30015,41221,34341,33887,0
-2,-16,13,28984,29895,41265,34376,33852,0
62,-1,-17,28697,29865,41221,34412,33783,0
58,28,1,28555,30135,41176,34341,33714,0
-1,-25,-9,26935,30256,41176,34271,33576,0
-46,0,3,25894,30317,41176,34200,33542,0
-23,-16,-16,26047,30165,41221,34200,33508,0
-35,-8,-22,26099,30165,41176,34200,33576,0
-52,-27,5,25717,30226,41132,34060,33542,0
-24,47,8,26305,30469,40955,34130,33576,0
76,37,-24,26409,30469,40824,34165,33439,0
155,2,-89,25691,30653,40868,34165,33508,0
204,-15,18,24702,30622,40912,34412,33611,0
151,85,1,22621,30591,41221,34482,33645,0
304,126,-29,22532,30438,41757,34731,33645,0
233,143,45,25192,30377,41803,34874,33783,0
58,-21,-31,26409,30469,41938,34910,33783,0
-201,-33,-23,27095,30377,42075,34982,33852,0
-254,-89,-65,27148,30256,41893,34910,33748,0
-75,-85,-100,26961,30165,41938,34874,33714,0
-3,68,-41,25316,30347,42029,34910,33748,0
144,105,32,24921,30317,41984,34874,33714,0
-2,-148,31,25591,30286,42075,34839,33783,0
-28,-123,11,26618,30045,41984,34839,34412,0
-59,-137,-35,27148,29925,41938,34803,34306,0
-44,69,37,27148,29955,41848,34982,34235,0
28,45,6,27364,29835,41984,34803,34130,0
52,47,-3,27581,29746,41938,34731,34130,0
69,43,34,28133,29657,42029,34910,34060,0
44,32,-30,27911,29597,42029,34839,34130,0
-58,-15,-24,26697,29657,41848,34660,33991,0
-47,43,41,25118,29955,41712,34767,33991,0
-130,-43,78,24995,29895,41938,34910,34095,0
-33,65,5,25742,30015,42166,35127,34130,0
140,30,24,26618,30015,42258,35127,34130,0
271,149,-67,27800,30045,42304,35127,34130,0
183,41,-47,29716,30135,42304,35199,34341,0
-139,-89,16,32666,29925,42212,35272,34341,0
-195,-106,54,34306,29805,42212,35018,34271,0
-92,-128,3,34839,29775,42120,34982,34341,0
-83,-80,9,35565,29686,42120,34910,34200,0
-108,-20,14,36310,29568,42075,34839,34271,0
-103,-42,11,36499,29479,41938,34696,34271,0
-101,-28,23,35935,29421,41938,34731,34200,0
-60,-19,-24,36462,29333,42166,34767,34165,0
-33,-53,4,36538,29274,42120,34731,34200,0
35,13,-3,36538,29158,42120,34696,34060,0
63,30,-12,36386,29216,42212,34624,34271,0
25,34,-14,36235,29187,42212,34731,34130,0
-77,-22,37,36614,29245,42212,34624,34130,0
4,-28,15,37075,29158,42304,34589,34130,0
-16,16,5,36920,29129,42304,34624,34026,0
18,13,-13,36959,29100,42304,34589,34060,0
6,42,8,36920,28984,42349,34660,34026,0
-26,9,16,36690,29013,42258,34624,34026,0
14,26,1,36576,29013,42120,34553,33991,0
62,98,-3,36652,29042,42120,34553,33991,0
-4,33,-30,37152,29013,42029,34553,33991,0
47,25,-23,37543,29100,41893,34518,33921,0
5,-20,-13,37860,29100,41803,34412,33817,0
24,-72,-26,38422,29071,41803,34412,33783,0
-132,-66,0,38341,29245,41757,34412,33645,0
-46,-83,0,38220,29245,41667,34447,33508,0
-5,-83,-70,38140,29187,41667,34589,33542,0
45,50,-6,37860,29129,41712,34553,33439,0
66,87,-28,37701,29071,41667,34482,33474,0
-4,9,-1,37504,28927,41577,34412,33371,0
-56,-65,-15,37662,28840,41577,34412,33405,0
3,-9,22,37860,28697,41757,34376,33474,0
-13,-13,8,38100,28640,42120,34376,33783,0
21,43,26,38503,28583,42534,34482,34060,0
-56,32,36,38666,28583,42953,34624,34060,0
-36,44,32,38666,28498,43424,34696,34271,0
-6,23,5,38544,28527,43329,34839,34341,0
-11,26,9,38544,28470,43424,34839,34412,0
6,-8,11,38382,28498,43424,34910,34696,0
41,8,17,38341,28527,43424,34982,34696,0
10,-17,-5,38180,28470,43472,35055,34839,0
85,33,11,38220,28385,43567,35272,35272,0
-21,11,37,37940,28498,43615,35565,35492,0
3,30,31,37741,28527,43711,35639,35602,0
29,34,-3,37662,28498,43807,35861,35712,0
9,52,7,37426,28470,43807,35935,35712,0
38,1,5,37465,28583,43807,36085,35898,0
90,-90,-4,37426,28583,44096,36920,36386,0
73,-21,-1,37701,28414,44438,37386,36614,0
45,0,-53,38748,28498,44487,37543,36010,0
-192,24,-42,40780,28470,44242,37583,35382,0
-338,-44,-14,42166,28414,44242,37583,34553,0
21,-49,4,42120,28470,44193,37701,34165,0
-51,10,16,42120,28385,44193,37781,34026,0
31,-73,-7,41848,28357,44340,38382,33887,0
256,49,-54,41803,28301,44634,39077,33991,0
190,69,-50,41622,28385,44931,39663,34095,0
6,-182,48,41265,28301,44981,39874,34482,0
-94,-139,149,41221,28329,44981,39960,34910,0
70,-31,26,40912,28385,45031,40088,35676,0
-13,-46,-29,40605,28414,44931,40173,35712,0
104,57,-65,40475,28470,44931,40045,35972,0
44,-8,34,40259,28470,44931,40173,35861,0
34,131,-37,40562,28442,44881,39874,36010,0
77,41,-14,40519,28555,44683,39917,35824,0
-59,-27,-23,40346,28470,44340,39747,35712,0
-111,11,36,40216,28442,44291,39663,35418,0
-85,-64,15,40519,28301,44438,39244,35345,0
-147,-27,3,40605,28357,44096,38748,35055,0
43,46,-55,39747,28357,43567,38260,34696,0
116,218,-69,38422,28385,43188,37860,34553,0
-12,217,0,36386,29187,42906,37386,34518,0
-95,90,61,33817,29568,42953,37075,34412,0
-113,74,-1,32533,29509,42953,36767,34412,0
-48,102,-37,30499,29805,42859,36424,34341,0
46,178,-39,27472,30045,42953,36197,34130,0
-88,-2,24,25142,30165,43000,35935,34165,0
-25,-15,11,23569,30256,42859,35824,34130,0
-16,17,-22,21542,30438,42859,35861,34060,0
47,-23,13,21084,30499,42719,35787,33991,0
-4,-19,17,19592,30591,42812,35749,33852,0
103,52,-50,17118,30622,43046,35861,33956,0
-130,-23,-24,16028,30591,43140,35787,33783,0
51,24,-21,15615,30561,43000,35749,33852,0
-153,-80,-19,15227,30591,42906,35712,33852,0
-60,-32,-14,14801,30591,42953,35602,33714,0
22,-1,-2,14547,30499,42953,35602,33645,0
-52,62,-71,14562,30561,43093,35565,33714,0
-60,98,-1,14297,30715,43046,35602,33576,0
-72,39,-46,13764,30715,42906,35455,33576,0
-105,57,-37,13122,30838,42766,35455,33508,0
-114,40,-11,12596,30900,42673,35492,33611,0
-34,-16,14,12945,30745,42580,35418,33508,0
-11,-10,-8,13398,30745,42488,35455,33439,0
-32,16,-61,14195,30591,42534,35309,33508,0
36,32,-30,14399,30530,42442,35309,33576,0
-5,-46,1,13964,30499,42395,35309,33439,0
2,-13,8,13992,30499,42258,35272,33439,0
19,-33,18,14007,30469,42304,35272,33439,0
13,-17,1,14050,30438,42258,35272,33474,0
-3,-10,8,14429,30438,42304,35345,33405,0
-33,-9,9,14607,30347,42258,35236,33439,0
-14,-8,16,14488,30408,42304,35309,33439,0
-9,48,11,14876,30377,42304,35309,33439,0
27,29,3,15381,30347,42166,35309,33405,0
19,23,18,15553,30469,42304,35382,33474,0
-8,64,16,15789,30469,42120,35418,33439,0
-52,34,11,16385,30684,42029,35492,33405,0
-152,-36,0,17704,30931,41757,35602,33269,0
23,-2,16,19024,30745,41533,35018,33100,0
-209,10,2,21584,30745,41667,34624,32369,0
-117,-29,83,23385,30715,41712,34624,31849,0
-378,-139,112,23546,30561,41667,34589,31720,0
118,-60,7,22999,30408,41848,34839,31785,0
424,85,-6,22053,30469,42075,35898,33405,0
518,132,-50,21125,30715,42442,36805,34341,0
367,19,-25,20335,30745,42580,37308,34271,0
158,7,18,19941,30776,42719,37701,34412,0
120,46,-36,19631,30715,42812,38019,34874,0
120,37,-56,19287,30776,42906,38341,35091,0
-82,-23,-13,19099,30745,42859,38585,35127,0
41,-36,6,19099,30745,43329,38995,35272,0
292,29,-54,19043,30715,43567,39160,35712,0
169,73,-9,18875,30715,43424,39119,35787,0
-104,-66,38,18875,30653,43235,39077,35528,0
-108,-23,45,18838,30653,43093,38748,35345,0
-124,6,48,18875,30653,42906,38585,35309,0
-29,-5,-19,18857,30530,42859,38503,35018,0
70,25,-21,18931,30591,42719,38341,34874,0
-9,31,12,19174,30499,42534,38220,34731,0
-18,45,0,19118,30438,42534,38220,34589,0
-17,62,-8,18838,30530,42488,38100,34624,0
1,7,-14,18783,30469,42488,37860,34482,0
26,75,-41,18727,30469,42349,37701,34412,0
10,110,-20,19005,30469,42349,37622,34412,0
-46,54,38,19155,30469,42304,37701,34341,0
1,7,38,19231,30469,42258,37543,34271,0
135,-37,-33,19306,30438,42212,37426,34271,0
84,6,-33,19401,30438,42304,37465,34271,0
-110,91,17,19497,30377,42304,37386,34130,0
-14,28,4,19458,30347,42166,37308,34165,0
-69,20,-5,20078,30347,42258,37308,34095,0
-59,-14,11,21711,30286,42120,37152,34060,0
-67,19,5,22510,30195,41984,36805,33991,0
-7,-47,-13,22731,30075,42029,36843,33921,0
-30,31,-2,22999,30075,41848,36805,33852,0
-1,24,-22,23684,30045,41848,36690,33887,0
0,13,-2,24058,30105,41803,36690,33783,0
-65,-8,4,24034,30045,41712,36690,33852,0
-39,36,-18,23754,30045,41622,36499,33714,0
-69,38,36,20435,30165,41757,36348,33645,0
84,234,-89,15412,30317,41984,36160,33508,0
275,181,-153,13764,30377,41984,35787,33371,0
124,145,-5,13246,30377,42120,35787,33405,0
-43,70,86,13357,30377,41984,36160,33611,0
27,-20,65,14458,30347,41938,36538,33852,0
7,49,-45,16352,30317,41848,36310,33783,0
82,61,-110,16831,30317,41893,36047,33576,0
-44,236,-65,15678,30165,42029,36047,33508,0
30,276,-33,14311,30226,42212,35749,33439,0
92,162,-29,14326,30165,42395,35565,33474,0
124,39,-4,17306,29865,42212,35455,33542,0
-28,-41,10,22335,29865,42395,35565,33576,0
-106,12,-49,25767,29274,42488,35455,33508,0
115,74,-72,27256,29071,42580,35455,33439,0
9,-1,-20,28442,29013,42580,35455,33508,0
-31,-49,25,29509,29013,42626,35345,33611,0
-183,-121,-95,29509,28927,42534,35418,33611,0
48,19,-2,29421,28955,42580,35345,33542,0
-45,-17,0,29895,29013,42719,35272,33508,0
-13,-165,35,30745,29013,42766,35272,33508,0
30,-9,-13,32010,28984,42673,35272,33542,0
93,-15,21,33033,29042,42673,35309,33576,0
79,-9,21,33645,29129,42766,35455,33576,0
-26,28,16,34412,29362,42859,35565,33748,0
-25,-42,23,35163,29538,43000,35712,33783,0
12,0,15,35602,29686,43000,35787,33817,0
-134,15,-94,33991,29421,42719,35528,33714,0
152,-57,-71,30408,29013,42673,35418,33576,0
122,180,-71,26253,29450,42349,35272,33508,0
92,106,18,26383,29013,42075,35418,33576,0
-515,-87,-50,27994,28984,42212,35528,33576,0
-270,-44,-12,28754,28955,42120,35565,33576,0
108,42,-43,24630,29216,42120,35565,33611,0
260,173,39,22843,29100,41984,35492,33508,0
110,160,53,26253,29129,42120,35602,33611,0
-54,-106,30,29984,29042,42488,35492,33508,0
2,-271,51,34553,29013,42029,35163,33439,0
130,-284,51,37386,29071,42029,35345,33611,0
58,-144,-61,40605,28927,42075,36085,33645,0
73,-131,-54,41044,28840,42120,36882,33887,0
127,-1,-40,41265,28927,42673,37701,34271,0
28,-92,-15,41265,29042,42719,38019,34447,0
-80,92,-7,40868,29042,42906,38180,34589,0
109,64,-39,40824,29042,43093,38422,34839,0
72,-22,-25,40605,29100,43000,38585,34731,0
66,-13,-23,40346,29158,43000,38503,34767,0
44,-10,-29,40346,29129,42906,38422,34696,0
-56,-27,5,40002,29100,42719,38140,34412,0
-51,-63,14,39369,28984,42442,37701,34271,0
4,-14,23,38666,28955,42304,37465,34200,0
-34,18,7,38180,28840,42395,37386,34060,0
-114,18,40,36920,28612,42304,36767,33748,0
-322,111,111,35163,28783,42349,36348,33611,0
-51,270,-28,30347,29450,42304,35712,33371,0
-48,126,0,26618,29686,42304,35565,33303,0
43,-27,26,21208,29865,42120,35455,33303,0
132,-62,-23,17323,29955,41893,35199,33303,0
-8,-10,-25,15043,29955,41848,35055,33236,0
-37,-20,-41,13921,29955,41803,35018,33168,0
-93,-28,-47,12477,30105,41757,34982,33236,0
32,15,-37,11779,30226,41757,34874,33134,0
-23,18,-13,11906,30256,41712,34839,33168,0
20,34,-7,12385,30317,41622,34767,33067,0
-137,37,6,12878,30286,41667,34696,33033,0
-8,54,-2,13849,30226,41757,34624,33033,0
-89,13,-4,14137,30256,41667,34624,32999,0
-42,2,-23,14108,30226,41577,34624,32932,0
-8,-20,11,14151,30195,41533,34553,33067,0
59,-29,-12,14488,30195,41443,34482,32932,0
-25,6,11,15119,30105,41488,34624,32899,0
-29,2,21,15028,30075,41577,35018,32966,0
55,-108,10,15135,30105,41667,35565,33100,0
131,-14,-12,15196,30105,41757,36047,33236,0
41,-18,-15,15181,30045,41757,36348,33168,0
-4,11,12,15181,30105,41848,36386,33202,0
-24,-28,27,15227,30165,41893,36499,33100,0
31,16,26,15273,30105,41893,36310,33168,0
-19,-6,41,15273,30015,41667,36160,33067,0
-75,-37,29,15350,29984,41757,36010,33067,0
-49,17,8,15104,29984,41577,36010,32966,0
-61,-25,-1,15058,29984,41533,35935,32932,0
-24,25,10,15043,29925,41488,35935,33067,0
-42,11,-16,15058,29955,41577,36047,32966,0
-2,-6,-23,15089,29865,41577,35898,32932,0
29,4,-4,15150,29895,41622,36047,32799,0
17,17,25,15242,29955,41577,36160,32899,0
-129,18,83,15288,29925,41577,36235,32899,0
-265,-36,155,15273,29895,41577,36085,32899,0
-275,-24,120,15227,29775,41533,36010,32899,0
-88,-69,41,15089,29865,41443,35935,32866,0
-145,-30,17,15043,29805,41399,35861,32765,0
-113,-101,-19,14982,29805,41309,35787,32799,0
-67,-115,-56,14907,29775,41309,35712,32732,0
-129,-87,-52,14801,29746,41221,35639,32799,0
-222,-42,-82,14726,29746,41221,35492,32666,0
-114,-126,-204,14621,29746,41221,35455,32666,0
25,-24,-171,14577,29746,41132,35418,32566,0
-156,-37,-164,14547,29775,41044,35272,32633,0
-99,-44,-124,14636,29775,41044,35309,32566,0
6,28,-60,14681,29775,41044,35199,32533,0
60,89,-62,14726,29805,41044,35163,32467,0
413,263,15,14846,29775,40955,35199,32533,0
815,172,-57,14967,29775,40955,35127,32435,0
690,126,261,15058,29746,41044,35127,32500,0
590,88,100,15211,29686,40912,35163,32435,0
427,-28,-12,15412,29746,41044,35309,32500,0
47,46,66,15600,29657,41088,35602,32566,0
-151,-12,33,15600,29657,41221,35712,32633,0
-369,-81,70,15459,29657,41132,35492,32566,0
-136,-23,20,15852,29657,41088,35272,32500,0
-205,6,73,16352,29597,40912,35272,32500,0
-284,14,67,16882,29568,41044,35199,32566,0
-412,-106,48,16499,29509,41132,35163,32533,0
-269,-84,21,16060,29568,41000,35127,32467,0
-554,-89,75,15789,29538,41044,35018,32402,0
-227,-64,6,15678,29479,40912,34982,32369,0
-117,-42,-1,15615,29450,40955,34982,32500,0
-228,-48,64,15428,29509,41000,35018,32402,0
-38,-17,28,15304,29538,40955,34910,32369,0
-22,-8,-11,15273,29627,40912,34910,32369,0
-81,-31,-28,15181,29538,40912,34839,32369,0
-26,30,-19,15135,29509,40868,34839,32435,0
-104,49,-13,15119,29479,40955,34874,32336,0
-142,-26,-3,15013,29538,41000,34803,32369,0
27,-39,-107,14967,29509,40955,34624,32369,0
-23,10,-42,14846,29391,40912,34624,32271,0
-71,-54,-13,14786,29509,40868,34553,32336,0
-18,-69,-39,14696,29421,40824,34376,32369,0
-66,-59,-7,14666,29421,40868,34447,32303,0
26,42,5,14607,29450,40912,34376,32303,0
94,-19,-10,14636,29450,40868,34341,32271,0
30,2,29,14607,29450,40780,34341,32271,0
52,35,5,14726,29391,40824,34271,32238,0
113,11,16,14681,29421,40780,34341,32173,0
499,133,78,14021,29568,41044,34200,32205,0
195,88,-29,13849,29568,40955,34095,32173,0
51,9,-22,13863,29686,40955,34095,32140,0
64,91,-28,13679,29746,41088,34095,32140,0
-28,31,17,13510,29686,41088,34095,32140,0
-9,17,-46,13398,29716,40955,34130,32173,0
-151,5,9,13205,29597,40780,34026,32140,0
9,-100,123,13260,29657,40780,34060,32140,0
25,-396,469,13398,29568,40780,33991,32173,0
204,-340,440,13510,29597,40780,33991,32108,0
43,-356,155,13510,29568,40736,33887,32043,0
-3,-786,93,13468,29627,40736,33852,32108,0
-27,-392,0,13260,29597,40736,33817,32140,0
-107,-306,72,13191,29627,40605,33783,32140,0
-97,-56,81,13122,29568,40605,33783,32075,0
-40,40,-20,13095,29627,40605,33783,32108,0
-32,113,-29,13040,29538,40605,33748,32043,0
32,178,-56,13081,29538,40693,33748,32108,0
58,152,-66,13054,29509,40562,33714,32010,0
-85,192,-9,13068,29479,40649,33817,32108,0
-2,169,-19,13150,29509,40605,33817,32043,0
-161,294,24,13315,29421,40780,33887,32043,0
7,237,-13,13594,29391,41000,33956,32140,0
-45,230,-122,14021,29333,40912,34060,32108,0
-5,97,-55,14326,29362,40955,34130,32010,0
19,178,-70,14370,29274,40955,34130,32010,0
78,129,-26,14137,29274,40868,34026,32108,0
-35,-15,-1,14064,29274,40824,33956,32075,0
7,18,-23,14021,29245,40780,33887,32043,0
5,-20,-18,14036,29187,40649,33887,32010,0
21,-20,-8,14209,29333,40605,33783,31913,0
148,-18,-70,14621,29538,40389,33887,32043,0
64,156,-155,13964,29597,40389,33887,32010,0
585,-125,-46,13136,29509,40519,33852,32108,0
-43,186,47,12690,29391,40736,33887,32173,0
122,210,35,13150,29333,40912,33921,32271,0
-23,191,15,12959,29100,41132,34026,32303,0
-35,85,95,18147,28898,41399,34200,32500,0
7,-35,30,23917,28754,41577,34271,32500,0
-117,-59,30,27148,28470,41712,34341,32435,0
-18,-75,12,29925,28357,41667,34341,32500,0
-143,-117,11,32271,28555,41803,34341,32599,0
-77,-73,-24,35199,28812,41667,34341,32533,0
153,131,-42,39327,28812,41577,34589,32732,0
37,47,19,41399,29042,41893,36085,33236,0
39,67,-27,42212,29071,41984,36462,33611,0
5,16,-6,42120,29042,41893,36576,33439,0
21,17,-15,41622,28927,41938,36652,33202,0
-51,-28,3,41044,28840,41803,36462,33168,0
-73,-57,1,40649,28697,41577,36197,33100,0
-81,-96,16,40002,28697,41399,36085,32999,0
41,-39,25,39874,28527,41399,36010,32899,0
54,-34,-1,40002,28583,41443,36160,32999,0
-71,-57,22,39960,28640,41533,36348,33033,0
-1,-7,2,40002,28640,41488,36310,33033,0
-29,-1,8,39663,28640,41488,36235,32932,0
6,-19,20,39369,28527,41443,36085,32932,0
33,-13,4,39285,28612,41309,36010,32899,0
20,-3,-2,39077,28470,41399,36010,33033,0
41,50,-16,39160,28498,41577,36272,33236,0
60,61,-20,39369,28583,41984,36462,33439,0
46,91,-24,40045,28783,41938,36652,33611,0
98,-34,-5,40780,28840,41712,37075,34026,0
-127,-110,31,41176,28898,41667,37386,34306,0
-139,-48,57,41000,28955,41399,37386,34412,0
-42,-20,25,41221,28898,41265,37386,34589,0
-124,-13,30,40912,28812,41309,37386,34482,0
-61,23,18,40955,28783,41176,37308,34271,0
-52,-68,5,40562,28840,41132,37114,34271,0
-64,-11,25,40346,28726,40868,37114,34306,0
28,65,23,39536,28869,40868,36882,34341,0
-19,13,-4,39036,29071,40868,37075,34589,0
-71,-3,35,38585,29042,40605,36998,34482,0
-92,39,4,37860,28955,40649,36920,34482,0
-120,38,38,37583,28927,40562,36767,34412,0
-17,5,23,37543,28955,40432,36767,34447,0
83,22,-23,37701,28869,40346,36728,34200,0
128,33,-9,38871,28812,40389,36614,34060,0
13,-61,1,39874,28754,40868,36690,33887,0
18,11,-32,40173,28697,40955,36614,33748,0
7,-76,1,41265,28612,41622,36614,33783,0
41,-28,8,41265,28527,41488,36538,33508,0
63,9,-13,41399,28527,41354,36462,33474,0
27,-5,-12,41265,28470,41265,36462,33337,0
57,3,-25,40955,28385,41044,36310,33371,0
-26,92,-43,40173,28329,40824,35749,33168,0
30,-189,-73,39244,28161,40259,35127,32899,0
169,103,-99,38666,28133,40346,34910,32533,0
81,-2,-10,38585,28022,40216,34767,32140,0
122,52,12,38666,27994,40389,34982,31849,0
196,-22,17,38544,27911,40955,35455,31946,0
273,-145,5,38301,27939,41399,36197,33134,0
218,167,-13,38180,28022,42029,37152,34341,0
96,-70,-57,38382,28022,41938,37152,34306,0
-34,96,-61,38180,28301,41757,36920,34271,0
-288,-219,-67,38059,28357,41399,36160,33887,0
-292,-89,-98,37701,28301,41221,35418,33303,0
-229,-225,128,36767,28357,41221,34589,32666,0
-94,81,-45,35309,28301,41221,34412,32467,0
-217,-60,79,33887,28189,41309,34341,32402,0
-194,-30,30,33679,28161,41309,34412,32402,0
-164,-38,-139,33611,28442,41443,34412,32369,0
-23,-13,-30,32765,28498,41488,34482,32500,0
138,227,-50,32205,29391,41488,34839,32435,0
249,-65,151,32108,29187,41221,34696,32566,0
-92,42,95,32799,28927,41309,34874,32799,0
-401,-299,168,34660,28697,41132,35639,33956,0
55,-166,34,35272,28612,41044,36843,34553,0
63,84,17,35824,28927,41803,37426,34235,0
-346,11,-26,38301,28955,42166,37386,33611,0
39,172,18,39621,29042,41667,37036,33202,0
11,58,-13,40216,28955,41757,37114,33134,0
2,22,-72,40605,28927,41533,37230,32832,0
-50,84,5,41577,28927,41443,37075,32699,0
-185,-88,28,41848,28869,41132,36920,32566,0
84,21,5,41309,28783,40912,36614,32238,0
77,19,40,41132,28726,40955,36690,32271,0
52,34,9,41176,28640,40955,36614,32140,0
47,12,28,40868,28726,40955,36614,32173,0
48,-92,19,40346,28527,40912,36462,32140,0
-1,-116,-19,39327,28245,40693,36085,31978,0
-3,-7,-16,38830,28189,40519,35972,31785,0
58,2,14,38748,28077,40389,36010,31849,0
-80,-23,31,38463,28049,40432,35861,31817,0
69,18,-21,39077,28133,40693,35861,31849,0
-192,12,66,39578,28301,40693,35898,31913,0
1,-59,39,39832,28414,40259,35639,31913,0
37,-17,-6,40173,28470,40173,35712,31946,0
71,39,16,40216,28470,40131,35712,31881,0
-28,74,-5,39705,28161,40389,35676,31913,0
70,16,-100,38625,28077,40605,35272,31881,0
167,486,-63,35163,28754,40912,34589,32010,0
0,279,75,29865,29158,41000,34165,31978,0
12,229,-46,25540,29274,40955,34130,31978,0
161,105,-89,21839,29421,40693,33991,31720,0
40,-50,-29,18254,29391,40605,33921,31752,0
35,-37,-35,14861,29362,40432,33817,31656,0
-220,-7,-21,13679,29274,40605,33714,31720,0
-107,4,-51,13013,29274,40389,33611,31529,0
-64,-51,-40,12690,29686,40131,33611,31529,0
18,-18,-21,12398,29835,39832,33508,31497,0
-10,9,-18,13081,30015,39578,33576,31339,0
16,13,7,14195,30105,39411,33474,31276,0
-9,4,-28,14726,30015,39411,33337,31402,0
-3,27,-20,15028,29895,39327,33303,31339,0
-10,-34,-4,15211,29716,39369,33202,31213,0
20,6,8,15789,29538,39369,33168,31276,0
-20,-4,32,16615,29538,39244,33067,31276,0
-30,-30,31,17547,29509,39244,33202,31150,0
5,-40,6,17739,29333,39244,33067,31213,0
-14,-33,-9,17862,29391,39244,33202,31213,0
-12,-3,23,17845,29421,39077,33100,31087,0
7,26,17,17565,29450,39077,33168,31087,0
-11,-61,28,17357,29391,38995,33134,31087,0
-16,-51,17,17169,29391,39036,33067,31087,0
9,-59,17,17016,29391,38953,33033,31150,0
61,-39,4,17186,29304,38912,33033,30994,0
-6,-1,41,18075,29333,38953,33067,31025,0
220,64,-1,18783,29274,38995,33033,31025,0
75,-11,-46,18857,29216,38995,33033,30900,0
24,-28,-28,18057,29158,38830,32966,30931,0
10,-7,-18,17016,29158,38830,32932,30838,0
-31,-17,22,16748,29129,38912,32966,30838,0
-51,-7,5,16898,29071,38707,32932,30838,0
7,-15,13,17443,29216,38748,32899,30869,0
-24,13,6,17669,29216,38748,32899,30807,0
-3,-23,21,17634,29216,38830,32832,30838,0
68,-149,38,17898,29129,38748,32799,30838,0
-20,41,5,18200,29158,38585,32832,30838,0
15,-150,49,18727,29129,38625,32799,30900,0
55,55,-29,18272,29071,38707,32799,30869,0
-37,67,-18,16549,29071,38953,32765,30838,0
65,-24,-6,16254,29071,38953,32832,30745,0
-172,71,-92,15397,28955,38748,32765,30807,0
-91,12,13,15852,28927,38666,32765,30807,0
50,-10,22,16157,28927,38666,32666,30776,0
-12,-43,18,16483,28984,38707,32732,30776,0
-8,-40,83,16715,29042,38707,32765,30745,0
-79,123,-23,16336,29013,38707,32699,30715,0
-102,59,11,15916,28898,38789,32699,30745,0
-206,10,13,15678,29071,38666,32666,30653,0
12,-11,82,15428,29129,38666,32765,30745,0
-23,-22,84,15537,29071,38707,32633,30745,0
137,-60,97,16076,29071,38585,32699,30653,0
73,4,-6,15710,29071,38666,32699,30653,0
71,-7,-28,15490,28927,38666,32666,30653,0
-6,-27,-40,15211,28869,38707,32633,30622,0
-16,-92,-5,14982,28898,38830,32633,30653,0
-138,-15,49,14607,29216,38830,32633,30622,0
-8,0,50,14429,29333,38830,32633,30715,0
-136,56,59,14666,29304,38871,32633,30653,0
82,31,-20,15726,29158,38707,32566,30715,0
207,-51,-74,18308,29100,38585,32500,30591,0
-27,-41,45,19535,29013,38503,32500,30622,0
-40,-2,89,19863,29071,38503,32566,30622,0
60,-31,24,19689,29129,38382,32566,30591,0
-4,29,53,19497,29100,38382,32500,30622,0
-12,3,50,19592,29042,38341,32533,30591,0
30,4,-46,19824,29187,38422,32633,30653,0
-16,43,-25,18453,29216,38503,32566,30591,0
241,-120,-26,15058,29158,38748,32566,30591,0
178,-78,3,14108,29216,38871,32633,30622,0
136,50,18,14488,29362,38871,32832,30591,0
-53,22,42,14137,29245,38789,32899,30776,0
-48,81,23,14224,29100,38995,33033,30745,0
181,85,-45,17443,29071,39244,33168,30900,0
10,79,18,20615,28898,39369,33236,30962,0
-151,-25,-7,23225,28812,39452,33202,30900,0
-71,-52,-33,25515,28583,39411,33202,30962,0
-34,-69,-50,27310,28470,39411,33202,30994,0
-193,-51,-49,28783,28357,39705,33303,31119,0
-250,17,-38,30900,28217,39832,33405,31181,0
-109,-73,-78,32966,28301,40131,33474,31307,0
-59,-91,0,37269,28217,40173,33576,31244,0
-9,-236,52,41132,27911,40088,33508,31339,0
53,-165,49,40736,27856,40389,34767,31370,0
147,-87,-46,40736,27939,40824,35712,31785,0
143,1,-76,40780,27966,41132,36462,32271,0
134,33,-26,40045,27939,41309,36767,32832,0
10,4,85,39917,27911,41443,36843,32832,0
76,-110,54,39621,27800,41667,37075,33067,0
48,-48,87,39494,27691,41712,37386,32932,0
-143,-82,58,39244,27554,41848,37583,33033,0
-437,-201,66,39077,27472,41622,37386,32699,0
-146,124,73,38995,27418,41577,37386,32732,0
53,102,10,38830,27418,41488,37152,32633,0
65,121,31,38666,27337,41577,37269,32533,0
21,-14,23,38707,27364,41443,37114,32533,0
48,177,-49,38748,27283,41577,37114,32533,0
66,135,-4,38341,27283,41488,37036,32500,0
-10,10,-8,38220,27256,41354,36920,32467,0
-118,-40,16,38100,27256,41265,36728,32500,0
-91,349,-165,37114,27391,41132,36085,32140,0
346,341,-124,36614,27499,40780,35824,32075,0
-51,355,44,35749,27800,40693,35528,32108,0
-31,288,-54,35055,28357,40605,35236,32140,0
-109,74,-35,32899,28927,40302,34482,31849,0
-109,-13,142,26435,29450,40259,33991,31593,0
-111,-47,36,20157,29479,39874,33748,31497,0
-29,-17,-21,15397,29509,39747,33679,31402,0
-177,-53,-38,13371,29479,39705,33508,31370,0
-247,-75,-59,12743,29450,39621,33474,31244,0
-204,-137,-53,12438,29716,39494,33371,31150,0
-75,-36,-24,12932,29716,39494,33303,31150,0
-16,19,-22,13122,29746,39327,33269,30994,0
-27,-24,-18,14166,29895,39160,33202,31056,0
100,10,-23,14547,29805,39160,33067,30962,0
136,-79,-12,14846,29538,39327,33303,30900,0
39,-147,4,15028,29538,39705,34412,30931,0
124,-94,26,15150,29538,40045,35382,31720,0
-73,-123,34,15165,29509,40216,35712,32010,0
-58,-32,-3,15074,29421,40389,35898,31978,0
-74,31,27,14876,29333,40519,35676,31913,0
-102,-9,3,14681,29362,40389,35712,31881,0
-187,-21,21,14444,29216,40173,35418,31720,0
-37,78,29,14311,29304,40088,35236,31720,0
45,66,-19,14151,29274,40088,35199,31752,0
72,24,2,13921,29274,40045,35163,31752,0
118,146,-53,13949,29216,40519,35565,32533,0
-67,-201,65,13964,29274,40346,35492,32699,0
-82,-144,41,14268,29274,40216,35565,32467,0
87,-177,-45,14473,29274,40045,35528,32108,0
-27,-59,14,14429,29274,40088,35492,32108,0
-26,55,36,14429,29216,40045,35309,31978,0
-43,156,-40,14238,29304,40045,35272,31978,0
-166,235,-24,14137,29187,39917,35055,31849,0
-17,138,-7,14488,29187,39832,34946,31849,0
-80,6,-4,14741,29216,39874,34874,31881,0
-83,-5,-7,14967,29100,39747,34839,31785,0
55,14,-2,15584,29158,39663,34839,31656,0
48,9,-30,15916,29042,39621,34696,31529,0
18,41,-34,15350,28927,39494,34696,31465,0
-71,-2,34,15013,28927,39244,34553,31529,0
-50,-22,62,15366,29071,39077,34412,31497,0
39,42,-38,16173,29158,39036,34271,31465,0
57,105,-27,16549,29100,39036,34341,31465,0
66,48,-7,16483,28869,39244,34165,31402,0
39,57,13,16949,28927,39244,34341,31339,0
-1,41,8,16748,28869,39119,34200,31339,0
126,28,-33,15789,28927,38912,34095,31150,0
225,221,-93,14831,29071,38995,33887,31025,0
113,201,47,13622,29304,38748,33439,30962,0
472,67,-117,12086,29509,38707,33439,30900,0
75,132,-18,12176,29391,38707,33439,30838,0
122,-1,-23,12163,29304,38585,33405,30869,0
49,-83,147,16060,28869,38912,33439,31025,0
-14,-33,31,19843,28754,39202,33542,31150,0
-93,-36,-33,21648,28583,39327,33508,31150,0
-30,-5,-29,23824,28470,39369,33474,31119,0
14,-37,-33,26357,28385,39578,33508,31087,0
53,-45,-20,28414,28329,39536,33474,31056,0
-55,-70,-9,30195,28161,39494,33542,31087,0
-48,-118,-1,32205,28133,39663,33371,31056,0
-121,-159,-14,34130,28077,39578,33337,31056,0
-175,-136,-16,35861,28105,39705,33337,30994,0
-148,-21,25,38180,27994,39874,33508,31087,0
-30,-138,12,39160,28022,40088,34200,31213,0
49,-87,61,39874,28133,40432,34839,31561,0
82,7,29,40173,28133,40389,35163,31913,0
35,-20,10,40088,28189,40475,35272,31881,0
-8,12,-9,39874,28133,40346,35091,31817,0
-44,-25,-3,39663,28105,40045,34696,31656,0
46,53,-28,39077,27966,39917,34624,31561,0
15,-33,-37,38912,27745,39917,34482,31465,0
38,-15,28,38995,27745,39790,34482,31370,0
73,-34,-10,39160,27800,39790,34482,31593,0
26,-74,-2,39160,27718,39874,34553,31529,0
1,-86,12,39411,27691,39832,34518,31402,0
28,-25,30,39244,27691,39790,34447,31497,0
145,-126,47,39536,27718,40002,34910,31656,0
-6,-11,29,40088,27828,40131,35418,31849,0
63,-123,18,40173,27773,40302,35602,31913,0
-90,-95,-4,40045,27773,40259,35565,32043,0
27,17,2,39917,27745,40216,35565,31913,0
7,-2,15,39705,27745,40088,35528,31978,0
0,0,17,39621,27609,40088,35492,31881,0
-52,22,3,39160,27691,40002,35309,31785,0
-23,44,12,38871,27581,40002,35309,31849,0
-38,72,12,38830,27609,39874,35272,31849,0
-15,64,9,38871,27636,39917,35309,31720,0
-13,-41,20,38789,27472,39874,35127,31785,0
65,35,-39,38707,27581,39874,35199,31785,0
90,1,-5,38707,27499,39832,35382,31913,0
-57,25,22,38830,27636,39917,35382,31978,0
-49,121,-28,38503,27581,39832,35199,31881,0
-5,-23,-90,37075,27800,39832,34874,31497,0
9,194,27,35935,27994,39790,34482,31465,0
-11,22,-57,35163,27994,39663,34412,31465,0
-85,34,-21,34624,28357,39705,34271,31370,0
69,121,-11,32533,28812,39663,33921,31402,0
143,-145,165,27445,29158,39621,33748,31339,0
-267,-98,83,18801,29071,39327,33714,31276,0
-293,-39,0,13524,29187,39244,33611,31181,0
-146,-27,-56,12215,29245,39244,33439,31087,0
-70,121,-59,13735,29216,39244,33337,30994,0
-70,35,25,15028,29274,39160,33303,30962,0
-87,-10,-41,15273,29042,39119,33269,30931,0
-93,69,-61,15350,28955,39160,33236,30838,0
-38,86,-1,15459,28812,39077,33168,30807,0
67,-11,-19,15150,28812,38871,33202,30838,0
-63,37,-45,15119,28898,38953,33202,30900,0
-10,92,-35,15319,28869,38912,33337,30807,0
30,29,-17,15553,28783,38995,33371,30838,0
28,31,-14,15837,28812,39160,33611,30931,0
103,74,-60,16028,28754,39119,33611,30869,0
59,3,-66,16238,28812,39160,33783,30900,0
36,-73,-57,16499,28612,39202,33645,30838,0
100,-43,-34,15319,28697,39036,33337,30900,0
119,0,31,13849,29071,38912,33269,30838,0
47,55,-16,14816,29100,38830,33202,30745,0
-26,43,39,14741,29071,38748,33202,30745,0
87,35,-4,14666,29187,38666,33168,30715,0
179,17,63,15150,29129,38666,33303,30622,0
47,-73,-8,15196,28898,38666,33405,30715,0
102,-60,21,15273,28869,38830,33714,30684,0
54,28,7,15428,28898,39244,34165,30994,0
136,41,-57,15490,28927,39494,34731,31150,0
67,43,-22,15397,28927,39705,34839,31465,0
-16,-114,-10,15366,28869,39536,34839,31339,0
4,-30,0,15350,28898,39452,34767,31244,0
11,6,-13,15335,28927,39369,34696,31056,0
36,-48,-20,15304,28783,39285,34660,31087,0
50,-39,-34,15475,28754,39244,34553,30994,0
-18,-4,10,15412,28754,39327,34447,31087,0
-29,-7,24,15397,28726,39202,34447,30962,0
18,63,42,15381,28697,39036,34412,31119,0
32,57,-5,15211,28726,39244,34447,31339,0
-4,54,0,14967,28783,39411,34518,31529,0
-77,-21,21,14696,28812,39494,34553,31465,0
-209,-58,77,14562,28812,39536,34553,31529,0
-40,-37,15,14488,28754,39536,34482,31593,0
-99,-11,38,14370,28783,39494,34589,31593,0
-145,12,8,14370,28754,39452,34482,31465,0
-86,71,20,14636,28754,39327,34412,31402,0
-8,197,-14,15150,28697,39036,34235,31276,0
25,35,31,15663,28697,38995,34060,31213,0
5,-28,12,16549,28697,38871,34060,31150,0
-38,-2,22,17809,28669,38748,33991,31213,0
-27,-11,-3,19061,28612,38625,33991,31181,0
-10,27,-16,19249,28583,38666,33991,31119,0
-13,18,27,19005,28470,38625,33887,31150,0
36,-47,3,17426,28470,38544,33921,31119,0
14,-61,-5,15428,28583,38666,33991,31119,0
4,19,-1,14861,28640,38666,33956,31119,0
4,-13,-21,14503,28612,38666,33852,31119,0
-3,111,-51,14355,28612,38789,33783,31025,0
-13,57,56,14209,28640,38707,33887,31025,0
37,77,-19,14982,28669,38666,33852,31025,0
-15,226,-31,16157,28527,38544,33817,31150,0
-14,16,40,18417,28612,38625,33852,31087,0
4,15,-14,19999,28783,38422,33852,31087,0
-91,-38,-13,20435,28669,38301,33783,31087,0
-16,5,-10,20395,28669,38220,33748,31025,0
-35,25,41,20236,28470,38301,33714,30994,0
-35,-9,15,20981,28470,38341,33783,31056,0
-122,5,19,22532,28498,38100,33748,30869,0
91,6,-28,22865,28301,37860,33679,30776,0
81,97,-13,21375,28301,37860,33611,30838,0
-94,43,7,20981,28301,37701,33508,30807,0
37,60,8,21458,28301,37701,33576,30745,0
106,-14,44,22709,28385,37465,33405,30561,0
-53,-70,30,23316,28357,37191,33371,30408,0
198,-92,25,23225,28245,37036,33303,30377,0
153,-7,-28,23248,28245,37114,33269,30286,0
69,-25,-13,23135,28217,37036,33303,30377,0
87,2,-13,23022,28189,37114,33303,30317,0
59,9,17,23294,28245,37114,33337,30347,0
49,-77,57,23754,28245,37191,33887,30469,0
204,-185,48,24247,28385,37781,34624,30653,0
-173,-202,58,24510,28527,37781,34731,30715,0
-79,-118,-12,24727,28640,37622,34553,30591,0
-69,-7,-20,25216,28754,37347,34412,30408,0
103,18,-7,25142,28640,37114,34271,30317,0
-12,-51,34,24897,28527,37114,34165,30226,0
81,-19,22,24727,28498,37114,34165,30256,0
13,46,-13,24630,28414,37075,34165,30347,0
47,52,-2,24534,28470,37114,34200,30499,0
8,19,-11,24414,28470,37152,34165,30715,0
19,-14,-6,24223,28470,37114,34200,30838,0
-21,-8,-3,24152,28414,37152,34200,30807,0
-13,-18,-18,24081,28357,37075,34130,30745,0
-153,71,-45,23847,28470,37114,34130,30653,0
-52,133,-126,23940,28697,37036,33921,30622,0
-198,268,-103,23894,28955,36998,33714,30591,0
-232,-70,50,23615,29100,36959,33611,30561,0
-213,-25,32,23522,29304,37036,33508,30591,0
-255,73,71,22798,29158,37230,33405,30591,0
-313,177,71,21839,28984,37347,33303,30622,0
-4,-40,8,21754,29042,37152,33168,30715,0
-2,31,47,21796,29129,37075,33033,30715,0
-121,8,46,21733,29158,37114,32899,30591,0
31,-8,75,22843,29216,37075,32999,30715,0
-81,37,10,22444,29216,36959,32966,30715,0
-42,18,37,20315,29187,37114,32966,30653,0
-67,-64,-17,14982,29304,37347,32966,30653,0
-13,160,7,12060,29333,37622,32966,30745,0
160,2,28,12060,29333,37622,32899,30715,0
4,-12,29,12124,29216,37583,32932,30715,0
-17,-79,50,16385,28869,37860,32966,30776,0
16,26,33,21395,28697,38100,33033,30776,0
-134,-86,-14,24630,28640,38341,33033,30776,0
-236,-152,-68,26279,28385,38544,32966,30715,0
-418,-245,-119,28049,27939,38789,32999,30684,0
164,-216,-53,30838,27581,39244,33474,30962,0
452,-264,-56,32633,27856,39832,34731,31913,0
46,-128,-4,32666,27718,39832,34910,32238,0
17,-95,24,32402,27636,39917,34874,32369,0
39,17,-87,32799,27581,39874,34803,32010,0
2,81,-59,33508,27472,39663,34553,31849,0
20,101,-10,33611,27391,39536,34482,31593,0
-151,-76,31,33508,27364,39452,34412,31465,0
-40,10,12,32899,27256,39160,34271,31150,0
-6,-30,31,32043,27364,38871,34060,30994,0
-75,48,-4,31087,27718,38666,33991,30931,0
14,11,17,30469,27828,38463,33783,30838,0
12,52,-13,29805,27856,38382,33852,30715,0
110,-40,-5,30195,27856,38301,33714,30745,0
-32,70,0,30075,27911,38422,33679,30745,0
54,66,-28,30591,28049,38422,33474,30653,0
203,58,-11,30622,27939,38707,33439,30962,0
114,59,17,30408,27718,39077,33748,31244,0
63,-136,40,30931,27636,39119,33887,31497,0
57,-105,51,31181,27527,39160,33887,31465,0
71,-160,8,31276,27256,39119,33956,31593,0
-11,33,-11,31688,27041,39202,34165,31881,0
44,15,-17,32140,27041,39244,34341,31849,0
21,-21,11,32966,26829,39244,34553,31849,0
74,12,-56,34341,26723,39411,34696,31720,0
-12,-2,-20,35898,26749,39874,34982,31688,0
-59,-137,-2,36843,26723,40216,35163,31497,0
112,67,30,36920,26592,40519,35528,31593,0
381,479,-29,36197,26618,40346,35787,31978,0
-85,36,108,35418,26749,40519,35602,32566,0
111,-164,91,34165,27122,40432,35676,32899,0
-52,-110,24,34026,27148,40605,35749,32899,0
-53,188,-61,34130,27015,40475,35824,32966,0
-242,-216,38,34271,26882,40173,35602,32500,0
-230,-290,71,34624,26749,39874,35199,32043,0
-124,-195,33,34095,26776,39285,34982,31561,0
-88,32,29,32966,26935,38995,34767,31434,0
4,93,-29,31946,27800,38830,34412,31370,0
289,325,-108,31213,28612,38666,34165,31087,0
147,223,-19,29274,29042,38748,33887,31119,0
88,137,-39,27718,29274,38666,33783,31087,0
-46,-21,27,27581,29042,38585,33748,30994,0
-54,-24,16,27068,29158,38666,33714,30900,0
-46,32,-17,26776,29158,38666,33783,30994,0
-25,15,-56,26935,29158,38666,33679,30962,0
-70,80,-22,26279,29013,38666,33576,30900,0
-105,49,-14,25266,29042,38707,33576,30900,0
96,25,-38,21733,29158,38666,33474,30900,0
114,209,-9,18635,29187,38871,33405,30838,0
173,174,-30,16028,29304,39077,33337,30838,0
112,276,-59,14195,29216,39327,33337,30869,0
27,28,-17,13163,29216,39494,33303,30807,0
-77,29,-13,12596,29071,39536,33236,30745,0
-22,39,-15,12163,29100,39663,33236,30745,0
12,17,16,11957,29071,39832,33303,30776,0
-96,32,18,12009,29013,39705,33269,30776,0
-55,68,23,12009,29013,39790,33371,30838,0
-44,43,50,11970,28955,39832,33303,30745,0
-45,59,23,12060,28984,39960,33337,30900,0
34,22,9,12228,29013,40002,33439,30900,0
-47,34,18,12451,28927,40045,33474,31056,0
-100,32,-3,12703,29013,40216,33576,31119,0
-82,29,23,12716,28955,40259,33611,31150,0
-24,-6,10,12623,28927,40173,33542,31087,0
63,77,-32,12398,28840,39960,33439,30900,0
176,83,-86,12490,28726,39536,33236,30776,0
29,131,-74,12359,28697,39285,33202,30715,0
69,110,-49,12703,28812,39369,33100,30684,0
53,15,-39,12999,29304,38995,33033,30591,0
-70,10,-32,13510,29391,39036,32966,30499,0
-174,40,-38,13863,29274,38995,32899,30499,0
105,1,-13,14503,29274,38995,32832,30469,0
48,-26,-36,14151,29216,38830,32799,30408,0
66,-48,-50,14079,29391,38544,32799,30347,0
47,-50,8,14326,29538,38422,32765,30377,0
13,-18,-9,14907,29538,38422,32765,30347,0
124,-17,-33,15074,29187,38544,32765,30347,0
25,2,-6,14846,28984,38341,32699,30317,0
75,-38,3,14922,28955,38341,32633,30256,0
63,7,-11,15119,28840,38140,32633,30226,0
-66,4,-15,15150,28812,37900,32533,30226,0
-145,40,1,15058,28840,37781,32566,30226,0
-173,54,-10,15397,28840,37622,32566,30165,0
-51,-41,13,16303,28869,37543,32533,30165,0
57,3,39,17084,28812,37465,32500,30165,0
50,-61,74,17357,28812,37465,32533,30105,0
33,-42,27,18526,28783,37465,32566,30226,0
21,-32,55,19005,28669,37386,32533,30075,0
-3,-15,77,19999,28754,37269,32500,30165,0
57,28,40,20961,28812,37347,32566,30165,0
11,-14,21,21627,28754,37269,32566,30105,0
10,-38,28,22401,28754,37230,32633,30015,0
143,-38,-4,23271,28726,37269,32699,30165,0
115,-56,-23,23940,28583,37269,32799,30135,0
70,34,-22,24034,28527,37230,32799,30135,0
99,21,-47,24462,28555,37114,32866,30105,0
50,-7,-25,24366,28498,36920,32799,30105,0
-225,-56,64,23615,28385,36920,32699,30105,0
-121,-86,42,23684,28470,36805,32633,30045,0
-60,-52,17,23661,28612,36767,32633,30105,0
37,-47,-12,23661,28583,36767,32533,30165,0
88,-21,-10,23894,28357,36805,32500,30105,0
259,3,-18,24318,28385,36728,32533,30015,0
303,-64,10,24247,28301,36767,32500,30015,0
193,-27,-20,23964,28273,36652,32500,30015,0
185,68,-27,23870,28189,36843,32500,29925,0
113,-14,-14,23894,28161,36805,32500,29925,0
28,34,-33,23661,28161,36959,32500,29925,0
-150,95,-46,22999,28105,36728,32435,29865,0
-134,25,-25,22576,28245,36538,32369,29865,0
-211,1,9,22401,28442,36576,32303,29925,0
-220,102,-6,21796,28697,36614,32173,29895,0
-152,-21,21,21458,28697,36614,32140,29805,0
-100,-6,42,21458,28726,36576,32043,29925,0
7,-52,35,21208,28697,36767,32108,29865,0
-4,-9,21,21043,28612,36805,32043,29895,0
-17,43,5,21043,28583,36843,32043,29865,0
-9,60,11,20595,28640,36998,32108,29925,0
33,199,12,19843,28498,37347,32075,29895,0
107,160,-33,18147,28583,37701,32075,29805,0
41,21,-24,16483,28640,37820,32108,29895,0
73,41,-37,15647,28640,37940,32043,29865,0
32,84,-26,15104,28583,37980,32010,29865,0
-40,12,15,14666,28612,37860,32075,29775,0
34,31,-32,14108,28583,37940,32075,29865,0
141,-42,28,13454,28583,37741,32108,29895,0
75,-13,6,13095,28640,37701,32140,29895,0
17,51,23,12972,28697,37662,32140,29805,0
32,13,-33,12716,28612,37701,32140,29865,0
52,-12,-35,12424,28583,37820,32075,29865,0
8,-83,-48,13412,28583,38100,32140,29805,0
55,-70,-8,14503,28527,38100,32043,29805,0
20,2,-12,15150,28385,38059,32043,29775,0
-10,36,-33,14861,28357,38220,32043,29805,0
-31,65,-34,13735,28385,38140,32043,29716,0
-18,-9,9,12346,28555,37940,32108,29805,0
-4,59,-2,11919,28612,37781,32043,29805,0
-9,1,23,11665,28583,37860,32108,29895,0
20,35,33,11515,28612,37900,32108,29835,0
83,17,24,11830,28640,37741,32108,29925,0
158,29,-3,12293,28812,37820,32467,30561,0
223,-80,51,14982,28955,38059,32799,31307,0
8,-83,79,17704,28955,38140,33303,31213,0
46,-231,81,19306,28955,38260,33645,31213,0
-19,-276,102,22270,28984,38463,33991,31213,0
-6,-8,22,25019,28898,38544,34130,31119,0
-164,-35,-46,26723,28697,38503,34026,30776,0
-134,-21,15,27609,28697,38180,33887,30408,0
-77,-142,58,27856,28697,37980,33783,30015,0
-79,-112,31,28245,28726,37662,33645,29627,0
-41,-236,16,27663,28726,37426,33714,29362,0
-37,32,4,26829,28726,37191,33576,29042,0
19,-88,12,26566,28697,36998,33474,28840,0
343,60,15,26022,28470,37269,33991,29895,0
391,-84,65,25894,28669,38220,34376,31339,0
257,-35,32,25869,28869,38503,34553,32108,0
139,-11,70,25945,28898,38912,34839,32533,0
185,-8,41,26202,29071,39160,34910,32832,0
-172,-379,79,27148,29071,39160,34839,32732,0
-72,-118,59,28161,28840,39036,34696,32799,0
-152,-107,-16,27418,28697,38995,34624,32633,0
-147,179,16,26644,28669,38789,34412,32467,0
-129,-62,22,26099,28527,38585,34341,32271,0
-168,93,-32,25894,28470,38544,34235,32238,0
-4,19,-25,26305,28442,38544,34165,32173,0
67,-42,31,28022,28640,38382,34200,31785,0
94,-12,50,27663,28527,38260,34130,31752,0
-40,52,27,27202,28527,38180,34026,31624,0
194,255,-62,26670,28527,38059,33991,31624,0
156,223,-43,26357,28470,38100,33887,31497,0
-168,88,12,26357,28470,38140,33783,31497,0
28,11,6,26228,28498,38059,33748,31402,0
-42,-50,29,26202,28414,37980,33852,31339,0
-78,-3,24,26618,28357,38019,33748,31370,0
-55,34,23,26513,28357,37940,33783,31402,0
-6,60,-11,26461,28357,37860,33645,31465,0
-2,-2,-12,26357,28301,37940,33748,31465,0
-12,21,-5,26409,28385,37860,33783,31339,0
-57,21,8,26305,28357,37900,33714,31465,0
6,-7,-2,26566,28357,37860,33645,31339,0
-23,0,-5,26539,28329,37860,33714,31402,0
18,15,-12,26331,28301,37860,33645,31370,0
-37,8,23,26305,28301,37860,33748,31339,0
-14,21,20,26435,28329,37860,33714,31434,0
48,53,-23,26305,28414,37900,33852,31529,0
60,24,-32,26228,28357,37940,33714,31465,0
-26,374,-76,25216,28640,38180,33576,31402,0
59,-5,14,24199,28812,38180,33645,31339,0
38,-56,18,23615,28840,38260,33576,31244,0
54,-19,4,23661,28669,38260,33508,31244,0
26,-18,3,23339,28640,38220,33439,31213,0
21,49,12,23294,28612,38260,33371,31213,0
56,14,13,23316,28555,38180,33371,31181,0
-15,1,-4,23090,28555,38180,33371,31119,0
-2,4,-10,23090,28555,38100,33405,31025,0
60,59,-50,23522,28414,38100,33337,30994,0
83,-14,17,23499,28414,38100,33371,31056,0
21,47,6,23385,28357,38059,33371,30994,0
40,39,-4,23294,28301,38019,33337,30869,0
44,12,3,23225,28245,38059,33337,30838,0
-10,-26,19,22754,28301,37940,33303,30869,0
-249,-30,17,22665,28357,37543,33236,30838,0
-59,166,-62,22335,28301,37701,33303,30838,0
6,-36,-9,22183,28301,37980,33269,30776,0
-25,-40,14,21648,28301,37860,33236,30653,0
-100,-4,3,21146,28385,37701,33134,30776,0
41,13,-28,20920,28329,37781,33134,30715,0
55,32,-8,20696,28301,37940,33134,30807,0
55,-38,-3,20415,28385,37980,33202,30838,0
-52,-25,-6,20475,28385,37940,33134,30807,0
-85,-5,-49,20716,28301,37940,33134,30715,0
-64,1,-20,20256,28273,37701,33067,30776,0
-96,14,20,20395,28385,37741,32999,30715,0
-26,-18,6,20716,28470,37701,33033,30715,0
-40,-15,11,20798,28385,37701,33033,30745,0
62,-18,11,20961,28385,37741,33134,30715,0
-44,-51,19,22140,28498,37622,33033,30838,0
170,9,-24,23248,28470,37583,33168,30745,0
15,42,-1,23477,28301,37543,33134,30776,0
90,10,7,23615,28329,37465,33168,30745,0
-3,-3,-3,23684,28357,37465,33067,30745,0
4,71,14,23824,28527,37543,33202,31025,0
84,-8,15,23800,28470,37701,33405,31276,0
27,-45,23,23964,28527,37860,33474,31529,0
46,-56,22,24081,28470,37741,33508,31465,0
-15,-36,-6,23940,28414,37741,33405,31465,0
8,-30,12,24129,28357,37741,33439,31339,0
-16,1,21,24058,28301,37622,33303,31276,0
98,1,-3,23940,28301,37583,33303,31339,0
43,-66,21,24152,28301,37900,33576,31529,0
96,-119,13,24462,28301,38260,33991,31720,0
-12,-152,47,24824,28301,38382,34200,31656,0
27,10,-9,25515,28245,38544,34341,31720,0
-38,-85,-1,26047,28301,38463,34271,31785,0
-79,53,-6,25691,28245,38301,34060,31785,0
63,15,-5,25490,28273,38260,34165,31849,0
121,-77,-22,25793,28245,38341,34235,31688,0
-49,-33,-9,25591,28245,38220,34095,31752,0
142,99,-50,25291,28245,38422,34271,32010,0
-101,-112,-9,24995,28161,38301,34165,31913,0
-90,-155,44,25044,28245,38180,33991,31593,0
-28,-73,30,25192,28161,38019,33991,31465,0
1,176,-109,24727,28161,37900,33679,31370,0
56,-34,-48,24630,28245,37860,33611,31213,0
28,12,-29,24366,28189,37820,33611,31119,0
55,89,-49,24223,28301,37860,33439,31119,0
-23,9,-8,23964,28245,37622,33371,30994,0
37,14,-14,23754,28217,37662,33405,30962,0
69,-2,-21,23592,28245,37622,33303,30962,0
137,55,-71,23499,28161,37583,33303,30869,0
-48,34,-80,23477,28161,37583,33303,30900,0
-17,-51,-27,23569,28133,37543,33236,30900,0
-80,119,-9,23592,28133,37543,33202,30962,0
-11,-3,27,23454,28133,37583,33202,30838,0
-11,8,14,23339,28161,37583,33168,30838,0
-98,67,-18,23431,28161,37543,33168,30715,0
16,28,-7,23316,28189,37465,33168,30776,0
5,20,-4,23316,28133,37504,33100,30715,0
1,25,-26,23294,28189,37543,33033,30745,0
17,-19,-26,23225,28105,37465,33100,30653,0
-7,39,-56,23135,28133,37269,33337,30745,0
8,-2,-53,23225,28161,37465,32999,30745,0
-34,75,-6,23112,28161,37504,33033,30622,0
19,62,-28,23022,28133,37426,32932,30561,0
6,71,-19,22932,28077,37426,32966,30622,0
-44,33,-12,22910,28161,37426,32899,30499,0
-44,12,-10,22843,28049,37386,32932,30469,0
0,33,19,22843,28077,37308,32866,30591,0
-1,22,-2,22865,28077,37426,32899,30499,0
-4,-16,-4,22798,28133,37386,32932,30591,0
25,-14,8,22820,28077,37386,32866,30469,0
7,-11,-15,22798,28133,37308,32832,30561,0
15,-29,-21,22865,28133,37308,32899,30499,0
4,-12,-2,22887,28385,37622,33033,30776,0
24,-9,-8,22776,28105,37308,32899,30499,0
2,-48,10,22687,28161,37386,32799,30438,0
-8,-15,2,22599,28133,37308,32732,30469,0
13,6,-23,22599,28077,37347,32765,30438,0
29,-4,-26,22466,28105,37465,32765,30408,0
-3,32,9,22665,28161,37269,32699,30408,0
27,-32,8,22621,28133,37269,32799,30438,0
39,-9,-5,22709,28161,37308,32732,30377,0
23,-47,22,22709,28161,37308,32765,30469,0
-14,-27,7,22576,28133,37347,32633,30408,0
1,2,-10,22576,28133,37308,32666,30408,0
4,1,-19,22532,28077,37269,32765,30408,0
-4,-19,3,22532,28133,37269,32633,30408,0