GyroX,GyroY,GyroZ,Thumb,Index,Middle,Ring,Pinky,Gesture
-8,12,15,11653,34271,45483,36010,11403,5
-29,11,-16,11653,34235,45483,35861,11366,5
-16,4,8,11665,34165,45483,35898,11391,5
-15,14,-1,11665,34130,45533,35787,11416,5
-32,7,14,11678,34060,45483,35824,11366,5
-16,16,8,11653,34060,45281,35749,11366,5
9,55,4,11653,34026,45382,35749,11329,5
13,14,-14,11603,34130,45331,35602,11304,5
-35,7,-22,11206,34095,45382,35639,11219,5
-30,-16,-18,10819,34235,45382,35492,11219,5
-49,40,24,10546,34447,45181,35382,11157,5
-65,39,-16,10348,34447,45281,35345,11072,5
-103,-2,3,9958,34341,45081,35309,11109,5
-48,143,-78,9033,34200,45081,35492,10975,5
12,99,-23,8642,34130,44832,35382,11036,5
6,13,15,8611,33921,44683,35272,10975,5
-43,49,12,8736,33748,44881,35309,11012,5
1,32,47,9621,33714,44881,35199,10963,5
3,39,19,10267,33714,44981,35382,10927,5
-35,30,10,10406,33645,44981,35455,10939,5
14,32,-10,10406,33611,44832,35309,10939,5
4,-33,-2,10535,33508,44585,35345,10903,5
-6,17,-79,10546,33474,44683,35272,10927,5
-31,55,11,10476,33439,44536,35236,10867,5
-84,63,-69,10488,33439,44389,35309,10927,5
-28,48,-46,10629,33303,44585,35127,10963,5
71,3,54,10807,33269,44536,35163,10915,5
-37,30,8,11440,33236,44634,35199,10867,5
8,102,-39,11957,33168,44585,35309,10903,5
13,87,17,12636,33303,44585,35199,10867,5
30,62,46,12596,33202,44634,35272,10879,5
162,59,-18,12267,33202,44536,35236,10855,5
-41,19,32,12047,33168,44585,35345,10879,5
10,37,-2,11855,33168,44487,35236,10819,5
-82,-19,17,11868,33168,44585,35345,10879,5
-77,-54,-28,11817,32966,44389,35418,10855,5
-44,15,-22,11817,32932,44242,35272,10843,5
-83,17,-13,12137,33033,44340,35127,10831,5
-79,16,-10,12636,32899,44340,35163,10879,5
-17,-17,-12,12743,32932,44291,35309,10819,5
-14,-31,-10,12490,32899,44242,35272,10867,5
6,-1,-6,12293,32799,44096,35091,10819,5
-6,21,-65,11919,32765,44096,34982,10879,5
-2,2,-21,11703,32832,44096,34946,10855,5
-18,28,15,11792,32765,43903,34910,10843,5
-100,-38,72,11881,32765,44000,34982,10795,5
-172,-81,81,11754,32799,43759,35018,10783,5
-144,-5,61,11628,32799,44000,35712,10748,5
-80,-6,46,11553,32765,44096,35602,10724,5
-133,-102,96,11503,32832,44145,35898,10771,5
-27,-93,9,11428,32832,44340,35712,10736,5
-31,-87,38,11416,32932,44193,35861,10748,5
-62,-119,53,11503,32832,44487,35639,10771,5
-34,-93,5,11515,32699,44389,35676,10771,5
-21,28,-42,11553,32566,44438,35492,10819,5
-23,-18,-75,11503,32533,44389,35163,10795,5
48,158,-82,11255,32533,44291,35199,10748,5
6,128,3,12359,32435,44048,35018,10771,5
-59,-8,16,13412,32271,44000,35018,10724,5
-116,-56,57,13260,32271,43903,34982,10783,5
-67,19,13,12320,32303,44000,34839,10724,5
-162,72,33,11628,32271,43567,34803,10724,5
-136,14,22,11366,32140,43424,34767,10759,5
12,8,27,11231,32140,43519,34589,10748,5
2,19,36,11206,32108,43329,34553,10724,5
42,22,-3,11157,32140,43188,34589,10771,5
-4,-1,20,11133,32075,43188,34376,10700,5
-17,23,7,11084,32010,43093,34306,10748,5
-15,20,4,11109,32108,43140,34341,10688,5
-10,-41,10,11109,32075,43282,34271,10688,5
-16,53,49,11109,32010,43093,34271,10759,5
19,0,41,11133,32010,43235,34341,10688,5
-7,-17,10,11133,31946,43140,34200,10748,5
-3,-60,12,11084,31946,43140,34165,10748,5
24,18,6,11012,31978,43046,34200,10688,5
-49,24,-50,11048,31881,43046,34235,10724,5
-7,-8,-26,11024,31946,43093,34026,10724,5
121,-77,-101,11012,31881,43046,34026,10748,5
200,-8,-215,11024,31946,42953,34165,10724,5
11,51,66,11012,31849,42766,34130,10688,5
1,5,-66,11012,31785,42766,34026,10748,5
33,37,-27,10975,31785,42859,34095,10724,5
-17,1,4,11012,31785,42673,34060,10759,5
3,34,-27,10999,31785,42719,34060,10748,5
43,1,2,10975,31720,42673,33956,10759,5
17,45,-3,10975,31752,42719,33852,10700,5
35,58,18,10975,31817,42580,33921,10748,5
-4,22,30,10975,31817,42673,33991,10688,5
15,23,1,10999,31849,42580,33852,10736,5
-52,-13,22,10963,31785,42673,33852,10688,5
1,36,2,10963,31752,42488,33921,10688,5
15,57,49,11024,31720,42534,33783,10700,5
3,74,-24,11060,31720,42859,33887,10748,5
-4,-61,55,11060,31720,42673,33748,10700,5
9,34,10,11060,31720,42534,33714,10688,5
-24,18,-9,11084,31624,42395,33679,10629,5
-37,157,-70,11060,31720,42488,33783,10688,5
-51,31,-8,11036,31720,42349,33817,10724,5
37,27,-8,11060,31656,42488,33783,10724,5
-21,16,-35,11024,31720,42534,33645,10724,5
12,16,-2,11012,31656,42488,33714,10676,5
-5,48,16,10975,31593,42212,33714,10724,5
-31,-69,-3,11012,31624,42395,33679,10676,5
-25,29,-24,10963,31465,42395,33508,10688,5
6,-45,25,10927,31593,42212,33508,10641,5
12,-97,-16,10939,31497,42212,33576,10629,5
-10,71,-1,10927,31497,42304,33542,10676,5
-4,-9,19,10927,31465,42304,33474,10641,5
-28,0,21,10927,31497,42349,33439,10676,5
19,20,-37,10963,31593,42166,33439,10676,5
-14,34,-10,10915,31529,42304,33576,10724,5
-22,-9,13,10927,31402,42120,33439,10676,5
15,39,-5,10915,31465,42166,33576,10688,5
-18,62,1,10915,31402,42212,33508,10748,5
15,70,-5,11012,31434,42304,33508,10653,5
-27,9,12,11024,31497,42304,33474,10724,5
1,16,-5,11024,31465,42120,33576,10676,5
16,16,-11,10975,31370,42258,33508,10676,5
21,3,-8,10975,31402,42029,33474,10676,5
-25,-33,6,10975,31465,42029,33508,10724,5
7,-12,-26,10963,31402,42029,33371,10676,5
-3,-11,-8,10987,31465,41984,33371,10688,5
-11,-34,19,10939,31339,42212,33337,10688,5
3,31,24,10927,31307,42120,33303,10700,5
22,46,-2,11292,31465,42166,33405,10748,5
3,80,20,11678,31402,42212,33474,10676,5
-7,13,-7,11906,31434,42029,33439,10736,5
2,14,14,12490,31339,42304,33371,10688,5
37,11,12,12797,31465,42395,33337,10724,5
3,25,7,12851,31339,42395,33439,10700,5
5,-42,-14,12703,31402,42166,33371,10724,5
22,119,-41,12215,31244,42120,33405,10688,5
-11,1,-32,11779,31276,42212,33337,10712,5
-14,55,-4,11366,31213,42212,33337,10736,5
2,24,13,11231,31276,42075,33303,10748,5
-31,70,-38,11157,31276,41938,33236,10653,5
-2,-12,8,11157,31213,42120,33236,10688,5
-13,31,-2,11157,31181,41893,33168,10653,5
27,8,-12,11121,31244,42029,33236,10748,5
8,13,28,11133,31087,42029,33303,10688,5
-24,-32,-2,11157,31150,41848,33236,10748,5
3,23,1,11109,31244,42029,33269,10688,5
5,28,-12,11072,31119,41984,33168,10676,5
-9,12,-14,11133,31181,41984,33168,10724,5
-25,-11,-17,11109,31213,41984,33202,10700,5
42,26,17,11109,31087,41938,33067,10724,5
18,-11,46,11255,31150,41938,33067,10724,5
2,60,-16,11403,31181,41848,33202,10676,5
-23,39,-24,11453,31181,41803,33168,10724,5
-9,109,-63,11728,31087,41938,33236,10676,5
-17,43,18,11754,31213,41712,33202,10641,5
-88,48,-14,11703,31150,41803,33033,10688,5
-24,-28,-5,11465,31276,41803,33236,10676,5
-39,59,-13,11157,31307,41984,33134,10700,5
-17,83,0,10963,31465,41938,33067,10688,5
-45,16,27,10819,31465,41848,32932,10641,5
-75,-27,8,10700,31465,41803,32966,10700,5
-19,-21,16,10676,31276,41667,33067,10688,5
-3,15,-30,10676,31244,41577,33067,10736,5
1,-40,3,10653,31213,41803,32899,10641,5
8,59,-5,10688,31307,41577,33033,10653,5
5,-6,15,10676,31213,41577,32932,10700,5
-29,-6,-11,10676,31213,41757,32866,10700,5
-8,30,-8,10629,31150,41622,32899,10676,5
-25,18,-5,10641,31213,41757,32799,10641,5
13,7,0,10688,31244,41667,32966,10676,5
7,-16,23,10641,31119,41667,32899,10688,5
-51,-69,7,10641,31213,41667,32932,10688,5
-11,-5,13,10676,31181,41757,32932,10688,5
27,-7,-5,10676,31150,41667,32899,10700,5
-70,-81,44,10676,31150,41443,32899,10676,5
-78,45,35,10676,31119,41622,32932,10676,5
33,-86,38,10676,31025,41488,32799,10676,5
-5,-16,-23,10676,31087,41399,32799,10641,5
-48,-53,22,10676,30994,41577,32699,10629,5
50,-17,-18,10676,31056,41399,32832,10629,5
-8,75,-5,10676,31056,41488,32832,10653,5
33,-44,-37,10676,30962,41399,32732,10676,5
11,2,-55,10688,30931,41309,32866,10676,5
14,22,51,10676,31087,41399,32732,10700,5
-39,-11,-5,10700,30962,41443,32732,10700,5
-1,-42,31,10676,30931,41399,32765,10629,5
-2,23,-24,10700,30962,41488,32732,10641,5
-8,40,-1,10688,30900,41488,32732,10688,5
24,37,15,10676,30962,41399,32799,10676,5
-181,44,114,10676,30994,41399,32732,10676,5
71,-55,-26,10676,30994,41443,32765,10676,5
10,-110,108,11157,30994,41533,32666,10676,5
88,-85,-9,11855,30931,41309,32866,10676,5
-25,-26,-42,11919,31087,41533,32832,10724,5
-44,28,-26,11906,31025,41443,32899,10676,5
42,53,-13,11716,30900,41443,32899,10724,5
23,-5,-9,11553,30869,41488,32699,10688,5
41,-18,-16,11366,30962,41354,32832,10653,5
27,5,6,11304,30869,41221,32799,10748,5
-8,22,-7,11403,30869,41354,32633,10688,5
13,-54,-92,12021,30869,41488,32599,10664,5
-22,21,18,12047,30931,41488,32699,10653,5
13,59,29,11957,30869,41399,32633,10700,5
5,24,17,12959,30900,41399,32832,10641,5
-10,-49,-133,14195,30962,41803,32765,10653,5
-67,121,11,14370,30962,41803,32699,10688,5
79,52,0,14547,30994,41757,32765,10617,5
81,241,-58,14696,30838,41938,32799,10676,5
10,77,31,14195,30807,42029,32832,10676,5
28,-38,-17,12986,30869,41622,32799,10688,5
33,-15,1,11830,30962,41533,32633,10629,5
12,6,22,11206,30900,41399,32566,10664,5
34,38,-5,10975,30962,41533,32599,10676,5
-69,53,53,10963,30900,41533,32533,10629,5
-79,23,-31,10915,30838,41399,32566,10700,5
9,-75,14,11157,30776,41221,32533,10594,5
-48,-35,7,11779,30776,41399,32633,10605,5
34,46,-56,11868,30622,41309,32566,10641,5
-23,-20,22,11603,30591,41221,32500,10676,5
1,-12,16,11109,30684,41309,32435,10629,5
-10,-24,14,11036,30653,41265,32336,10688,5
-10,5,26,11036,30591,41044,32500,10676,5
-20,80,6,11036,30715,41044,32369,10676,5
-18,-14,5,11024,30591,41044,32271,10676,5
11,34,0,11060,30653,40955,32238,10688,5
-2,-14,5,11012,30530,41132,32271,10641,5
12,-16,-7,11012,30530,40912,32303,10629,5
-16,-40,-5,11072,30715,41044,32402,10641,5
35,-7,20,11109,30591,40955,32238,10676,5
-19,-10,-10,11133,30653,41088,32369,10688,5
16,-3,-7,11170,30561,40955,32238,10676,5
77,-101,-80,11280,30715,40780,32205,10676,5
-50,-118,83,11465,30591,40736,32238,10688,5
-134,74,-27,11754,30653,40693,31978,10664,5
-142,-104,109,11716,30745,40605,31978,10676,5
-105,-70,103,11628,30900,40912,31913,10629,5
33,38,-36,11428,30869,40824,31817,10629,5
1,113,-66,11206,30869,41044,31785,10688,5
-94,33,-7,11133,30838,41044,31752,10688,5
-34,108,-10,11170,30622,41088,31720,10688,5
-96,208,32,11109,30622,41088,31752,10629,5
-39,-3,52,11036,30499,40955,31624,10653,5
-3,175,-13,10963,30408,40868,31656,10582,5
37,-22,20,10879,30530,40824,31752,10676,5
-7,150,-54,10867,30469,41354,31593,10641,5
-76,-39,-8,10915,30499,41309,31593,10688,5
25,29,-6,10915,30499,41309,31817,10688,5
-76,-4,19,10927,30561,41399,31593,10748,5
-12,-90,18,10915,30469,41221,31624,10700,5
6,47,7,10879,30408,41309,31497,10771,5
13,-8,-56,10915,30347,41044,31402,10771,5
-1,-36,-23,10867,30377,41088,31370,10783,5
9,4,-66,10903,30256,41088,31339,10771,5
13,5,8,10891,30286,41000,31370,10748,5
13,20,5,10867,30195,40912,31307,10676,5
12,9,8,10891,30286,40868,31276,10688,5
22,-2,-2,10891,30226,40868,31213,10700,5
-45,70,-49,10915,30165,40736,31370,10688,5
11,0,-13,10903,30165,40868,31276,10748,5
10,44,-31,10891,30165,40780,31213,10688,5
-9,-7,-29,10879,30165,40562,31339,10688,5
0,5,-28,10915,30165,40562,31213,10724,5
-4,-10,-3,10927,30165,40605,31213,10724,5
24,-8,8,10915,30105,40649,31150,10783,5
-24,57,-35,10915,30105,40562,31276,10748,5
6,-24,-16,10927,29984,40519,31213,10783,5
4,14,-5,10975,30015,40432,31213,10748,5
14,-2,7,10975,30015,40389,31087,10771,5
8,6,-25,10975,30105,40605,31213,10807,5
-3,36,-34,10939,30045,40519,31213,10748,5
33,5,-12,10987,29984,40519,31339,10819,5
-20,-7,5,10939,29984,40605,31119,10771,5
16,-25,-2,10987,29984,40519,31087,10771,5
0,45,-12,10963,30015,40432,31150,10748,5
9,16,-37,10999,29955,40562,31181,10819,5
8,-23,-1,10963,29984,40475,31150,10795,5
13,-9,-1,10999,29984,40475,31025,10819,5
-8,48,-11,11012,29925,40519,30994,10771,5
-10,50,-18,10987,29984,40432,31213,10783,5
14,-6,-11,11060,29984,40432,31087,10783,5
4,-1,10,11036,29925,40475,31025,10783,5
25,-24,-4,11012,29925,40519,30994,10759,5
16,-11,-7,11024,29865,40346,31087,10795,5
-20,4,2,11060,29955,40432,31119,10783,5
13,6,-5,11036,29865,40432,31087,10771,5
15,-6,4,11060,29835,40432,30962,10795,5
45,-47,-11,11036,29865,40562,31056,10819,5
32,-57,-17,11060,29865,40346,30962,10855,5
10,-31,16,11060,29865,40432,31087,10843,5
13,10,15,11084,29865,40389,30994,10819,5
-17,3,1,11036,29955,40302,30994,10795,5
-4,15,2,11048,29805,40389,30962,10831,5
1,21,2,11084,29775,40259,30962,10819,5
27,-20,-19,11060,29895,40389,30994,10819,5
32,-57,-69,11072,29805,40173,31056,10867,5
35,36,-123,11060,29775,40389,31056,10819,5
100,-17,-189,11084,29775,40389,30900,10795,5
-9,66,-92,11024,29746,40259,30962,10795,5
23,27,-127,11012,29835,40259,30962,10795,5
61,-18,-190,10975,29775,40346,30962,10843,5
-91,-11,-2,10927,29746,40432,30869,10795,5
10,-8,-18,10963,29775,40259,31025,10783,5
40,-6,-29,10963,29775,40216,30994,10819,5
6,28,-19,10951,29775,40346,30900,10748,5
-17,27,-45,10963,29775,40346,30962,10819,5
15,-52,-13,10915,29865,40302,30807,10771,5
13,-36,-25,10927,29865,40216,30900,10867,5
15,24,-36,10963,29865,40432,30838,10867,5
-15,27,33,10963,29895,40173,30838,10843,5
15,-7,0,10963,29865,40389,30962,10879,5
8,-5,-11,10963,29805,40389,30900,10831,5
4,14,-1,10963,29775,40131,30994,10795,5
18,2,-24,10927,29746,40346,30994,10867,5
13,-12,-28,10915,29746,40346,30994,10855,5
-46,25,1,10951,29775,40088,30962,10915,5
29,21,14,10987,29775,40346,30869,10891,5
12,12,3,10963,29805,40302,30900,10915,5
24,-53,-5,10939,29805,40259,30838,10915,5
-6,-11,37,10999,29805,40259,30900,10867,5
8,26,16,10975,29746,40259,30869,10927,5
-4,32,15,10963,29805,40088,30838,10891,5
3,-22,15,10963,29775,40173,30745,10903,5
-33,46,26,10987,29775,40045,30715,10879,5
12,-25,-5,10963,29746,40216,30776,10903,5
-8,58,-8,10987,29746,40173,30776,10891,5
12,-19,-6,10975,29686,40173,30776,10915,5
-1,23,1,10975,29716,40088,30869,10879,5
-16,31,14,10975,29746,40131,30745,10879,5
17,-3,10,10963,29627,40216,30838,10927,5
10,9,-12,10975,29716,40173,30715,10927,5
6,13,9,10963,29746,40173,30684,10963,5
4,0,-3,10987,29627,40045,30745,10963,5
9,32,3,10975,29746,40088,30745,10927,5
7,1,-2,10927,29746,40173,30715,10915,5
-3,-7,11,10963,29657,40173,30838,10939,5
16,5,5,10939,29686,40045,30745,10879,5
6,9,-8,10975,29716,40088,30745,10951,5
-5,23,13,10975,29657,40045,30653,10903,5
30,-32,-14,10927,29657,39960,30715,10951,5
-3,-7,-10,10963,29746,40045,30745,10879,5
0,16,23,10927,29627,40002,30807,10915,5
5,-22,-1,10927,29686,40045,30745,10927,5
-13,-5,5,10939,29746,40173,30838,10939,5
17,11,19,10939,29716,40045,30715,10915,5
-12,0,0,10963,29657,39960,30622,10915,5
-11,16,-14,10927,29686,40088,30745,10927,5
15,-14,-5,10927,29627,39874,30715,10927,5
-3,11,7,10975,29627,39874,30591,10987,5
-11,9,-9,10963,29716,40002,30591,10915,5
4,2,-10,10915,29657,39832,30684,11012,5
8,5,2,10975,29627,40002,30745,10975,5
12,1,10,10963,29746,39917,30622,10915,5
-9,39,8,10915,29716,40088,30715,10975,5
13,12,1,10927,29657,39960,30591,10867,5
15,-57,-21,10903,29686,40088,30684,10903,5
19,-134,32,10927,29686,40045,30684,10783,5
1,-28,28,10915,29657,40088,30745,10748,5
66,-20,103,10819,29805,40216,30745,10748,5
-44,0,50,10724,29775,40346,30745,10748,5
-45,9,0,10748,29865,40346,30807,10748,5
-47,-6,11,10688,29746,40389,30715,10759,5
35,-11,-16,10700,29657,40259,30653,10700,5
0,25,-7,10688,29686,40045,30715,10748,5
8,12,-3,10641,29686,40131,30622,10712,5
38,14,-1,10676,29627,40002,30591,10759,5
20,-1,-8,10676,29657,39917,30591,10676,5
17,4,-5,10641,29597,40002,30622,10700,5
31,-5,2,10641,29627,40002,30530,10783,5
11,29,-11,10641,29568,40045,30438,10748,5
27,24,5,10641,29509,39832,30653,10771,5
16,-20,-18,10641,29627,40002,30499,10748,5
-8,54,3,10653,29568,40045,30499,10748,5
0,33,22,10676,29568,39960,30653,10771,5
-23,1,9,10653,29538,40045,30622,10748,5
15,-63,-66,10629,29627,40002,30622,10748,5
-7,17,42,10653,29568,39832,30499,10783,5
-18,-13,17,10653,29627,39747,30530,10771,5
-154,-51,-3,10653,29627,39960,30591,10748,5
-57,-102,-24,10629,29450,39874,30591,10748,5
57,29,-46,10617,29597,39874,30591,10748,5
-73,28,-3,10617,29597,39747,30591,10736,5
-64,-82,-30,10676,29597,39917,30438,10724,5
-81,-94,-93,10676,29538,39790,30622,10724,5
-69,38,-45,10688,29538,39747,30530,10676,5
-50,38,46,10724,29509,39832,30591,10653,5
27,7,23,10700,29509,39874,30499,10688,5
31,-11,28,10700,29568,39747,30469,10724,5
-37,-39,-18,10748,29538,39832,30591,10641,5
-76,3,-20,10688,29538,39832,30530,10676,5
-144,44,-78,10963,29509,39790,30622,10653,5
-261,121,-59,10700,29657,39790,30499,10688,5
-71,79,-1,10700,29597,40002,30653,10700,5
21,59,-49,10664,29657,39874,30499,10676,5
62,-9,45,10653,29509,39747,30653,10653,5
48,4,-67,10664,29568,39790,30408,10664,5
47,3,-11,10688,29597,39747,30530,10653,5
60,48,16,10676,29509,39874,30591,10617,5
59,3,24,10653,29538,39917,30438,10688,5
46,-15,-1,10724,29509,39874,30377,10724,5
19,38,11,10641,29509,39832,30377,10724,5
23,26,-2,10688,29597,39747,30591,10664,5
14,60,6,10676,29509,39832,30530,10724,5
-2,28,43,10688,29509,39832,30469,10641,5
-31,7,-43,10676,29509,39747,30499,10653,5
-16,59,45,10724,29597,39790,30530,10724,5
70,-29,62,10688,29538,39874,30530,10736,5
7,-30,48,10700,29509,39705,30469,10724,5
-30,14,-74,10736,29538,39663,30530,10736,5
48,-48,-116,10724,29450,39747,30347,10748,5
96,23,-52,10676,29450,39663,30347,10688,5
58,-22,-6,10748,29479,39621,30469,10736,5
27,-26,43,10688,29509,39663,30469,10724,5
-69,86,29,10724,29450,39663,30377,10724,5
135,-3,-36,10748,29509,39790,30438,10748,5
-17,-72,-41,10724,29509,39747,30256,10724,5
34,46,29,10748,29509,39663,30286,10783,5
-12,81,51,10748,29509,39790,30256,10748,5
-16,12,-6,10724,29538,39747,30377,10771,5
-57,34,56,10759,29450,39705,30256,10724,5
16,0,40,10748,29479,39578,30347,10748,5
20,1,9,10724,29421,39705,30438,10771,5
-16,-19,12,10771,29391,39494,30226,10724,5
-16,-18,-9,10712,29450,39494,30347,10724,5
-34,-17,-21,10736,29450,39663,30317,10724,5
-16,43,11,10748,29391,39747,30408,10748,5
-12,53,92,10748,29509,39536,30195,10748,5
-5,-20,-16,10748,29479,39494,30226,10748,5
-85,37,35,10748,29391,39663,30256,10712,5
-5,68,8,10724,29391,39494,30438,10724,5
4,18,-2,10771,29421,39536,30347,10688,5
47,-132,-66,10724,29391,39705,30377,10688,5
-100,57,-69,10748,29450,39536,30226,10700,5
35,15,23,10748,29362,39536,30226,10688,5
93,-198,-33,10748,29304,39494,30256,10688,5
-10,22,0,10688,29362,39663,30226,10771,5
6,-10,-83,10724,29421,39663,30226,10759,5
59,12,42,10724,29391,39494,30226,10724,5
26,-11,80,10748,29333,39578,30377,10771,5
-27,73,-8,10748,29362,39536,30286,10771,5
-29,3,9,10771,29391,39536,30226,10783,5
-67,43,67,10736,29304,39663,30408,10688,5
-73,2,89,10724,29391,39663,30256,10688,5
-53,3,47,10748,29450,39452,30347,10700,5
-34,-58,141,10759,29450,39494,30347,10724,5
-148,-157,-33,10748,29304,39663,30347,10676,5
-65,-255,-244,10712,29450,39494,30286,10676,5
-12,33,149,10676,29450,39578,30226,10676,5
36,19,227,10688,29509,39705,30347,10724,5
8,-74,65,10676,29391,39494,30408,10629,5
2,-23,66,10629,29216,39411,30165,10676,5
7,-39,76,10629,29100,39369,30105,10546,5
-1,-89,128,10641,29042,39244,29984,10535,5
58,-3,194,10629,29071,39327,30045,10511,5
100,-140,249,10664,28984,39160,29925,10511,5
82,-4,30,10641,28984,39244,29865,10453,5
-1,-1,-76,10676,29042,39244,29895,10488,5
-9,13,-37,10641,29042,39285,29984,10511,5
-61,-33,-20,10676,29071,39244,29925,10570,5
-15,-11,34,10641,28955,38953,29895,10499,5
104,39,-10,10653,28984,39244,29746,10535,5
59,48,-43,10653,28955,39160,29657,10535,5
41,-25,-77,10676,28984,39119,29746,10488,5
-9,59,109,10724,28927,39202,29716,10582,5
80,60,-101,10688,28927,39244,29895,10546,5
55,-2,5,10748,28869,38995,29746,10582,5
1,44,60,10759,28840,38995,29686,10535,5
-28,-31,20,10688,28898,39160,29865,10535,5
-6,-88,-36,10748,28840,39119,29805,10570,5
108,-24,-64,10700,28869,39160,29627,10594,5
77,4,34,10664,28955,39077,29686,10582,5
7,70,-3,10676,28927,39244,29895,10535,5
-97,108,-15,10653,28898,39119,29775,10570,5
63,-18,-53,10641,28955,39077,29775,10511,5
15,-40,-26,10676,28869,38871,29746,10582,5
-119,27,-15,10641,28898,38830,29568,10535,5
34,7,-17,10676,28726,38748,29627,10558,5
1,34,-51,10653,28754,38871,29716,10629,5
-18,64,0,10676,28869,38912,29686,10582,5
38,41,-9,10653,28812,39036,29509,10535,5
52,39,-29,10676,28812,38789,29746,10605,5
-28,68,10,10653,28697,38789,29597,10535,5
13,-19,10,10664,28812,38912,29657,10582,5
-10,-14,-7,10676,28754,38789,29509,10605,5
-23,-35,37,10653,28783,38748,29657,10535,5
-95,-87,46,10676,28869,38995,29716,10511,5
49,-139,130,10676,28812,38789,29716,10535,5
28,-80,123,10641,28726,38830,29538,10535,5
149,-24,79,10629,28726,38748,29568,10511,5
114,54,-4,10795,28754,38871,29627,10535,5
84,134,5,11678,28640,39036,29775,10535,5
48,215,-78,12905,28754,39327,29865,10582,5
-55,341,-51,14079,28812,39452,29984,10488,5
-172,310,-27,14726,28840,39705,30165,10582,5
-53,136,29,14741,28840,39705,30226,10511,5
-54,-11,37,14922,28697,39790,30347,10570,5
-18,46,61,15366,28697,39832,30530,10499,5
-40,-48,20,15663,28612,39832,30408,10582,5
-30,16,3,15647,28583,39832,30347,10582,5
-114,-12,-12,15350,28555,39747,30469,10535,5
-90,9,-45,15150,28470,39874,30377,10499,5
13,5,6,15043,28498,39663,30377,10511,5
21,7,-5,14907,28527,39621,30408,10499,5
26,10,-18,14741,28470,39705,30347,10546,5
-5,-4,-2,14621,28555,39452,30347,10582,5
-28,30,17,14503,28527,39536,30226,10546,5
-8,2,-45,14458,28470,39578,30226,10488,5
47,8,-51,14268,28442,39369,30226,10535,5
17,23,-29,14093,28357,39494,30286,10535,5
0,-26,6,13792,28498,39494,30105,10511,5
-110,1,70,13764,28442,39411,30075,10546,5
14,13,-10,14050,28357,39244,30165,10523,5
-12,36,-13,14370,28414,39327,30105,10582,5
30,34,17,14488,28470,39452,30165,10499,5
8,29,-5,14503,28357,39411,30165,10535,5
-35,7,3,14726,28357,39369,30226,10546,5
-42,-2,-4,14607,28357,39244,30105,10535,5
33,6,-14,14636,28357,39285,30045,10523,5
-19,31,8,14488,28357,39411,30195,10546,5
27,-3,-35,15181,28385,39494,30165,10546,5
-56,20,-17,15521,28273,39411,30105,10594,5
-35,-15,-18,15948,28217,39244,30105,10582,5
-14,-3,-3,16222,28301,39411,30105,10535,5
-20,2,1,16222,28301,39244,30165,10594,5
15,9,3,15868,28161,39244,30226,10594,5
16,-3,6,15553,28217,39285,30045,10535,5
6,23,-7,15150,28245,39327,30226,10594,5
-16,5,3,14726,28189,39369,30015,10511,5
-31,19,-21,14458,28049,39160,30015,10558,5
-59,-10,-31,14108,28245,39077,30105,10535,5
-96,49,7,13792,28133,39327,30165,10582,5
-54,52,-44,13552,28217,39285,30015,10535,5
11,65,52,14036,28161,39036,30105,10535,5
48,-78,42,14326,28077,39285,30195,10535,5
-10,-105,38,14268,28077,39244,30135,10676,5
-12,-15,23,14238,27966,39160,30226,11603,5
1,-1,11,14577,28077,38995,30317,12009,5
-20,55,-5,14861,28022,39160,30317,11754,5
20,105,-40,15726,28049,39036,30256,11317,5
15,35,-24,16815,28077,39077,30438,11231,5
288,125,90,17774,28022,39202,30377,11109,5
52,72,-19,18635,27939,39119,30286,11133,5
-30,-3,9,18236,27939,38995,30438,11255,5
40,23,5,17220,27911,38995,30377,11182,5
49,-14,6,16060,28022,39119,30347,10963,5
60,-35,27,15181,28077,39077,30165,10927,5
-50,-39,30,14562,28161,38995,30226,10927,5
15,17,15,14151,28049,38912,29984,10867,5
-61,-5,16,13978,28077,38830,29984,10891,5
-34,-44,64,13906,27911,38830,29895,10795,5
49,47,22,13906,27939,38585,29955,10676,5
0,-22,7,13806,28105,38707,29925,10653,5
25,39,14,13806,28133,38666,29805,10641,5
8,-33,16,13749,28022,38666,29805,10546,5
2,-125,16,13764,27911,38585,29686,10582,5
-3,12,-6,13693,27883,38748,29657,10488,5
16,74,-30,13398,27911,38544,29657,10511,5
25,5,-8,13122,27939,38666,29686,10535,5
-41,38,-78,12851,28049,38666,29509,10570,5
0,94,-57,13027,28049,38544,29657,10511,5
54,51,-33,13095,28022,38707,29509,10535,5
29,132,-16,13054,27939,38544,29627,10511,5
13,-59,57,13027,27828,38666,29597,10535,5
16,0,3,13301,27911,38503,29538,10546,5
-30,-2,5,13622,27828,38625,29657,10535,5
-15,-3,-5,14137,27883,38585,29538,10535,5
-31,6,4,14726,27939,38707,29538,10558,5
-38,2,5,15089,27966,38707,29568,10488,5
-15,4,7,15397,27883,38625,29746,10499,5
-14,-8,-2,15227,27911,38503,29568,10488,5
-17,9,8,15397,27773,38707,29746,10546,5
-31,-25,13,15475,27856,38666,29538,10488,5
-21,12,-10,15459,27800,38666,29686,10499,5
-41,-14,3,15366,27800,38748,29509,10488,5
11,15,-32,14982,27800,38503,29568,10511,5
-3,15,-17,14607,27745,38503,29509,10535,5
6,24,-15,14224,27828,38544,29421,10499,5
-12,29,-46,13964,27883,38625,29421,10488,5
-7,-31,-2,14021,27718,38585,29538,10582,5
33,-32,-46,14079,27691,38382,29450,10582,5
-32,-64,18,14050,27718,38422,29538,10582,5
18,35,-4,13978,27718,38585,29509,10523,5
3,-21,26,14021,27691,38382,29391,10558,5
9,30,26,14224,27718,38544,29538,10511,5
16,3,-7,14253,27745,38544,29391,10499,5
-9,20,6,14326,27828,38503,29421,10535,5
-2,9,-9,14488,27745,38422,29538,10535,5
9,-8,-2,14503,27800,38382,29391,10535,5
13,-10,-15,14488,27773,38625,29509,10488,5
3,7,-3,14503,27828,38544,29421,10535,5
6,31,7,14831,27745,38503,29450,10535,5
-28,12,5,15104,27800,38585,29509,10582,5
-34,21,4,15181,27828,38625,29391,10488,5
-25,-2,1,15165,27718,38585,29538,10582,5
6,3,21,15288,27856,38585,29421,10582,5
-56,-4,-17,15726,27718,38707,29479,10511,5
17,13,5,15553,27691,38830,29538,10558,5
30,-1,-2,15397,27691,38830,29450,10523,5
-23,-19,4,15119,27745,38585,29421,10546,5
16,5,-46,14786,27691,38544,29421,10558,5
-3,3,-23,14370,27691,38585,29450,10499,5
-17,-3,-54,14195,27718,38544,29304,10535,5
19,7,-24,14079,27691,38625,29479,10582,5
-73,-72,-20,13735,27773,38585,29304,10499,5
-48,-26,-28,13412,27773,38544,29421,10629,5
-53,-33,-65,13566,27773,38585,29391,10594,5
56,-7,-15,13735,27856,38463,29333,10546,5
7,11,-19,13622,27745,38544,29216,10629,5
-10,-13,43,13315,27745,38666,29187,10582,5
38,-3,27,14079,27800,38585,29187,10582,5
-12,45,10,14488,27745,38382,29274,10558,5
-21,-4,17,14756,27718,38666,29274,10594,5
-17,41,-13,14741,27773,38503,29187,10535,5
82,26,43,15150,27828,38625,29421,10594,5
-32,17,-14,15150,27718,38707,29333,10558,5
-19,22,4,14726,27800,38748,29421,10499,5
-6,-2,-20,14547,27718,38585,29421,10605,5
5,23,14,14444,27718,38503,29274,10629,5
11,22,4,14473,27773,38463,29304,10546,5
0,-12,1,14209,27691,38585,29333,10558,5
29,-56,-11,14166,27718,38666,29391,10594,5
12,-16,-35,14297,27718,38463,29333,10582,5
-6,-3,13,14151,27691,38544,29245,10582,5
-7,-70,10,13849,27636,38585,29362,10594,5
31,18,21,13357,27691,38585,29245,10594,5
-9,47,21,12649,27691,38503,29274,10582,5
30,-2,-69,12636,27636,38382,29245,10594,5
-46,-37,-80,12596,27800,38503,29245,10629,5
70,-11,-27,12320,27828,38503,29274,10594,5
-10,-21,-21,11983,27828,38341,29158,10535,5
-69,38,5,11855,27856,38382,29158,10582,5
-28,28,48,11804,27800,38220,29245,10605,5
-141,79,97,11716,27828,38382,29216,10535,5
-29,-58,-8,11703,27691,38220,29216,10629,5
-8,-118,14,11678,27745,38341,29042,10629,5
-47,-50,-10,11653,27745,38100,29042,10582,5
-101,-24,38,11665,27718,38341,29042,10582,5
-47,-9,-18,11640,27745,38140,29042,10582,5
-81,13,-20,11603,27800,38059,29187,10546,5
-98,16,-31,11565,27691,38220,29071,10641,5
-6,-13,7,11703,27636,38260,29158,10664,5
8,35,-1,11754,27636,38260,29071,10582,5
-17,-31,-52,11691,27691,37940,28984,10582,5
-7,-25,14,11653,27718,38019,28955,10653,5
23,-60,35,11665,27745,38100,29129,10641,5
3,-29,-42,11653,27745,37940,29100,10629,5
34,61,40,11603,27636,38059,29071,10582,5
35,23,18,11653,27581,38059,29042,10617,5
17,-15,13,11628,27609,38180,28927,10676,5
26,48,0,11565,27636,38019,29042,10664,5
-54,69,38,12189,27691,38019,28927,10688,5
-54,-41,22,12477,27581,37940,28927,10582,5
35,-2,-37,12424,27472,38100,29042,10570,5
-36,-37,13,12320,27527,38180,28984,10594,5
58,-27,-23,12267,27609,38100,28898,10664,5
21,4,-7,12215,27554,38180,28927,10594,5
-33,43,-4,12176,27472,38100,28927,10664,5
3,-39,0,12124,27581,38100,29042,10688,5
8,21,-10,12086,27472,37940,28898,10676,5
6,-13,27,12034,27527,38059,29071,10676,5
2,20,9,12060,27609,38140,28869,10676,5
5,-18,-29,12034,27554,38059,28898,10629,5
-3,17,-3,11983,27581,38100,28869,10629,5
14,-2,-6,11970,27609,37860,28927,10653,5
52,-64,-53,11868,27472,37940,29042,10676,5
-1,47,52,11628,27663,37940,28984,10629,5
-22,6,-4,11268,27663,38100,28984,10594,5
37,-31,28,11133,27966,38140,28955,10605,5
-29,208,-60,11121,27939,37940,28927,10653,5
-3,140,-5,11060,27966,38140,28927,10594,5
0,5,-27,11060,27939,37900,28984,10582,5
-4,-17,4,11024,27911,37940,28984,10535,5
12,-139,65,11453,27800,38180,29042,10594,5
-36,-47,5,11703,27745,38019,28927,10594,5
27,4,22,11728,27636,38059,28955,10582,5
9,-10,4,11855,27581,37940,29013,10546,5
-3,-18,20,11906,27718,38019,28869,10582,5
24,13,15,11855,27691,37900,28927,10499,5
35,14,27,11716,27581,37900,28898,10582,5
52,-17,-9,11428,27636,37820,28840,10511,5
50,-15,-8,11182,27581,37860,28840,10582,5
27,-16,7,10987,27636,37900,28955,10582,5
-20,12,49,10975,27609,37940,28840,10511,5
-5,48,-25,11060,27554,37781,28754,10546,5
1,-16,9,11096,27554,37860,28927,10546,5
-22,-55,-10,11157,27636,37701,28812,10546,5
-7,-12,-12,11157,27527,37741,28783,10511,5
8,-15,-11,11170,27499,37860,28840,10535,5
-19,2,-49,11157,27499,37741,28955,10594,5
-41,-47,-63,11096,27554,37940,28898,10582,5
-44,0,-100,10987,27691,37781,28927,10605,5
27,14,-45,10963,27581,37781,28927,10499,5
-16,38,3,10987,27581,37860,28812,10582,5
26,-11,-12,11036,27718,37900,28754,10582,5
100,112,-20,11157,27609,37900,28898,10582,5
33,-51,7,11540,27636,37860,28726,10499,5
34,-25,9,11703,27581,37741,28783,10535,5
-18,-46,-6,11665,27554,37781,28726,10582,5
-1,4,17,11603,27581,38019,28840,10511,5
-15,-7,-10,11603,27527,37820,28812,10546,5
3,-9,-10,11528,27581,37741,28726,10546,5
-20,-36,5,11366,27581,37860,28669,10546,5
-24,-18,20,11366,27499,37741,28754,10546,5
-2,-24,-2,11255,27609,37900,28697,10570,5
-23,-187,-10,11304,27554,37741,28726,10594,5
13,67,84,11503,27691,37940,28812,10605,5
-4,2,12,11919,27691,38180,28869,10535,5
-34,18,-4,12293,27636,37940,28955,10535,5
44,2,-41,12663,27636,37980,28984,10546,5
0,-9,-9,12690,27745,38059,28984,10546,5
-44,7,-23,12385,27609,38100,28984,10535,5
-91,-30,-84,11957,27499,37940,28812,10511,5
-30,-5,19,11855,27663,37860,28783,10594,5
12,54,75,11716,27691,37980,28869,10511,5
17,-36,1,11603,27663,37820,28840,10535,5
31,15,-13,11453,27718,37900,28812,10582,5
-52,98,12,11354,27636,37741,28840,10594,5
16,-44,-23,11403,27554,37980,28840,10546,5
-20,-48,-18,11317,27554,37781,28869,10546,5
-3,-62,19,11317,27636,37781,28898,10594,5
33,-12,6,11317,27499,37820,28812,10535,5
-14,23,-14,11292,27472,37820,28726,10605,5
27,-26,-17,11268,27609,37701,28840,10535,5
28,2,-15,11182,27499,37940,28754,10499,5
7,54,-62,11157,27472,37940,28697,10535,5
6,37,7,11157,27609,37900,28812,10570,5
33,-10,-19,11182,27663,37781,28754,10594,5
164,55,-72,11615,27609,37781,28783,10499,5
89,29,-113,12851,27636,37980,28898,10499,5
63,10,20,12905,27691,37860,28984,10570,5
-61,-54,37,12596,27499,37940,28869,10499,5
-25,12,19,12372,27472,38019,28840,10499,5
-68,-62,-84,12099,27472,38019,28927,10511,5
-13,-32,-42,12112,27499,38059,28840,10535,5
-29,3,17,11970,27527,37860,28984,10499,5
-8,10,15,11932,27581,37900,28812,10582,5
40,22,15,11893,27499,37860,28754,10511,5
-17,8,-5,11842,27499,37701,28984,10546,5
53,12,-12,11766,27499,37781,28840,10511,5
-13,43,20,11653,27527,37741,28840,10594,5
20,-12,-11,11653,27418,37741,28754,10582,5
5,18,9,11653,27472,37860,28869,10558,5
17,-45,-9,11665,27581,37900,28812,10582,5
-21,-12,1,11628,27527,37900,28812,10535,5
-2,-14,3,11603,27472,37820,28697,10594,5
2,38,0,11615,27472,37860,28754,10535,5
-19,25,18,11653,27472,37940,28697,10570,5
7,10,-12,11553,27527,37900,28697,10617,5
-17,-12,-9,11528,27472,37741,28754,10499,5
0,-10,6,11565,27527,37860,28669,10617,5
10,27,-32,11590,27499,37741,28812,10558,5
25,19,6,11553,27499,37860,28697,10605,5
18,-13,-12,11553,27527,37940,28812,10594,5
-12,8,-1,11503,27527,37662,28812,10535,5
-11,-22,15,11503,27581,37741,28640,10558,5
13,12,21,11515,27527,37662,28812,10546,5
-36,22,4,11503,27527,37900,28612,10605,5
9,-15,-6,11515,27472,37622,28783,10629,5
10,-15,-14,11453,27527,37701,28783,10546,5
-5,-2,3,11416,27527,37741,28754,10558,5
-8,30,12,11453,27499,37860,28669,10582,5
0,-21,-6,11478,27554,37781,28697,10641,5
-2,0,8,11416,27554,37622,28812,10605,5
-5,14,-5,11403,27499,37662,28697,10594,5
4,0,-6,11440,27554,37781,28612,10629,5
-9,2,-3,11403,27472,37820,28697,10535,5
0,-15,-4,11428,27472,37860,28669,10629,5
-4,13,-1,11416,27472,37781,28612,10629,5
-37,-30,-8,11317,27499,37781,28754,10558,5
-51,27,-4,11304,27581,37741,28612,10535,5
-44,-35,13,11403,27581,37701,28697,10594,5
6,9,-10,11366,27527,37781,28697,10558,5
33,19,-8,11280,27472,37741,28697,10511,5
21,0,7,11268,27554,37860,28583,10511,5
-29,72,-10,11219,27499,37741,28812,10499,5
15,-16,-4,11206,27499,37860,28697,10488,5
33,40,-8,11366,27499,37741,28726,10594,5
195,106,-11,12228,27691,38059,28754,10558,5
23,60,0,13287,27745,38503,28984,10499,5
-3,130,20,13707,27691,38260,29158,10558,5
127,28,99,14064,27609,38585,29158,10535,5
85,6,62,13906,27718,38503,29100,10453,5
-38,-53,113,13510,27663,38382,29042,10499,5
-47,-25,68,13177,27609,38503,29158,10558,5
8,-84,40,12972,27499,38260,29129,10499,5
2,-23,1,12743,27609,38220,28984,10535,5
36,9,18,12060,27581,38260,28840,10511,5
-19,89,-10,11792,27773,38341,28869,10594,5
113,188,-12,11741,27691,38341,28869,10511,5
47,1,43,11665,27691,38707,28869,10511,5
70,129,-7,12047,27745,38707,28754,10535,5
105,-37,76,13191,27691,38707,28984,10523,5
40,-60,46,13068,27773,38666,28898,10535,5
113,67,21,12477,27691,38666,28869,10488,5
15,-15,7,12021,27691,38544,28927,10511,5
1,-2,-2,11754,27663,38585,28869,10511,5
-20,-56,-6,11366,27691,38503,28812,10488,5
-65,-40,18,11084,27718,38463,28697,10570,5
-78,-24,-33,10903,27636,38503,28498,10605,5
14,-31,-2,10879,27718,38260,28470,10582,5
-49,12,-29,10807,27581,38301,28470,10570,5
12,-63,11,10819,27581,38180,28357,10594,5
-27,71,-5,10819,27581,38059,28470,10535,5
74,15,-50,10807,27636,38180,28470,10570,5
40,24,2,10867,27391,37980,28329,10582,5
134,439,-83,10748,27391,38503,19999,10629,5
-88,-31,35,10700,27391,38140,22488,10558,5
-313,-203,4,10629,27175,38260,22820,10629,5
-187,-188,-26,10546,27148,37980,22357,10676,5
87,-328,22,10535,27122,37900,22248,10688,5
-12,-119,82,10546,27229,37940,22444,10748,5
155,13,-34,10629,27122,37820,23684,10915,5
85,-28,-25,10676,27122,37622,24606,11603,5
55,-61,20,10748,26961,37662,25192,12267,5
-36,-203,97,10783,26961,37543,24946,12451,5
-32,-62,40,10771,26935,37426,24775,12438,5
-16,-26,-4,10748,26961,37426,24606,12504,5
-7,-41,2,10759,26961,37543,24510,12490,5
1,-32,-13,10795,26829,37426,24366,12743,5
53,-105,-21,10855,26829,37386,24223,12716,5
-65,-80,-25,10927,26618,37230,24034,12878,5
67,-46,-4,10963,26566,36920,23847,13232,5
-1,-49,-23,11012,26409,36728,23800,13964,5
-126,-49,-38,11024,26073,36122,23499,14726,5
124,-199,-16,11231,26022,35898,23454,16319,5
39,28,16,11206,25818,35712,23316,17634,5
-23,63,4,11219,25390,34874,23157,17186,5
-12,-67,37,11096,25291,34624,23180,16848,5
207,-23,-16,11048,25068,34306,22932,16681,5
-80,124,-5,11109,24799,33852,22665,16632,5
-93,-58,39,11096,24414,33337,22292,16499,5
20,14,-1,11060,23987,32899,22053,16109,5
71,7,6,11024,23569,32271,21563,15837,5
150,32,15,10915,23044,31244,20961,15475,5
24,-111,57,10879,22731,30622,20535,15089,5
-50,-202,146,10879,22576,30347,20495,13468,5
31,-48,-11,10927,22248,29716,20019,13040,5
117,26,2,10927,22183,25415,18544,12959,5
-162,33,-9,10891,22205,25019,18526,13013,5
-17,-115,25,10855,22161,27472,20595,13357,5
-224,-219,59,10903,22488,28898,21839,13357,5
-210,-81,87,10963,23044,29568,22401,12556,5
-114,-41,37,10867,23294,29865,22357,12280,5
-20,-34,0,10819,23477,29984,22161,12176,5
-13,4,5,10748,23638,30256,22205,12112,5
60,-41,-9,10676,23730,29984,22226,11881,5
42,25,-9,10629,23661,29746,21989,11754,5
79,60,-41,10594,23824,29805,21989,11453,5
53,13,-3,10594,23754,29865,21903,11243,5
22,5,-8,10535,23824,29746,21860,11206,5
39,54,4,10570,23661,29657,21882,11060,5
-12,16,39,10594,23499,29686,21839,10963,5
-7,139,28,10523,23454,29362,21733,10963,5
-11,66,25,10499,23362,29391,21648,11012,5
45,58,37,10535,23271,29450,21584,10987,5
4,34,20,10499,23385,29333,21606,11024,5
4,17,-6,10499,23339,29304,21627,10963,5
4,38,-2,10582,23339,29304,21542,10975,5
-37,-100,-9,10499,23248,29274,21354,11072,5
-18,-1,-40,10535,23316,29158,21375,11060,5
17,-11,11,10511,23225,29333,21312,11060,5
17,-15,-3,10582,23339,29158,21312,11072,5
18,-41,26,10594,23271,29216,21333,11072,5
-66,-43,23,10676,23248,29274,21312,11060,5
-36,23,41,10771,23271,29304,21395,11060,5
-43,-8,27,10927,23203,29274,21395,10963,5
-7,40,12,10963,23294,29187,21250,11012,5
52,60,-4,10903,23157,29245,21395,10975,5
85,-4,-19,10915,23294,29274,21395,10927,5
139,50,-52,10688,23248,29129,21416,10915,5
15,-9,-20,10712,23248,29304,21291,10987,5
66,-8,34,10700,23180,29216,21458,10963,5
-58,-16,13,10676,23203,29274,21312,10891,5
32,72,70,10700,23022,28869,20315,10771,5
-39,-22,50,10676,22932,28955,20535,10748,5
-73,-17,130,10688,22932,28984,20818,10748,5
-83,-152,108,10629,22932,29158,21146,10688,5
-123,-38,36,10653,23022,29042,21043,10783,5
9,-64,-42,10700,23044,29245,21043,10700,5
334,-5,-188,10629,22955,29187,21043,10688,5
-47,-17,-77,10676,23022,29304,21146,10724,5
-141,7,49,10987,23044,29158,21084,10748,5
11,70,1,11478,23112,29304,20961,10676,5
19,33,-2,11766,23067,29391,21064,10748,5
-123,5,3,12112,23135,29421,21043,10688,5
20,57,-14,12690,23225,29805,21022,10771,5
-94,4,18,12959,23385,29865,21043,10795,5
-137,6,3,13040,23248,29865,21043,10712,5
-46,14,25,12905,23294,29865,21125,10700,5
-159,-19,73,12797,23203,29657,21208,10771,5
-96,8,51,12649,23203,29627,21064,10771,5
-52,-5,27,12320,23225,29568,21002,10771,5
-13,-8,-15,12009,23157,29509,21002,10688,5
64,-5,-49,11868,23112,29509,21002,10771,5
7,24,-28,11817,23067,29333,20879,10748,5
-30,5,-4,11766,23157,29391,20879,10759,5
47,25,2,11817,23067,29421,20859,10771,5
10,13,-2,11792,23112,29245,20798,10748,5
23,-36,-3,11728,23044,29304,20818,10700,5
17,-18,25,11628,23157,29362,20859,10724,5
-107,41,44,11665,23135,29304,20737,10724,5
5,-13,-24,11615,23112,29216,20737,10771,5
3,3,22,11628,23112,29304,20838,10771,5
8,-6,22,11653,23044,29304,20859,10807,5
-18,19,-14,11665,23180,29187,20818,10807,5
-24,1,-22,11603,23112,29333,20818,10783,5
-28,-6,16,11603,23203,29245,20737,10771,5
3,11,-34,11553,23180,29216,20737,10771,5
-1,11,-29,11453,23112,29391,20818,10819,5
48,1,-18,11366,23112,29333,20716,10748,5
9,17,24,11354,23203,29391,20818,10783,5
3,16,0,11354,23112,29274,20818,10748,5
12,4,-1,11354,23203,29187,20798,10783,5
-33,109,5,11317,23157,29333,20838,10819,5
-9,13,5,11255,23180,29216,20777,10819,5
7,-2,-23,11255,23157,29216,20716,10771,5
10,-70,-10,11255,23203,29274,20838,10748,5
1,-12,23,11280,23090,29421,20716,10795,5
38,33,2,11243,23157,29304,20716,10843,5
-22,-3,-21,11170,23135,29304,20818,10819,5
43,2,-10,11133,23112,29274,20757,10783,5
41,-2,23,11157,23112,29304,20737,10795,5
37,49,0,11109,23112,29333,20777,10819,5
-30,29,-32,11145,23112,29245,20696,10771,5
-24,-45,-28,11109,23112,29333,20676,10771,5
-23,43,-8,11084,23157,29100,20636,10819,5
-28,140,-3,11072,23157,29129,20716,10771,5
21,-56,-47,11072,23044,29129,20656,10843,5
1,0,-8,11060,23112,29216,20676,10855,5
-2,-10,38,11072,23157,29304,20636,10879,5
-1,-26,-84,11072,23180,29158,20595,10843,5
20,-29,-21,11036,23067,29158,20636,10879,5
3,32,42,11109,23180,29216,20716,10819,5
-96,35,72,11072,23112,29245,20656,10903,5
-28,-40,-52,11109,23067,29274,20575,10831,5
2,-11,33,11072,23067,29216,20555,10915,5
47,-2,6,11024,23067,29187,20555,10843,5
-27,14,-46,11036,23135,29158,20676,10879,5
11,-15,-22,11072,23090,29304,20696,10867,5
-75,22,21,11060,23135,29274,20636,10987,5
54,-48,-57,11036,23044,29042,20615,10879,5
23,-131,12,11121,22977,28955,20595,11024,5
-16,73,27,11157,22932,28612,20575,11060,5
14,-45,-43,11292,22665,28301,20535,11024,5
181,-143,-24,11304,22313,27691,21312,11243,5
36,-47,-46,11379,22183,27364,22075,11219,5
141,38,-41,11366,22075,27202,22599,11317,5
20,-19,3,11403,22096,27175,22532,11354,5
31,41,7,11465,22053,27148,22488,11268,5
2,-49,-30,11403,21989,27581,22488,11268,5
-36,-61,2,11440,22053,27202,22140,11366,5
67,57,-36,11403,21967,27445,22161,11354,5
1,-51,-16,11440,21903,27391,21989,11553,5
46,20,30,11453,21967,27337,21882,11603,5
62,40,10,11453,21903,27364,21882,11565,5
-43,-141,97,11428,22053,27148,22226,11206,5
63,27,26,11428,21967,27391,22075,10867,5
-19,26,52,11403,21989,27499,21989,10867,5
-137,-35,92,11366,21946,27256,21818,10843,5
-51,-48,23,11366,21839,27095,21479,10819,5
-60,-6,30,11354,21711,26935,21208,10748,5
59,24,-11,11304,21627,26855,21250,10783,5
-4,25,3,11317,21627,26697,21146,10748,5
90,31,6,11354,21711,26802,21250,10783,5
109,39,-13,11354,21648,27095,21250,10783,5
-24,-22,-1,11304,21669,26961,21270,10795,5
81,-16,-32,11317,21711,26935,21312,10771,5
60,79,-59,11304,21690,26988,21208,10819,5
46,-74,-65,11255,21711,26935,21229,10891,5
46,-63,-86,11304,21711,26988,21167,10831,5
4,-53,-31,11255,21711,27041,21229,10891,5
-59,-58,1,11268,21648,27015,21312,10879,5
-23,15,19,11206,21648,26908,21291,10843,5
-22,81,44,11182,21882,27581,21542,10795,5
82,124,-93,11157,22270,27911,22709,10963,5
-32,-218,-79,10987,22576,28385,23339,11133,5
76,-163,-32,10975,22665,28357,23022,11243,5
41,51,-57,10963,22687,28470,23225,11206,5
-6,11,-29,10951,22665,28329,23203,11354,5
-133,11,94,10927,22731,28385,23067,11219,5
-60,-148,165,10927,22754,28357,23225,11060,5
-38,-100,169,10963,22955,28726,23022,10927,5
-86,18,72,10963,23112,29071,22955,10891,5
-99,22,108,10963,22932,28697,22776,10891,5
78,34,-25,10975,22999,28697,22754,10843,5
26,-34,96,10951,22932,28527,22665,10771,5
-15,75,61,10963,23044,28726,22643,10748,5
91,86,-10,10963,23294,29071,22665,10748,5
-34,34,9,10891,23316,29274,22731,10891,5
28,109,28,10867,23362,29362,22554,10891,5
-63,24,-12,10819,23385,29274,22599,10891,5
8,-46,-31,10819,23248,29071,22292,11012,5
-66,47,-17,10795,23339,28927,22226,11024,5
48,5,11,10759,23316,28726,22075,10975,5
42,-13,-28,10771,23180,28869,22226,11109,5
34,-81,-50,10748,23225,28754,22183,11182,5
71,-15,7,10771,23135,28812,22140,11133,5
14,-10,-52,10771,23271,28840,22183,11157,5
33,-95,-34,10759,23271,28869,22140,11515,5
31,-66,-44,10807,23225,28955,22075,11465,5
-14,-59,15,10748,23248,28955,22140,11490,5
63,-34,-14,10783,23203,28726,22205,11478,5
5,22,13,10783,23157,28898,22053,11503,5
-8,21,4,10759,23157,28927,22075,11565,5
-54,103,7,10783,23225,28927,22183,11578,5
-45,-56,-25,11048,23271,28726,22183,11615,5
9,1,-4,10771,23157,28812,22053,11653,5
3,27,-9,10783,23203,28812,22161,11741,5
-32,-29,-1,10795,23135,28840,22140,11728,5
12,-16,90,10795,23180,28840,22226,11553,5
-66,16,-15,10783,23135,28812,22248,11354,5
29,-49,-38,10783,23135,28726,22401,11072,5
44,-51,71,10771,23157,28726,22423,10867,5
33,-11,7,10748,23157,28726,22423,10831,5
36,26,-54,10783,23180,28754,22313,10879,5
-40,32,14,10783,23112,28812,22313,10867,5
30,15,-19,10783,23135,28869,22270,10867,5
8,5,-19,10771,23112,28726,22248,10879,5
-2,16,0,10771,23180,28840,22270,10867,5
8,27,-17,10783,23135,28726,22226,10867,5
36,33,-20,10783,23203,28812,22226,10927,5
42,2,-26,10783,23135,28840,22183,10963,5
-4,-2,-1,10783,23135,28927,22226,10963,5
-23,3,0,10783,23135,28927,22226,10963,5
14,-3,-3,10783,23203,28927,22270,10939,5
4,-15,-31,10783,23135,28783,22183,10987,5
-2,-6,13,10771,23203,28812,22226,11012,5
-25,-9,12,10795,23248,28869,22140,11096,5
-24,-3,18,10783,23203,28812,22140,11072,5
16,16,-16,10819,23157,28840,22226,11157,5
-11,-11,-6,10795,23112,28754,22161,11157,5
-47,5,16,10795,23135,28726,22096,11157,5
23,7,-14,10783,23180,28898,22096,11157,5
2,7,-6,10819,23225,28869,22226,11219,5
-6,11,-3,10819,23203,28812,22075,11206,5
-8,-14,1,10748,23157,28726,22161,11206,5
-19,3,0,10783,23180,28754,22140,11121,5
10,12,8,10819,23135,28812,22118,11170,5
-14,1,4,10807,23203,28754,22096,11231,5
17,-5,2,10771,23203,28783,22075,11170,5
-26,-7,6,10771,23135,28783,22183,11268,5
43,-12,-2,10807,23203,28898,22140,11243,5
-1,22,7,10783,23157,28927,22161,11255,5
1,3,-5,10783,23203,28927,22053,11255,5
10,19,30,10795,23157,28898,22096,11317,5
58,-12,15,10795,23135,28869,22053,11206,5
25,-64,11,10771,23180,28754,22140,11219,5
57,0,-19,10795,23203,28754,22096,11084,5
-10,-21,17,10771,23203,28726,22075,11121,5
-44,-28,16,10771,23112,28869,22075,11157,5
-26,-24,21,10783,23203,28726,22226,11157,5
39,-9,29,10795,23157,28783,22205,11182,5
21,67,12,10771,23203,28754,22183,11121,5
18,-6,30,10819,23203,28726,22183,11157,5
-13,-75,-27,10795,23112,28869,22183,11206,5
-22,28,3,10795,23157,28783,22183,11170,5
19,18,-22,10831,23157,28726,22140,11243,5
17,-1,3,10843,23135,28754,22096,11231,5
11,-9,-1,10843,23112,28812,22161,11255,5
-10,13,-16,10831,23180,28726,22140,11304,5
-7,10,16,10867,23180,28812,22096,11354,5
-30,-56,-30,10867,23180,28812,22075,11379,5
9,30,1,10843,23180,28812,22053,11317,5
4,19,7,10843,23157,28869,22096,11403,5
-10,-6,-2,10843,23203,28840,22096,11354,5
12,-19,15,10867,23135,28927,22118,11453,5
23,40,-11,10867,23203,28812,22096,11403,5
-28,12,4,10867,23203,28812,22118,11615,5
-2,-25,-24,10891,23203,28869,22053,11553,5
5,11,14,10879,23203,28927,22053,11615,5
8,-1,8,10879,23157,28898,22096,11653,5
1,-15,-19,10891,23135,28898,22140,11665,5
5,12,1,10879,23203,28812,21989,11754,5
-27,-5,11,10879,23225,28840,22140,11603,5
15,15,-22,10927,23180,28812,22032,11615,5
6,3,8,10915,23112,28840,22096,11640,5
4,2,-20,10915,23112,28812,21989,11653,5
17,-31,-23,10927,23225,28812,21989,11703,5
20,-1,-1,10915,23135,28898,22075,11653,5
25,-50,-13,10915,23203,28812,22075,11678,5
-1,20,14,10927,23203,28869,22096,11603,5
-15,10,25,10915,23157,28812,21989,11703,5
-30,2,-25,10915,23135,28840,22075,11628,5
12,3,-9,10891,23203,28812,21967,11703,5
27,7,-8,10915,23203,28812,22053,11678,5
3,-12,-23,10915,23203,28783,22053,11615,5
3,-24,-20,10927,23203,28955,21967,11766,5
-2,-5,-3,10927,23112,28840,21967,11754,5
-13,22,26,10927,23135,28812,21989,11766,5
19,-23,-8,10915,23135,28812,21967,11678,5
5,35,-7,10879,23157,28812,21989,11754,5
3,-5,-1,10879,23135,28812,22053,11678,5
0,32,-8,10915,23157,28927,21989,11754,5
17,26,6,10903,23135,28927,21989,11804,5
-14,42,15,10915,23135,28840,22053,11678,5
-25,8,-3,10879,23135,28812,21989,11804,5
23,-13,-13,10915,23157,28927,22053,11678,5
-9,-2,-5,10915,23203,28783,21967,11754,5
-1,9,-5,10927,23112,28812,21946,11716,5
11,-4,5,10915,23203,28898,21989,11728,5
22,-26,-12,10915,23203,28812,21967,11804,5