GyroX,GyroY,GyroZ,Thumb,Index,Middle,Ring,Pinky,Gesture
-36,-53,17,22687,27041,12280,11957,10843,1
9,1,29,22709,26988,12320,11932,10867,1
75,-14,-32,22709,26935,12320,11919,10867,1
4,85,-9,22687,26908,12320,11932,10867,1
22,25,-9,22554,26829,12293,11906,10855,1
-8,-9,8,22554,26749,12320,11919,10843,1
-8,-2,11,22532,26723,12306,11906,10831,1
-8,0,-7,22576,26670,12320,11932,10831,1
-4,26,7,22554,26618,12306,11906,10867,1
-124,24,-40,22576,26461,12060,11881,10795,1
36,154,133,22335,25945,11503,11728,10748,1
31,41,147,21903,25616,11280,11653,10676,1
-56,265,254,21229,25591,11219,11603,10688,1
2,220,145,20475,25415,11231,11590,10676,1
85,22,30,20117,25415,11292,11565,10676,1
368,-15,-68,20019,25390,11206,11553,10653,1
256,-110,31,19960,25390,11206,11528,10676,1
284,-51,-86,19766,25440,11231,11528,10653,1
149,-43,19,19689,25390,11317,11528,10664,1
174,33,62,19708,25390,11280,11553,10641,1
420,-105,-112,19689,25291,11317,11515,10641,1
472,-11,-222,19689,25291,11366,11565,10641,1
179,-85,1,19805,25291,11478,11578,10700,1
422,-293,-236,19843,25291,11842,11603,10712,1
-28,-48,6,19863,25192,11842,11653,10724,1
-48,5,-32,19785,25192,11855,11628,10724,1
51,2,-14,19689,25192,11792,11603,10688,1
-139,-67,-19,19650,25142,11754,11578,10676,1
-87,16,52,19689,25616,11665,11515,10676,1
-384,188,129,19785,25565,11528,11528,10629,1
-400,102,174,19766,25390,11354,11515,10641,1
-53,32,80,19727,25216,11304,11478,10605,1
-50,36,43,19708,25192,11317,11503,10605,1
46,49,-13,19631,25093,11317,11478,10629,1
75,-32,6,19592,25118,11416,11503,10629,1
34,33,32,19999,25192,11766,11515,10629,1
30,-23,-19,20636,25192,12021,11553,10629,1
-30,21,140,22665,25490,12878,11615,10688,1
139,-86,19,26357,26618,14681,11830,10664,1
26,143,22,27445,26908,14711,11855,10688,1
-106,136,75,31119,27828,15584,12073,10676,1
287,172,-39,33168,28245,15964,12267,10676,1
-157,19,83,32932,28189,16483,12411,10653,1
-451,-63,204,32435,28022,17272,12690,10688,1
94,80,22,32932,28022,17862,13163,10688,1
274,-68,-88,36767,27911,17933,13287,10641,1
311,-79,-94,37701,28301,18272,13538,10676,1
180,-167,-82,38100,29158,18272,13693,10653,1
155,-160,16,38463,29568,18147,13778,10664,1
76,3,-30,38059,29568,17722,13792,10653,1
47,-65,-37,37940,29158,17289,13693,10653,1
2,-152,-26,38059,28984,16815,13622,10676,1
-114,-100,41,38019,28898,16254,13524,10676,1
-181,-15,38,37543,28583,15366,13095,10688,1
-50,87,1,36386,28385,14503,12716,10688,1
26,46,44,35639,28245,13636,12346,10700,1
-144,90,44,34731,27883,12851,12112,10664,1
-74,38,30,34624,27828,12372,11983,10688,1
-142,19,24,34518,27828,12372,11970,10688,1
-67,217,34,34200,27581,12636,12009,10688,1
45,12,-9,34130,27499,12770,12009,10700,1
59,128,-17,34130,27581,12918,12060,10676,1
36,153,-33,34200,27581,12743,12034,10688,1
87,74,-48,34624,27828,12730,12034,10688,1
88,64,-25,34026,27800,12730,12060,10736,1
24,49,-38,33576,27663,12730,12047,10688,1
-53,19,-7,33887,27499,12797,12047,10676,1
-53,-44,2,34271,27202,12810,12021,10724,1
-15,20,-27,34165,27068,12959,11983,10688,1
35,21,-32,34200,27148,13315,12021,10688,1
40,-11,-18,33887,27041,13384,12009,10676,1
69,-5,11,33852,26988,13482,12021,10676,1
58,53,12,33991,27015,13510,12009,10676,1
-18,41,13,33783,27015,13524,12047,10688,1
-27,-4,-1,33645,26988,13636,12009,10653,1
-20,-8,-27,33576,26988,13608,12034,10676,1
5,-103,-36,33748,26935,13580,12021,10641,1
23,-118,-4,33921,26855,13566,12034,10688,1
102,-66,-28,33991,26855,13510,12034,10688,1
42,53,-51,34026,26855,13580,12047,10676,1
40,166,-32,34026,26618,14007,12009,10688,1
-81,140,-50,33714,26461,14444,12060,10688,1
-89,117,10,33337,26409,14518,12086,10676,1
69,-25,-32,32899,26331,14547,12112,10700,1
-120,-19,47,31752,26099,14786,12073,10688,1
-90,40,28,30499,25894,15242,12163,10748,1
-110,70,37,29100,25818,15397,12163,10700,1
24,104,7,27883,25591,15600,12189,10724,1
-44,28,7,26566,25390,15584,12176,10724,1
-49,67,-6,25390,25341,15600,12215,10724,1
-49,-25,1,24751,25515,15948,12254,10748,1
-174,-175,-5,24176,25565,16206,12280,10748,1
-125,-48,44,23684,25666,16125,12293,10771,1
-81,23,56,22709,25490,14952,12176,10771,1
79,115,-13,21711,25118,13580,11932,10724,1
32,20,-24,21002,24946,12756,11779,10676,1
82,63,16,20757,24873,12543,11779,10688,1
40,-55,-13,20716,24824,12451,11766,10688,1
56,17,-15,20636,24751,12333,11766,10700,1
78,-14,-47,20636,24751,12267,11728,10688,1
-63,38,8,20676,24702,12346,11754,10700,1
-175,18,35,20716,24702,12372,11754,10700,1
-91,-2,38,20716,24799,12477,11766,10688,1
-77,-26,32,20737,24824,12649,11766,10688,1
-116,98,1,20716,24848,12690,11779,10688,1
-73,-22,-11,20798,24824,12797,11779,10688,1
28,-46,12,20757,24848,12851,11754,10676,1
71,-12,-32,20798,24824,12797,11754,10676,1
-10,35,-25,20798,24824,12810,11741,10688,1
-78,0,-1,20757,24799,12810,11754,10676,1
-10,-30,16,20676,24799,12810,11741,10688,1
34,-6,-31,20716,24799,12797,11754,10688,1
35,69,14,20575,24751,12797,11728,10676,1
37,3,-18,20737,24751,12797,11716,10641,1
94,-3,-50,20636,24751,12810,11703,10629,1
83,45,-6,20716,24678,12810,11703,10629,1
106,166,-8,21563,24630,12797,11691,10629,1
33,116,1,20555,24582,12783,11665,10582,1
118,-2,-10,20415,24534,12783,11665,10594,1
268,109,55,20256,24558,13027,11665,10546,1
338,117,-27,20176,24510,13095,11665,10535,1
-84,4,13,20078,24414,13027,11653,10535,1
43,77,2,20098,24414,13040,11653,10535,1
163,-71,-54,19999,24414,13068,11653,10535,1
-112,-105,8,20256,24438,13122,11653,10546,1
25,-71,11,19999,24390,13136,11653,10488,1
14,25,-15,20196,24366,13095,11640,10511,1
68,-12,-30,20157,24366,13040,11603,10499,1
61,39,7,20078,24342,12905,11565,10499,1
75,70,-20,20117,24342,12690,11565,10499,1
72,135,-54,19902,24223,12477,11578,10488,1
-11,175,7,19766,24081,12267,11603,10499,1
-393,20,42,19612,23917,12099,11603,10499,1
-252,-27,-38,19249,23754,11970,11628,10488,1
-19,96,-1,19043,23730,11868,11653,10535,1
405,122,-5,19005,23730,11804,11603,10499,1
375,254,10,18912,23684,11804,11653,10511,1
45,-3,9,18931,23684,11804,11628,10499,1
-107,-115,57,18894,23638,11830,11615,10523,1
-119,-41,61,18931,23638,11881,11653,10511,1
-141,-136,23,18931,23638,12215,11653,10499,1
76,-7,-5,19024,23707,12320,11653,10535,1
93,10,-7,19024,23638,12346,11628,10546,1
186,15,-3,18987,23661,12438,11665,10535,1
122,57,-31,18987,23684,12530,11653,10582,1
62,4,-21,19306,23754,12756,11628,10558,1
-45,-75,14,19193,23754,12783,11603,10558,1
-151,-117,31,19231,23777,12851,11603,10629,1
43,-51,6,19193,23777,12959,11603,10629,1
104,53,-25,19174,23777,13027,11603,10664,1
86,109,-52,19231,23777,12972,11603,10688,1
-22,-84,-37,19306,23754,12959,11565,10688,1
73,-28,-20,19231,23754,12824,11578,10700,1
109,-11,-56,19231,23615,12690,11565,10688,1
-45,5,-2,19306,23615,12556,11578,10653,1
36,71,-8,19306,23569,12504,11553,10676,1
75,108,-55,19287,23638,12477,11590,10676,1
82,-9,-67,19382,23661,12451,11565,10676,1
-11,25,26,19458,23638,12464,11628,10700,1
-259,-63,5,19458,23661,12464,11628,10629,1
-65,19,63,19535,23661,12543,11565,10641,1
-150,-39,93,19592,23569,12543,11553,10594,1
-43,29,109,19458,23569,12543,11553,10594,1
-33,44,42,19382,23454,12517,11528,10558,1
2,129,7,19344,23522,12504,11528,10570,1
-20,63,57,19306,23522,12530,11553,10558,1
26,14,6,19155,23477,12649,11603,10570,1
-124,9,24,19099,23499,12676,11603,10546,1
-25,15,26,19155,23499,12636,11603,10546,1
168,69,8,19043,23477,12346,11615,10558,1
211,148,-41,18838,23431,11983,11553,10546,1
140,28,-51,18727,23316,11881,11565,10535,1
145,-79,-64,18783,23316,11830,11565,10535,1
-16,0,-12,18801,23316,11766,11553,10535,1
50,-60,-10,18783,23294,11665,11565,10570,1
57,29,-5,18727,23180,11603,11540,10558,1
-21,-16,6,18987,23203,11578,11528,10535,1
-2,-51,-33,19155,23203,11603,11515,10546,1
57,-1,23,19249,23225,11603,11540,10546,1
130,20,-5,19287,23225,11817,11528,10535,1
87,32,23,19212,23203,12009,11528,10535,1
76,32,14,19193,23248,12438,11603,10594,1
-9,1,-8,19174,23294,12504,11603,10676,1
-37,-5,-16,19136,23385,12797,11678,10771,1
-15,40,11,19080,23385,12756,11766,10867,1
39,18,-26,19099,23431,12703,11804,10879,1
131,56,-75,19099,23431,12743,12021,11072,1
-45,-19,-13,19174,23431,12905,12610,11754,1
55,-37,-19,19174,23499,12905,12797,11855,1
29,10,-33,19231,23499,12959,12891,11881,1
7,1,-21,19249,23431,13054,13343,12124,1
-54,-39,-13,19306,23522,13122,13246,12021,1
-13,-37,4,19458,23477,13150,13274,11906,1
25,6,-19,19458,23477,13150,13027,11678,1
11,10,-10,19631,23569,13081,12743,11403,1
15,99,-17,19805,23569,13040,12530,11157,1
-81,56,-6,19612,23592,12905,12124,10963,1
-3,99,12,19535,23522,12797,11855,10867,1
87,71,-5,19535,23522,12716,11754,10783,1
25,6,75,19573,23316,12610,11665,10724,1
96,84,48,19497,23248,12346,11653,10724,1
-80,23,28,19363,23180,12215,11603,10676,1
5,41,14,19477,23203,12215,11603,10641,1
28,76,26,19306,23248,12215,11578,10582,1
-109,56,18,19249,23157,12215,11565,10594,1
-80,-19,14,19231,23203,12215,11578,10582,1
-40,5,24,19193,23157,12215,11553,10594,1
8,59,24,19005,23112,12150,11565,10570,1
9,41,16,19024,23135,12086,11553,10535,1
-12,-4,17,19080,23180,12099,11553,10535,1
59,54,20,19080,23112,12112,11553,10499,1
151,79,-22,18987,23090,12112,11578,10511,1
53,43,12,18949,23090,12150,11615,10523,1
-99,39,24,18875,23112,12163,11578,10535,1
-92,-62,21,18838,23112,12228,11565,10546,1
125,37,0,18801,23022,12215,11603,10535,1
21,30,-16,18838,23044,12228,11603,10546,1
-59,33,3,18801,23067,12228,11628,10535,1
152,88,-26,18783,23090,12176,11628,10511,1
131,92,-43,18709,23067,12112,11653,10535,1
38,-115,46,19708,23203,12241,11653,10535,1
86,-25,44,21563,23385,13040,11779,10546,1
136,-78,-54,23294,23800,14166,12060,10535,1
100,-39,4,24271,24223,14861,12228,10523,1
29,-45,127,25641,24510,14846,12176,10535,1
-59,-1,26,24921,24294,14238,12060,10535,1
-158,89,121,24702,24223,13468,11868,10535,1
116,-53,-33,24058,24199,12215,11653,10546,1
-121,123,-16,23569,24129,11728,11590,10546,1
-24,-25,-57,22955,24058,11515,11503,10511,1
8,99,-33,22379,23987,11503,11453,10546,1
-23,109,-7,21796,23964,11628,11416,10594,1
43,71,-26,21458,23987,11515,11416,10582,1
41,9,13,21084,23964,11553,11440,10594,1
52,-20,-22,20961,23940,11868,11453,10594,1
125,25,-15,20818,23917,12060,11478,10653,1
-153,-16,5,20879,24129,13287,11678,10748,1
-30,-55,-17,21064,24223,14562,12112,10867,1
156,-40,-10,20961,24366,14651,12530,11060,1
21,-6,-17,20899,24342,14370,12477,11060,1
-36,2,-28,20737,24366,13679,12293,10975,1
-44,-22,-27,20716,24247,13594,12215,10927,1
-41,-78,24,20676,24318,13566,12163,10915,1
61,0,35,20575,24342,13412,12009,10819,1
35,-25,11,20555,24247,13315,11970,10783,1
97,30,-17,20495,24223,13218,11932,10783,1
54,43,-30,20435,24199,13013,11868,10748,1
68,30,-3,20315,24152,12424,11804,10748,1
-11,33,18,20395,24034,12137,11754,10748,1
-60,-17,9,20395,24034,12047,11665,10748,1
112,68,-17,20335,23987,11957,11665,10724,1
-2,-8,-31,20275,23964,11919,11628,10688,1
-138,-22,-5,20216,23917,11893,11553,10641,1
73,78,-33,20157,23894,11868,11465,10605,1
2,8,8,20157,23847,11868,11453,10582,1
179,-64,94,22576,24034,12490,11440,10535,1
69,-107,8,24606,24294,13806,11453,10594,1
155,27,-42,26099,24678,14093,11490,10582,1
172,43,-34,27175,25167,13964,11503,10546,1
72,56,-52,27856,25996,14151,11453,10535,1
-111,-43,48,28385,26409,14607,11453,10558,1
55,-45,-34,28583,26829,14786,11465,10546,1
27,-2,-36,28927,27068,14696,11453,10558,1
99,76,-65,28583,27068,14370,11453,10582,1
92,34,-51,28754,27068,13693,11453,10558,1
-27,20,25,28049,27068,13122,11403,10582,1
88,34,-1,27418,26855,12490,11354,10594,1
24,63,1,26855,26855,12163,11354,10535,1
-113,-15,39,26566,26776,12073,11379,10570,1
69,41,-31,26513,26855,11957,11317,10546,1
10,20,-13,26513,27283,11881,11354,10582,1
40,30,-32,26305,27554,11868,11317,10570,1
-31,-2,-16,26202,27828,11817,11304,10582,1
-24,67,-20,25691,28133,11830,11292,10558,1
-46,14,-26,25192,28442,11817,11268,10558,1
-125,22,-35,24630,28669,11754,11280,10546,1
-112,97,-57,24152,28869,11578,11304,10558,1
68,-36,-23,24058,28984,11640,11280,10582,1
8,-11,-18,23870,28927,11515,11268,10535,1
-63,-63,-3,23522,29071,11465,11268,10558,1
-130,-203,18,23661,29245,11528,11268,10546,1
7,38,-18,21542,29450,11615,11219,10594,1
-15,5,-13,20899,29421,11653,11268,10535,1
-43,50,-14,20777,29304,11716,11255,10535,1
36,30,4,20879,29274,11728,11255,10546,1
39,-104,11,20981,28869,11716,11243,10546,1
61,-98,-4,20899,28697,11665,11268,10535,1
9,76,-27,20716,28697,11703,11231,10594,1
12,4,6,20961,29071,11804,11255,10594,1
-54,29,-12,20757,29391,11957,11255,10523,1
-3,6,-1,20495,29333,11970,11255,10582,1
-26,47,8,20415,29421,12047,11255,10511,1
-40,110,-7,20335,29479,12124,11231,10582,1
14,-2,-12,20236,29391,12163,11219,10594,1
-13,-27,5,20078,29333,12137,11268,10582,1
-17,17,19,19921,29304,12124,11255,10558,1
-28,4,23,19843,29304,12021,11219,10570,1
-20,-9,8,19863,29304,12009,11231,10582,1
3,18,4,19631,29187,12047,11268,10558,1
-25,-20,-1,19592,29158,12060,11268,10535,1
-43,15,-6,19592,29013,12060,11219,10535,1
2,38,-17,19631,29042,12060,11219,10558,1
-8,-8,-17,19612,28898,12060,11243,10546,1
-12,6,-6,19766,28754,12112,11255,10582,1
43,86,2,20636,28697,12254,11243,10594,1
33,-89,35,22096,28869,12690,11268,10546,1
-27,-45,23,23090,28927,13315,11268,10535,1
-1,-32,8,23112,28640,13679,11243,10570,1
24,47,7,23022,28301,13679,11255,10582,1
27,41,-26,22754,28161,13778,11268,10546,1
-43,87,-11,22423,28133,13906,11231,10558,1
74,63,-3,22687,28022,13849,11255,10546,1
65,-41,1,23180,28301,13679,11255,10546,1
78,-37,-13,23569,28555,13566,11231,10558,1
8,-9,-4,23499,28612,13510,11243,10546,1
39,-28,-5,23499,28812,13510,11366,10582,1
27,21,-18,23522,28754,13552,11268,10558,1
40,-20,-18,23385,28783,13566,11231,10499,1
21,-36,-6,23615,28927,13622,11268,10535,1
51,-27,-21,23569,28812,13707,11255,10558,1
-55,-52,-2,23385,28697,13707,11255,10582,1
-79,-82,-2,23569,28812,13622,11280,10582,1
-42,-60,40,23248,28527,13510,11255,10535,1
-33,-121,55,23316,28301,13468,11268,10535,1
-24,-88,59,23362,27966,13315,11268,10535,1
-56,-312,152,23090,27175,13054,11255,10582,1
-134,-172,66,22621,26776,12972,11255,10570,1
-93,-96,41,22096,26331,12851,11268,10546,1
-129,-142,107,21648,25843,12596,11304,10582,1
-6,-108,56,21416,25440,12530,11317,10546,1
-107,-29,31,21542,25291,12504,11268,10546,1
-8,-25,2,21627,25093,12438,11268,10546,1
15,-108,37,21903,24921,12424,11304,10582,1
-67,-9,14,22183,24897,12385,11268,10558,1
-291,-160,-10,21989,24702,12228,11317,10546,1
-3,-36,-9,21105,24271,11703,11255,10582,1
14,11,7,20899,24271,11553,11255,10535,1
126,45,-34,20676,24223,11653,11255,10582,1
68,37,-14,20716,24223,11565,11268,10582,1
13,-41,7,20716,24176,11678,11280,10582,1
-3,-27,14,20777,24247,11653,11255,10582,1
17,13,1,20716,24223,11703,11268,10582,1
7,3,-7,19843,24034,11578,11231,10582,1
6,-30,-47,17323,23661,11317,11268,10523,1
-2,58,-10,15553,23499,11157,11255,10582,1
25,45,-20,15150,23522,11133,11255,10546,1
49,28,-22,15584,23569,11121,11304,10546,1
37,3,-16,16173,23661,11145,11280,10594,1
-34,-11,-1,15211,23569,11157,11255,10558,1
76,71,-39,14311,23522,11133,11255,10570,1
149,-11,-62,13964,23499,11109,11292,10558,1
24,64,-1,14021,23661,11182,11255,10546,1
-22,103,16,14064,23754,11133,11243,10546,1
-41,17,13,14108,23870,11157,11268,10582,1
-39,-12,7,14414,23894,11157,11255,10546,1
-75,1,-22,15647,24414,11255,11304,10546,1
-84,-7,47,15475,24414,11304,11292,10535,1
-20,-9,19,12176,24129,11304,11304,10535,1
-75,-44,-5,11855,23940,11304,11268,10535,1
-12,-12,-8,11868,23870,11304,11304,10570,1
-16,-4,-11,12124,23870,11304,11280,10535,1
39,43,-11,13122,23940,11379,11304,10535,1
-4,-16,3,13027,24081,11416,11317,10535,1
-18,-31,-12,14562,24751,11453,11304,10582,1
62,-45,3,16434,24873,11779,11317,10582,1
-67,-121,93,18931,25044,11906,11304,10535,1
-47,1,13,19573,24873,11653,11341,10546,1
0,-29,-21,23112,26022,14370,11416,10499,1
83,-16,-53,25591,26855,16352,11503,10499,1
8,-23,-47,26124,27283,17220,11703,10511,1
24,33,-40,25616,27256,17084,11665,10546,1
-83,78,-7,26697,27883,16949,11779,10558,1
11,7,-8,27554,28726,17118,11779,10546,1
-30,-2,-26,26855,28754,16731,11754,10535,1
7,-38,-9,26829,28840,16352,11766,10546,1
18,-18,9,25818,28783,16189,11754,10546,1
59,-42,10,25490,28583,16222,11728,10499,1
44,9,29,26253,28385,16303,11728,10511,1
51,-52,20,26618,28357,15837,11703,10582,1
46,18,26,26961,28301,14726,11628,10535,1
-16,-1,-25,27499,28245,13454,11503,10511,1
18,-20,-4,27256,28245,12663,11453,10535,1
81,29,-31,27068,28217,12241,11403,10582,1
-4,12,45,26644,28077,12009,11317,10511,1
-129,-20,13,26618,27911,12009,11317,10499,1
-59,52,7,26409,27800,11970,11341,10535,1
22,50,-45,26176,27828,11957,11341,10499,1
-21,57,-19,25920,27718,11906,11317,10546,1
9,104,-44,25767,27718,11868,11280,10546,1
27,112,12,25291,27256,11766,11268,10535,1
38,122,-36,24824,26723,11603,11304,10535,1
-62,66,2,24946,26461,11578,11268,10535,1
-90,-18,-20,25216,26228,11553,11255,10535,1
69,46,-35,25415,25793,11553,11268,10535,1
99,0,-7,25894,25616,11603,11280,10546,1
-48,52,0,25818,25616,11640,11255,10523,1
-156,-13,39,25793,25616,11653,11255,10546,1
-130,-15,44,25691,25616,11678,11280,10499,1
-26,2,29,25591,25616,11754,11304,10499,1
-30,94,23,25641,25591,11855,11255,10535,1
104,27,-8,25767,25591,11957,11268,10511,1
59,-11,3,25945,25415,12189,11317,10558,1
32,24,9,26022,25415,12280,11304,10499,1
56,46,10,25843,25316,12228,11317,10535,1
90,7,18,25920,25192,12073,11268,10511,1
95,-35,-15,25843,25142,12021,11317,10535,1
123,24,4,25691,25093,12034,11317,10546,1
-14,14,30,25465,24824,12034,11304,10546,1
29,16,24,25019,24606,12047,11292,10511,1
18,19,39,24799,24606,12009,11317,10535,1
6,62,-42,24630,24630,12009,11354,10511,1
-73,117,-65,24462,24558,11957,11317,10523,1
-232,96,-118,24247,24606,11919,11268,10535,1
-169,-12,5,24223,24534,11957,11317,10499,1
13,23,0,24129,24390,11932,11280,10499,1
-20,-12,38,23940,24129,11932,11280,10499,1
-71,-78,47,23684,23964,11944,11268,10453,1
12,-19,37,23477,23870,11957,11280,10453,1
-85,-74,19,23362,23800,11983,11268,10488,1
-24,-14,16,23112,23800,12009,11280,10488,1
29,73,2,23067,23777,12060,11304,10476,1
-34,-7,11,22843,23824,12112,11304,10511,1
22,-71,-45,22843,23870,12215,11304,10488,1
36,-30,23,23248,24034,12610,11317,10499,1
26,-87,64,23022,24129,13054,11304,10488,1
53,-22,3,22955,24152,13594,11317,10499,1
31,-81,-44,22599,24058,13454,11317,10499,1
90,2,23,22183,23940,13150,11329,10488,1
90,-92,18,22075,23964,13081,11304,10476,1
26,-1,66,21989,23987,13081,11329,10488,1
19,-4,77,21946,23940,13040,11354,10464,1
4,39,117,21903,24034,13027,11304,10488,1
30,-7,-5,22183,23940,12959,11354,10499,1
26,22,-35,22053,23964,12972,11317,10511,1
45,-6,-31,22096,23940,12959,11354,10511,1
4,-11,-8,22183,23987,12972,11317,10488,1
23,-31,15,22226,24034,12932,11341,10476,1
39,-32,-4,21989,23964,12959,11329,10441,1
-9,-16,14,22053,23964,12959,11317,10441,1
10,-7,-1,21989,23940,12918,11354,10453,1
20,41,23,21924,23940,12824,11304,10453,1
21,55,16,21733,24034,12770,11317,10499,1
-19,32,68,21796,24034,12743,11341,10499,1
-2,-50,-18,21903,23964,12743,11354,10535,1
-20,-13,-32,21903,24034,12743,11329,10511,1
4,-14,-13,21903,24011,12756,11354,10488,1
-31,3,3,21796,23987,12756,11354,10499,1
-5,18,6,21711,23940,12716,11354,10535,1
4,14,-2,21648,23940,12730,11354,10499,1
10,35,3,21563,23940,12716,11304,10511,1
-15,15,-4,21542,23987,12690,11354,10488,1
54,-48,-4,21521,23964,12716,11329,10453,1
17,-30,-5,21542,23964,12716,11354,10499,1
3,-30,-14,21542,24011,12703,11304,10453,1
5,-2,-1,21542,23940,12703,11341,10499,1
3,31,-21,21500,23964,12716,11341,10499,1
50,15,-24,21458,24034,12690,11354,10488,1
-18,-4,-27,21500,23987,12703,11341,10499,1
26,9,-10,21458,23987,12663,11329,10441,1
20,4,-9,21479,23987,12703,11329,10499,1
-16,14,-6,21437,24034,12690,11341,10488,1
10,0,2,21395,24058,12690,11354,10488,1
15,1,-16,21416,24034,12703,11329,10453,1
27,9,-2,21458,24129,12743,11304,10499,1
33,1,-15,21500,24058,12703,11317,10476,1
3,-1,7,21500,24129,12756,11379,10476,1
31,-3,1,21521,24105,12743,11366,10488,1
13,-5,4,21542,24058,12703,11317,10488,1
30,17,2,21521,24058,12703,11366,10488,1
6,1,9,21458,24105,12743,11379,10488,1
-33,26,-4,21416,24081,12743,11354,10488,1
17,-17,2,21458,24058,12756,11354,10488,1
-15,-21,-23,21458,24129,12703,11329,10488,1
10,-21,-22,21437,24129,12703,11329,10488,1
-7,-19,0,21437,24152,12743,11329,10499,1
11,18,-11,21458,24081,12716,11329,10511,1
27,0,1,21395,24152,12716,11354,10488,1
-4,-5,5,21395,24152,12756,11354,10499,1
1,-4,5,21416,24129,12743,11366,10464,1
9,-11,-24,21395,24129,12690,11366,10488,1
-15,-11,-15,21375,24129,12743,11304,10488,1
14,-20,1,21375,24152,12756,11329,10488,1
3,-33,16,21395,24129,12703,11366,10488,1
4,2,-1,21542,24105,12716,11366,10441,1
65,-47,11,21563,24034,12703,11366,10499,1
63,-121,3,21648,23940,12663,11379,10499,1
58,-87,-13,21860,23847,12690,11379,10499,1
73,-48,21,21733,23592,12703,11366,10488,1
13,-42,17,21542,23592,12703,11403,10499,1
-5,-23,19,21375,23477,12690,11391,10488,1
1,9,17,21291,23431,12663,11403,10488,1
-23,-37,12,21229,23316,12636,11354,10488,1
-23,9,5,21291,23339,12517,11354,10499,1
-4,19,-3,21208,23294,12267,11317,10499,1
-37,6,32,21375,23248,12215,11317,10499,1
9,19,1,21208,23271,12176,11341,10499,1
20,1,-16,20961,23180,12228,11354,10511,1
-4,-14,-10,20818,23157,12228,11304,10464,1
6,41,-1,20716,23203,12215,11304,10488,1
-9,32,15,20676,23248,12267,11354,10488,1
-12,9,2,20575,23294,12241,11317,10511,1
-5,-1,-8,20555,23248,12254,11354,10535,1
-10,14,-22,20495,23294,12241,11354,10488,1
15,-7,-17,20415,23294,12267,11317,10535,1
4,14,-9,20455,23271,12267,11304,10488,1
18,-10,3,20415,23316,12267,11354,10535,1
9,10,-6,20415,23316,12267,11366,10511,1
2,7,-4,20415,23316,12280,11366,10535,1
19,0,-26,20475,23316,12215,11354,10535,1
12,6,-9,20495,23294,12267,11317,10511,1
15,54,-9,20395,23431,12280,11329,10535,1
-1,-11,-3,20395,23385,12267,11341,10453,1
13,-13,5,20395,23408,12293,11354,10488,1
17,-15,3,20415,23385,12320,11304,10499,1
-8,-17,0,20395,23431,12346,11329,10488,1
6,-3,2,20415,23385,12293,11354,10499,1
-13,5,4,20395,23454,12280,11379,10499,1
-26,2,-3,20435,23431,12293,11329,10499,1
1,-27,-8,20435,23431,12320,11354,10488,1
10,-22,4,20435,23385,12320,11354,10464,1
17,-52,-5,20355,23339,12267,11329,10488,1
50,-63,-34,20395,23385,12280,11366,10476,1
92,-26,-60,20395,23408,12293,11317,10499,1
-1,-20,-52,20395,23431,12267,11354,10464,1
36,20,5,20435,23385,12293,11366,10499,1
34,39,-2,20475,23385,12280,11366,10499,1
-6,11,3,20495,23385,12320,11354,10488,1
-9,1,39,20515,23385,12320,11403,10523,1
-31,26,66,20615,23339,12385,11379,10546,1
201,-88,4,20676,23203,12504,11478,10546,1
136,-101,97,20395,22910,12293,11503,10546,1
64,-129,-48,19999,22798,11868,11453,10582,1
52,-7,-29,20019,22731,11804,11416,10546,1
-24,47,-28,20019,22665,11804,11453,10558,1
-257,88,-58,19960,22576,11881,11428,10582,1
-243,66,12,19960,22621,11983,11416,10535,1
-36,228,88,20019,22576,12346,11403,10535,1
-25,137,59,20098,22643,12756,11503,10535,1
-87,36,25,20078,22643,12783,11503,10511,1
25,4,33,19941,22643,12649,11503,10511,1
44,-41,-19,19882,22621,12543,11515,10499,1
20,60,6,19766,22621,12424,11503,10499,1
116,84,7,19650,22621,12359,11503,10499,1
194,-22,-64,19573,22665,12320,11465,10499,1
-42,50,-13,19573,22621,12280,11465,10499,1
-16,17,-34,19612,22621,12267,11453,10535,1
-16,27,-13,19689,22599,12189,11453,10523,1
-7,39,-2,19708,22665,12099,11416,10488,1
62,101,4,19708,22709,12060,11403,10535,1
-54,-26,30,19689,22754,12124,11453,10570,1
44,-66,2,19727,22776,12124,11465,10499,1
92,23,10,19669,22754,12112,11428,10511,1
25,6,-4,19650,22687,12163,11428,10499,1
10,11,-17,19573,22665,12163,11403,10488,1
39,-21,-8,19573,22687,12163,11379,10546,1
-12,31,10,19554,22776,12254,11391,10546,1
161,-17,-2,19554,22820,12333,11403,10546,1
91,-14,-21,19497,22776,12424,11453,10629,1
137,-41,-34,19497,22798,12424,11478,10605,1
180,-47,-62,19535,22798,12385,11553,10641,1
241,-108,-85,19554,22709,12372,11565,10653,1
74,-11,-76,19612,22665,12267,11603,10641,1
-80,-19,-6,19612,22709,12215,11615,10688,1
-159,-29,-20,19612,22621,12215,11565,10629,1
-287,21,22,19669,22709,12176,11540,10629,1
-223,-30,29,19785,22731,12086,11391,10546,1
-25,72,31,19999,22776,12060,11354,10535,1
-121,-44,32,20058,22731,12009,11341,10546,1
-53,14,32,19941,22599,11906,11329,10499,1
-34,24,56,19999,22621,11817,11354,10535,1
-23,30,20,20078,22621,11830,11317,10488,1
-46,-152,62,20716,22687,11957,11304,10535,1
-23,-46,9,21312,22932,12293,11354,10511,1
61,30,-22,21291,23044,12372,11341,10499,1
152,-66,-27,21563,23225,12810,11354,10535,1
-44,26,5,21375,23294,12690,11317,10499,1
-144,12,15,21064,23316,12570,11341,10546,1
-39,20,10,20798,23316,12504,11304,10546,1
7,20,-23,20555,23316,12504,11317,10488,1
-121,-4,-22,20515,23408,13081,11354,10535,1
-40,-51,-14,20455,23431,13821,11366,10535,1
-98,-53,13,20475,23661,14429,11354,10535,1
-70,-94,-20,20555,23894,14577,11428,10535,1
-138,-110,9,20716,23870,14666,11453,10582,1
15,28,-4,21022,23917,14711,11478,10535,1
-38,17,14,21043,23800,14636,11503,10582,1
-20,-13,3,20961,23777,14385,11503,10605,1
-44,-17,33,20920,23707,14224,11465,10570,1
28,-52,35,20859,23615,13935,11478,10582,1
-60,-67,36,20716,23569,13693,11465,10546,1
74,17,33,20515,23522,13510,11403,10558,1
11,-84,-42,20535,23499,13566,11403,10535,1
134,-71,-24,20676,23431,14079,11416,10546,1
251,-115,-52,21064,23180,14311,11465,10546,1
235,30,-5,22118,23135,14681,11478,10511,1
140,-2,1,24702,23431,14907,11503,10499,1
-231,-48,41,27828,23940,14922,11553,10535,1
74,-95,-34,30195,24294,14876,11515,10546,1
-1,6,-38,31752,24606,15028,11515,10546,1
16,-65,-10,32633,25266,16125,11603,10523,1
86,-26,-19,32336,25515,16898,11703,10499,1
61,12,-25,31978,25717,17530,11893,10511,1
-12,-22,-9,31849,25894,17739,12047,10523,1
33,71,6,31213,25869,16966,11893,10535,1
132,88,-80,30962,25793,16483,11766,10499,1
27,99,-31,30226,25742,15412,11603,10546,1
-41,34,18,29450,25591,14108,11515,10535,1
-63,13,16,28812,25341,12824,11428,10488,1
18,47,-7,28189,25192,12228,11403,10546,1
-29,-17,16,27718,25142,12021,11403,10546,1
-30,33,8,27095,25019,11957,11354,10499,1
-32,-25,8,26566,24946,11855,11366,10523,1
-52,-44,31,26228,24897,11817,11354,10558,1
-24,-42,33,25945,24897,11804,11379,10558,1
-113,-54,34,25641,24897,11804,11366,10582,1
32,-86,-3,25490,25068,11817,11354,10594,1
25,-44,-18,25490,25192,11868,11354,10594,1
-4,-29,-32,25440,25142,11855,11366,10605,1
42,61,-49,25216,25216,11881,11354,10629,1
-12,4,-15,25118,25415,11983,11354,10629,1
-20,-24,13,25093,25591,12021,11354,10629,1
14,-25,-23,24995,25717,12086,11391,10653,1
26,-21,-21,24848,25742,12112,11379,10594,1
-4,-2,-3,24995,25843,12124,11366,10629,1
36,15,-15,25291,26202,12112,11366,10629,1
-69,30,2,25044,26513,12202,11379,10641,1
-58,32,8,24873,26882,12398,11379,10629,1
-21,-30,13,24510,26829,12530,11329,10594,1
23,1,-2,24247,26723,12756,11354,10641,1
12,-8,1,24247,26618,12959,11366,10653,1
40,-35,-4,24176,26409,12959,11366,10629,1
-43,2,19,24081,26228,13040,11366,10605,1
-87,-7,20,24034,26124,13232,11354,10605,1
-89,-20,28,23894,25945,13315,11403,10629,1
-159,-1,28,23777,25691,13426,11366,10629,1
-127,-32,37,23684,25341,13440,11354,10594,1
-91,18,1,23569,25241,13454,11354,10605,1
-53,-18,-17,23477,25142,13454,11403,10582,1
-183,-18,9,23477,25167,13524,11354,10558,1
9,-7,14,23385,24970,13679,11354,10535,1
41,-27,-10,23385,24921,13665,11354,10582,1
44,17,-15,23316,24848,13665,11403,10511,1
5,18,-20,23248,24897,13538,11403,10535,1
-82,-25,-2,23271,24873,13552,11366,10535,1
-25,-15,88,23294,24775,13679,11403,10488,1
27,-28,4,23203,24630,13806,11453,10535,1
42,-45,80,23225,24438,14151,11515,10535,1
-25,-39,100,23385,24152,14253,11603,10546,1
76,-58,7,23546,23894,14108,11754,10511,1
-13,-35,32,23499,23754,13806,11728,10546,1
-25,-30,37,23454,23684,13964,11804,10488,1
55,11,24,23294,23777,14311,11919,10499,1
155,72,0,23203,23777,14458,11906,10511,1
74,49,8,23180,23847,14503,11868,10488,1
85,59,-9,23294,23894,14473,11804,10511,1
28,35,-10,23477,23847,14311,11716,10488,1
-19,29,-2,23385,23940,13964,11653,10488,1
-66,-145,-38,23112,23917,13792,11603,10499,1
18,-34,-33,23022,23917,13735,11615,10535,1
21,5,2,23044,23964,13721,11628,10511,1
55,-11,-41,23431,23894,13707,11590,10511,1
86,38,-42,23940,23987,13622,11603,10558,1
-10,49,-13,23987,23870,13510,11603,10546,1
-71,-3,-29,23940,23824,13650,11553,10499,1
36,-44,-22,23894,23847,13679,11603,10594,1
-120,-37,-8,23661,23870,15490,11653,10641,1
-75,23,-1,23546,23870,15726,11728,10676,1
-105,30,-7,23569,23964,16093,11906,10676,1
-82,-11,-3,23431,23987,17186,12756,10700,1
42,-22,-47,23477,23987,16898,12932,10771,1
237,99,-81,23248,23847,15584,12477,10771,1
102,46,-14,22977,23777,14399,12009,10688,1
127,192,-25,22665,23661,13863,11855,10700,1
-55,17,-43,22401,23592,13792,11830,10676,1
-123,101,-23,22140,23615,13792,11779,10688,1
-251,-39,20,21924,23592,13821,11728,10629,1
-20,-72,-14,21903,23615,13792,11716,10617,1
212,168,-67,21627,23615,13636,11665,10594,1
102,29,-29,21648,23499,13343,11703,10629,1
149,160,-64,21882,23477,13191,11665,10558,1
74,79,-25,21924,23294,13013,11678,10582,1
30,60,-10,21860,23225,12905,11653,10582,1
-31,4,39,21818,23112,12824,11653,10535,1
88,62,7,21733,23044,12530,11603,10535,1
279,19,10,21648,22977,12810,11553,10558,1
115,-44,-13,21733,23022,13343,11603,10546,1
10,-70,-22,21796,23044,13921,11653,10605,1
20,-73,-6,21627,23090,13906,11703,10629,1
36,-41,10,21627,23180,14079,11779,10629,1
67,-74,6,21754,23294,14297,11804,10700,1
62,-59,-14,21882,23431,14488,11766,10688,1
73,-73,-26,22401,23684,14967,11754,10688,1
97,-153,-37,22466,23777,14846,11766,10676,1
-129,-131,87,23225,24129,15553,11830,10664,1
149,42,-51,23203,24223,15584,11919,10688,1
100,20,-38,23135,24414,15459,11868,10676,1
103,-2,-21,23044,24510,15058,11804,10676,1
22,54,-54,22554,24486,14108,11754,10688,1
-205,58,41,22096,24414,13177,11678,10676,1
-239,90,64,21839,24534,12690,11653,10688,1
-412,124,131,21839,24995,12596,11640,10676,1
-237,52,90,21839,25118,12583,11603,10641,1
-128,55,25,21903,24995,12451,11578,10676,1
-15,-15,37,21946,24897,12267,11540,10676,1
-56,-17,34,21882,24970,12189,11465,10688,1
-85,-4,22,21882,24848,12254,11503,10700,1
17,17,-1,21818,24995,12228,11515,10724,1
30,0,9,21754,24995,12280,11503,10700,1
-22,-9,15,21775,24897,12372,11503,10688,1
2,-16,4,21796,24824,12451,11490,10700,1
67,-21,-9,21882,24848,12530,11528,10676,1
1,-7,3,21860,24751,12663,11503,10676,1
-6,-1,6,21818,24799,12810,11465,10676,1
75,-21,-15,21733,24751,12851,11503,10688,1
65,50,-12,21733,24775,12918,11465,10664,1
126,59,-30,21754,24727,12959,11528,10676,1
109,-78,-72,21839,24702,13232,11503,10629,1
-65,-110,58,22313,24390,13650,11465,10641,1
147,-133,-31,22776,23987,14253,11503,10653,1
54,-163,0,22843,23847,14326,11453,10594,1
108,-23,-21,22798,23800,13821,11503,10594,1
62,-1,25,22843,23684,13191,11428,10605,1
14,27,26,22843,23661,12959,11453,10558,1
111,-29,-34,22932,23615,12851,11366,10582,1
92,-33,-39,22887,23477,12837,11428,10558,1
70,-6,7,23022,23385,12810,11403,10582,1
-151,39,38,22820,23339,12837,11366,10499,1
-72,48,40,22754,23294,12756,11354,10499,1
-16,-46,12,22599,23180,12743,11366,10488,1
-99,1,-21,22621,23180,12636,11391,10499,1
-76,37,-3,22887,23135,12610,11354,10488,1
-8,-17,18,23135,23044,12703,11366,10453,1
95,129,-6,22955,23067,13027,11403,10499,1
97,96,7,22798,23044,13081,11403,10499,1
44,24,9,22599,22977,13109,11428,10441,1
86,41,18,22313,22977,13081,11453,10488,1
142,55,-21,22183,22932,13081,11428,10488,1
287,10,-7,22096,22955,13068,11453,10511,1
124,-48,-26,21903,22932,13081,11416,10523,1
68,-33,-84,21796,22843,13013,11453,10488,1
-22,-193,-99,21903,22776,13027,11416,10535,1
302,-126,-64,22140,22776,13040,11503,10488,1
112,5,-50,22444,22709,13163,11565,10476,1
77,42,-64,22621,22731,13287,11553,10499,1
-195,31,1,22754,22776,13608,11615,10441,1
48,23,-14,22776,22709,13580,11603,10499,1
186,7,-27,22820,22709,13468,11603,10488,1
85,-14,37,24081,22932,14195,11665,10488,1
159,-122,-15,25490,23339,14786,11804,10488,1
164,-113,-14,26829,23684,15273,11868,10418,1
121,-7,-25,27068,23847,15288,11881,10488,1
-36,-73,7,27745,23940,15058,11868,10441,1
57,-8,-27,27472,24034,14997,11855,10441,1
65,4,-37,27175,24199,14982,11868,10441,1
78,30,-35,27095,24247,15043,11830,10476,1
16,20,-22,27911,24438,15058,11830,10499,1
-3,12,-2,28612,24848,15273,11881,10418,1
27,3,-5,28385,24946,15397,11842,10441,1
-6,23,-23,28555,25019,15443,11817,10441,1
-49,-6,-8,28470,25167,15678,11855,10441,1
-127,10,34,28812,25241,15852,11855,10406,1
66,26,1,29013,25341,15428,11804,10418,1
59,-21,-50,29071,25591,14726,11754,10488,1
67,23,-65,28583,25440,13835,11615,10441,1
-64,-31,-17,28301,25415,13040,11515,10464,1
16,11,7,27966,25515,12716,11465,10499,1
-41,26,37,27499,25365,12649,11453,10488,1
-137,30,17,27283,25316,12583,11403,10488,1
-38,-8,-3,27015,25216,12596,11354,10488,1
-87,-138,-5,26855,25316,12556,11403,10535,1
33,-52,-9,26618,25167,12543,11379,10499,1
110,-138,15,26513,25093,12583,11440,10488,1
-277,-33,17,26461,24946,13707,11628,10582,1
106,14,-33,26776,25019,15741,12112,10676,1
229,-32,-31,26618,24995,15710,12163,10676,1
66,-17,27,26749,24946,15663,12112,10676,1
-4,7,17,26566,25019,15211,11996,10629,1
95,2,-19,26409,24995,14696,11817,10629,1
19,43,-8,26357,24946,14786,11868,10676,1
-2,10,1,26253,24995,14907,11906,10605,1
10,7,-15,26202,24946,14891,11855,10676,1
-63,-1,13,26202,24995,14846,11906,10605,1
-11,17,-17,26202,25019,14741,11830,10641,1
-98,40,-13,25996,24995,14473,11703,10558,1
34,2,11,25945,24946,14268,11691,10594,1
22,24,9,25971,25068,14268,11653,10605,1
46,56,-6,25869,24995,14195,11691,10605,1
78,12,-11,25742,25068,14050,11653,10535,1
8,35,22,25666,25044,13992,11628,10582,1
-67,28,42,25641,25019,13992,11653,10558,1
-55,-78,18,25591,24921,13964,11615,10558,1
25,-47,-19,25440,24873,13964,11565,10558,1
42,6,-22,25241,24897,13892,11603,10582,1
52,25,-8,25192,24848,13906,11565,10594,1
-40,-6,2,25019,24848,13878,11615,10594,1
-197,23,-12,24970,24727,13906,11615,10582,1
-112,-57,49,24824,24414,14021,11578,10535,1
-115,-32,64,24848,23987,14021,11603,10488,1
-46,-63,37,24630,23754,14050,11603,10523,1
3,-68,-19,24462,23638,14036,11603,10582,1
17,-38,-1,24606,23615,14108,11528,10582,1
49,6,10,24342,23499,14224,11553,10488,1
22,-3,14,23987,23592,14253,11578,10558,1
-266,-124,61,23707,23615,14282,11553,10523,1
-184,-73,14,23431,23499,14195,11540,10546,1
-23,-14,6,23385,23431,14195,11603,10535,1
-21,20,2,23157,23339,14195,11603,10582,1
-85,-34,27,23022,23385,14224,11578,10582,1
-16,-8,27,22977,23431,14224,11553,10499,1
-40,14,-1,23431,23431,14268,11603,10488,1
-102,-56,22,23316,23477,14385,11603,10546,1
35,-82,48,23225,23499,14326,11578,10511,1
-62,54,30,23135,23454,14311,11615,10511,1
-226,69,99,23135,23477,14238,11553,10546,1
-183,23,29,22932,23271,14370,11628,10535,1
-13,-33,24,22820,23294,15335,11653,10511,1
-52,10,34,22798,23225,15584,11703,10582,1
-97,4,24,22798,23157,15647,11766,10570,1
19,55,6,22776,23203,15631,11766,10582,1
-67,26,58,22554,23180,15273,11754,10511,1
-2,55,73,22401,23090,15211,11779,10570,1
-4,1,46,22423,23022,15058,11754,10511,1
28,-45,11,22488,23067,14741,11754,10535,1
-6,13,2,22532,23022,14532,11665,10546,1
-47,-28,26,22599,23135,14488,11716,10582,1
169,-6,-48,22576,23203,14444,11691,10499,1
3,-7,28,22665,23135,14488,11665,10582,1
36,18,4,22665,23135,14651,11703,10523,1
16,6,-24,22665,23044,14876,11703,10582,1
130,50,-65,22444,23112,15288,11804,10605,1
91,43,-42,22532,23090,15584,11919,10641,1
-1,3,-21,22576,23135,15584,11893,10629,1
-47,-8,-16,23044,23225,15537,11881,10605,1
163,-50,-41,23385,23294,15397,11804,10594,1
19,48,-22,23522,23294,15335,11766,10641,1
-53,12,30,24081,23385,15490,11754,10558,1
54,-12,-18,24414,23592,15678,11728,10594,1
-34,-9,-11,24751,23684,15837,11804,10582,1
24,26,-41,24751,23754,15773,11792,10582,1
-34,-7,9,24438,23707,16028,11754,10617,1
-53,19,22,24462,23847,16109,11741,10546,1
-8,4,-28,24414,23847,15964,11779,10570,1
57,-28,-20,24438,23870,16028,11766,10546,1
219,-47,-101,24318,23824,16060,11741,10546,1
-163,57,8,24462,23894,16076,11817,10594,1
-13,16,10,24318,23940,16125,11817,10546,1
31,14,-9,24199,23940,16044,11766,10629,1
66,-25,-44,23964,23777,16028,11754,10582,1
39,-80,-56,23754,23707,16093,11804,10582,1
82,-14,-68,23707,23431,16303,11855,10594,1
104,-3,-23,23522,23431,16319,11970,10653,1
13,2,2,23339,23362,16352,12009,10629,1
-31,-62,3,23316,23339,16287,12009,10676,1
15,7,9,23203,23157,15150,11919,10653,1
55,-62,-3,23022,23067,14876,11855,10676,1
-117,-39,-20,23112,22932,14621,11881,10629,1
-85,-21,0,23569,22843,14577,11855,10594,1
-85,-5,3,23754,22887,14577,11881,10605,1
75,41,-24,23777,22754,14444,11855,10535,1
14,36,-12,23684,22754,14444,11830,10546,1
297,-29,-66,23661,22798,14681,11842,10558,1
385,-34,-124,23777,22932,15900,11868,10558,1
346,94,-79,23754,22932,15916,11906,10558,1
139,38,-15,23777,22910,16060,11919,10546,1
-19,24,18,23754,22932,16336,12112,10629,1
66,39,32,23569,22955,16238,12112,10629,1
82,72,7,23294,22932,15932,12073,10617,1
-4,36,17,23022,22910,15584,12086,10594,1
-60,28,13,22932,22887,15227,12047,10641,1
-93,12,17,22776,22820,14696,11957,10641,1
2,25,-3,22357,22731,13622,11868,10676,1
13,-11,10,22140,22599,13054,11804,10605,1
-80,38,22,21882,22665,12797,11779,10664,1
-57,57,8,21733,22599,12716,11741,10594,1
-106,-25,17,21690,22643,12703,11716,10594,1
-107,-21,44,21563,22687,12690,11728,10594,1
-6,45,-26,21458,22621,12649,11741,10582,1
66,-14,-1,21458,22665,12649,11754,10605,1
-28,-9,-48,21416,22754,12583,11678,10605,1
-16,24,5,21416,22754,12583,11703,10594,1
68,-16,-30,21584,22910,12743,11653,10594,1
-19,92,2,21754,23022,12959,11665,10605,1
-96,47,44,21882,23294,13287,11703,10605,1
-97,17,37,21882,23431,13454,11653,10605,1
-105,-4,61,21818,23431,13580,11678,10629,1
-29,-16,32,21754,23477,13636,11665,10641,1
44,35,-28,21648,23499,13580,11741,10653,1
39,67,-10,21711,23638,13566,11653,10629,1
32,134,-9,21733,23592,13510,11665,10653,1
-118,57,21,21754,23592,13496,11653,10676,1
-137,48,23,21754,23522,13524,11678,10605,1
-242,53,81,21775,23569,13538,11640,10605,1
-299,95,119,21903,23499,13749,11603,10594,1
-405,144,178,21967,23271,13792,11603,10594,1
-139,23,68,21924,23225,13792,11628,10594,1
-217,20,142,22096,23112,13892,11615,10594,1
-16,74,89,22183,22865,13906,11603,10582,1
62,30,-4,21989,22754,13735,11603,10594,1
-22,33,12,22053,22621,13693,11615,10582,1
48,29,-43,22140,22576,13878,11603,10535,1
-113,39,21,22140,22532,13935,11590,10582,1
12,3,27,22053,22466,14137,11653,10511,1
-18,9,15,22096,22444,14209,11565,10499,1
-110,-14,44,22183,22401,14209,11628,10546,1
-2,8,5,22510,22401,14268,11640,10535,1
-22,71,-19,22488,22357,14399,11628,10499,1
-1,11,5,22955,22379,14982,11603,10511,1
-88,20,26,22843,22488,15089,11665,10546,1
-70,-21,4,22798,22488,15288,11628,10523,1
-6,15,-21,22887,22510,15553,11653,10488,1
-158,-20,53,23316,22754,15980,11703,10511,1
73,-12,24,23894,23022,16815,11766,10499,1
35,-15,16,24318,23294,17739,11919,10499,1
-37,8,30,24247,23294,17634,11970,10558,1
45,2,-22,24558,23477,16698,11957,10535,1
108,50,-52,24654,23477,16271,11830,10535,1
73,24,-31,24606,23431,16189,11842,10558,1
60,39,-28,24510,23522,15694,11817,10535,1
72,34,-31,24034,23477,14846,11728,10546,1
8,119,-16,23499,23225,13580,11653,10535,1
-124,110,39,22955,23180,12797,11628,10582,1
35,3,26,22444,23090,12372,11640,10546,1
-157,71,51,22161,23067,12215,11628,10582,1
-195,5,54,22096,23112,12215,11603,10546,1
-86,52,-1,22621,23294,12385,11578,10605,1
-64,-66,-17,23546,23684,12636,11565,10546,1
-30,-12,2,23777,23870,12756,11528,10535,1
-33,12,20,23661,23847,12851,11565,10546,1
-19,4,5,23824,23917,12999,11553,10535,1
0,31,-1,23917,23964,13068,11553,10582,1
-87,-16,37,24223,24011,13357,11553,10558,1
-63,7,13,24318,24081,13343,11515,10523,1
39,-5,-22,24366,24247,13246,11503,10499,1
49,0,3,24176,24129,13260,11515,10535,1
8,3,-9,23940,24034,13177,11503,10535,1
36,-15,-14,23777,23940,13177,11515,10546,1
-3,-4,-4,23431,23894,13081,11528,10535,1
23,7,6,23316,23894,13054,11503,10535,1
7,-140,-15,22977,23754,12851,11503,10570,1
200,-250,-121,22532,23499,12543,11503,10546,1
550,-270,-317,21796,23431,12411,11515,10570,1
-26,42,-53,21125,23135,12346,11603,10641,1
-57,43,19,20859,23067,12346,11653,10664,1
248,-49,-74,20636,22955,12346,11603,10676,1
65,-48,-15,20455,22932,12372,11653,10676,1
-3,-69,-29,20335,22798,12320,11615,10653,1
57,-4,-23,20078,22599,12280,11565,10664,1
22,-8,7,19999,22599,12267,11603,10676,1
-27,4,10,20019,22621,12228,11603,10676,1
19,-33,-23,19863,22754,12189,11578,10653,1
-10,-32,-19,19824,22754,12176,11603,10641,1
-157,26,60,20019,22709,12189,11603,10676,1
-37,93,46,20117,22643,12267,11565,10629,1
73,43,0,20515,22709,12385,11553,10594,1
-88,44,30,20737,22709,12530,11565,10582,1
-13,79,43,21084,22643,12636,11578,10629,1
98,-5,-36,21125,22576,12770,11565,10594,1
62,22,-88,20716,22532,12851,11553,10629,1
-23,86,-53,20595,22532,12797,11540,10594,1
50,-17,-78,20495,22576,12810,11553,10582,1
211,-73,-144,20435,22599,12864,11578,10605,1
289,-110,-68,20435,22621,12905,11628,10582,1
447,-71,-263,20656,22532,12918,11603,10653,1
7,91,-131,20798,22576,12918,11603,10582,1
118,-45,-85,20716,22488,12932,11565,10594,1
-77,97,31,20555,22488,12905,11565,10641,1
-100,77,-8,20475,22510,12891,11603,10629,1
-106,-14,0,20475,22488,12851,11590,10629,1
-144,65,67,20395,22576,12851,11640,10641,1
-16,-16,-18,20395,22510,12878,11628,10594,1
20,-42,-34,20315,22532,12891,11615,10594,1
-27,22,-7,20275,22510,12905,11565,10582,1
-38,3,-4,20196,22576,12851,11653,10629,1
-31,42,15,20157,22576,12878,11603,10594,1
26,2,-18,20157,22576,12918,11628,10605,1
5,-31,-35,20137,22599,12905,11653,10605,1
-7,-15,-14,20117,22665,12878,11615,10594,1
-3,-35,-20,20117,22599,12918,11603,10594,1
77,-115,-2,20157,22709,12891,11615,10629,1
2,-5,20,20256,22665,12918,11640,10605,1
36,3,-47,20275,22665,12918,11640,10629,1
-6,9,-24,20236,22709,12932,11628,10582,1
53,10,15,20157,22709,12932,11603,10605,1
-5,-11,-14,20117,22709,12905,11653,10629,1
41,68,9,20157,22731,12959,11653,10617,1
18,35,-3,20078,22754,12918,11628,10594,1
26,28,5,20078,22776,12918,11603,10594,1
-15,-10,16,20078,22709,12918,11628,10629,1
-9,-10,-9,20078,22754,13013,11640,10582,1
8,7,9,20058,22754,12932,11628,10605,1
47,-28,-11,20039,22776,12932,11603,10605,1
4,-1,-18,19999,22709,12932,11578,10594,1
-6,15,5,19999,22798,12959,11615,10582,1
35,-23,-15,19960,22754,12959,11628,10594,1
34,-33,-4,19960,22665,12972,11640,10582,1
-2,-10,12,19999,22798,12972,11628,10582,1
13,28,-19,19999,22843,12972,11628,10594,1
30,2,1,19960,22798,12945,11590,10594,1
14,-2,8,19999,22798,12959,11628,10629,1
3,15,11,19921,22820,12959,11603,10605,1
21,20,1,19941,22843,12972,11603,10582,1
14,40,-9,19960,22910,12999,11628,10605,1
0,-5,-9,19921,22865,13013,11640,10582,1
-11,9,34,19999,22865,12972,11628,10594,1
35,25,4,19999,22887,12972,11578,10605,1
18,-39,-22,20019,22932,12972,11603,10594,1
10,6,-14,19960,22865,12972,11615,10594,1
8,12,-6,19921,22932,12972,11615,10594,1
-14,7,-3,19960,22955,12972,11603,10582,1
-13,-10,-1,19960,22910,12999,11578,10582,1
13,-19,-8,19921,22932,13013,11628,10594,1
-2,8,2,19921,22910,13027,11615,10594,1
31,13,-9,19921,22932,12972,11615,10594,1