GyroX,GyroY,GyroZ,Thumb,Index,Middle,Ring,Pinky,Gesture
24,0,-22,20275,13357,15900,12385,28189,4
13,-17,-2,20395,13301,15868,12346,28161,4
15,-15,5,20335,13343,15837,12346,28189,4
-8,14,-1,20415,13287,15773,12346,28217,4
-4,-6,7,20335,13287,15678,12346,28077,4
3,-19,5,20415,13287,15710,12372,28077,4
-9,-7,-4,20335,13191,15459,12267,28022,4
20,-87,45,20415,12999,14907,12124,28133,4
-121,9,101,20335,12743,14253,11957,28217,4
74,49,5,20078,12663,13764,11830,28301,4
-83,5,79,19766,12530,13412,11716,28217,4
-65,12,71,19612,12464,13040,11628,28301,4
0,50,51,19231,12280,12810,11615,28245,4
-125,69,26,19005,12189,12636,11603,28301,4
-70,29,22,18635,12163,12293,11528,28301,4
79,15,-6,18417,12009,12060,11403,28301,4
102,-53,68,18164,11855,11855,11329,28357,4
247,31,39,17652,11678,11590,11354,28301,4
226,162,0,17033,11590,11379,11243,28049,4
115,131,112,16748,11515,11304,11231,28133,4
40,67,-48,16287,11453,11268,11255,28133,4
-25,-139,-21,16093,11490,11268,11219,27966,4
161,-57,34,16093,11553,11391,11255,27745,4
185,-116,-29,16417,11703,11565,11268,27718,4
-187,24,-58,16748,11754,11703,11231,27691,4
-463,6,-15,16483,11741,11603,11255,27773,4
-347,-77,27,16401,11728,11528,11182,27581,4
-14,-78,84,16898,11766,11603,11121,27663,4
-58,49,-6,17374,11957,11804,11157,27499,4
14,69,7,17169,12047,11906,11182,27310,4
45,22,83,17203,12215,12073,11194,27364,4
78,132,3,17169,12215,12047,11157,27148,4
51,49,-30,17186,12163,12009,11170,27095,4
36,86,-21,17220,12163,12034,11170,26935,4
4,45,1,17169,12176,12112,11206,26935,4
-171,-2,91,17186,12163,12124,11145,26882,4
-274,-59,141,17306,12215,12346,11170,26829,4
-302,-107,283,18075,12851,13679,11255,27068,4
-447,-92,282,18875,13468,15058,11503,27445,4
-458,94,48,18783,13371,14666,11416,27364,4
-117,65,-12,18344,13232,14209,11341,27256,4
-226,-9,49,18308,13177,13978,11268,27472,4
-134,-73,45,18272,13136,14021,11268,27364,4
-275,30,56,18654,13232,14108,11341,27472,4
-506,8,55,18801,13260,14050,11329,27148,4
-226,-4,60,18709,13191,14108,11304,27283,4
-205,-121,91,19005,13027,14108,11329,27068,4
-146,-184,105,19535,12837,13949,11268,27095,4
-167,-190,99,20137,12756,13863,11317,26802,4
-184,-37,82,20176,12703,13778,11280,26644,4
-122,3,26,20058,12649,13821,11268,26435,4
-137,-122,37,20019,12623,13863,11280,26409,4
-285,-120,128,20078,12810,14253,11354,26383,4
-29,11,54,20415,13136,14967,11379,26331,4
-45,-96,-14,20757,13538,15521,11478,26409,4
12,100,-50,20495,13454,15304,11465,26202,4
35,34,-87,20236,13398,15150,11465,25996,4
-5,32,-13,20256,13454,15181,11453,25996,4
10,67,-37,20078,13398,14922,11403,25793,4
-5,21,7,19843,13412,14621,11403,25843,4
23,48,-73,19805,13343,14488,11416,25869,4
22,23,13,19458,13274,14151,11379,25818,4
-27,34,-76,18875,13150,13665,11354,25818,4
2,-42,-52,18489,13013,13524,11440,25818,4
5,128,-108,18435,13040,13510,11490,25641,4
-81,36,-74,18362,13027,13594,11515,25515,4
-8,19,-39,18290,13027,13510,11490,25490,4
-97,-59,-24,18236,13122,13468,11379,25490,4
-33,-7,-17,18218,13136,13454,11354,25490,4
-119,20,0,18236,13136,13357,11268,25440,4
4,0,34,18129,13054,13246,11317,25440,4
-21,-16,49,17986,13013,13232,11304,25390,4
35,-22,33,17968,12905,13246,11317,25316,4
-30,-51,-4,17933,12730,13260,11304,25490,4
37,16,-62,17845,12649,13205,11304,25291,4
-89,157,21,17739,12583,13027,11304,25341,4
101,50,3,17357,12372,12464,11268,25440,4
38,26,-31,17050,12241,12346,11304,25390,4
-3,63,-19,16748,12228,12215,11268,25390,4
55,38,-9,16681,12267,12254,11317,25440,4
-15,-10,24,16765,12280,12346,11317,25415,4
9,-1,43,16815,12385,12490,11354,25291,4
11,21,34,16765,12464,12530,11329,25241,4
-3,22,-8,16765,12530,12530,11354,25291,4
-11,10,7,16765,12530,12583,11304,25216,4
-31,7,-7,16815,12556,12556,11304,25291,4
-18,49,-2,16765,12556,12583,11354,25216,4
-2,-13,-1,16748,12596,12543,11354,25192,4
-26,8,6,16798,12649,12623,11329,25291,4
-24,0,-26,17050,12756,12797,11391,25341,4
7,8,-38,17067,12743,12851,11354,25341,4
-18,-25,-22,17118,12743,12851,11403,25241,4
8,38,-3,17084,12770,12878,11416,25316,4
-29,-35,17,16983,12770,12891,11379,25192,4
27,48,-16,16983,12770,12851,11366,25192,4
-20,12,12,16983,12743,12905,11403,25241,4
-24,7,4,16898,12703,12878,11391,25142,4
-1,-10,-5,16898,12703,12905,11379,25167,4
24,5,-9,16898,12743,12905,11416,25167,4
78,-6,-21,16882,12743,12905,11416,25118,4
1,-31,9,16882,12770,12864,11366,25093,4
47,41,-14,16831,12756,12905,11379,25142,4
66,-13,-21,16848,12716,12905,11379,25044,4
-14,33,7,16898,12743,12905,11416,25019,4
22,7,-8,16882,12756,12905,11416,25093,4
-23,30,31,16831,12756,12918,11403,25093,4
14,-31,-1,16831,12770,12918,11416,25142,4
-16,22,26,16882,12743,12851,11416,25093,4
38,-53,-19,17306,12851,13136,11428,25118,4
-25,6,48,17933,13068,13764,11503,25167,4
-170,6,27,18635,13371,14385,11553,25241,4
-26,-3,74,18635,13343,14458,11578,25291,4
-7,137,-90,18508,13357,14547,11565,25415,4
-379,76,54,18272,13343,14385,11578,25390,4
-426,70,-11,18004,13287,14195,11553,25341,4
-128,150,-50,17792,13177,13849,11515,25415,4
24,152,-81,17340,13081,13594,11465,25515,4
32,62,-76,17084,13068,13315,11503,25540,4
128,-11,-61,16765,13013,13068,11478,25390,4
162,3,-9,16483,12972,13027,11403,25390,4
250,105,-124,16352,12851,12905,11403,25341,4
329,48,-50,16222,12649,12770,11453,25291,4
478,84,-82,16060,12372,12517,11453,25291,4
17,-76,23,15741,12073,12189,11428,25316,4
-56,-44,18,15304,11893,12047,11366,25291,4
268,133,38,14922,11766,11893,11354,25415,4
218,42,34,14532,11741,11893,11403,25291,4
128,-15,23,14458,11766,11804,11354,25341,4
187,32,10,14399,11766,11792,11329,25291,4
66,-22,-21,14370,11741,11653,11304,25241,4
5,22,21,14399,11703,11528,11255,25266,4
-318,-72,-54,14370,11716,11503,11182,25390,4
0,8,14,14370,11678,11465,11194,25291,4
-162,-228,70,14801,11741,11515,11170,25241,4
-75,-74,112,15412,11957,11804,11206,25591,4
-75,-88,36,16632,12610,13454,11182,25843,4
1,-36,6,17289,13329,14786,11231,25843,4
1,-33,6,17495,13679,15568,11354,25894,4
50,-1,-13,17722,13849,15837,11366,25996,4
98,12,14,17687,13679,15537,11379,25894,4
288,75,74,17617,13440,15104,11354,25894,4
47,125,52,17582,13081,14592,11403,25793,4
83,81,93,17357,12596,13454,11453,25869,4
77,37,63,17152,12556,13205,11428,25793,4
529,117,75,16882,12504,12972,11403,25641,4
168,13,61,16698,12517,12972,11403,25717,4
-46,51,-27,16632,12530,12878,11416,25591,4
-46,-1,-1,16549,12517,12649,11403,25616,4
-146,4,-16,16352,12424,12346,11366,25691,4
-20,45,-19,16093,12346,12086,11268,25591,4
-254,-27,7,15980,12320,11868,11243,25616,4
-142,-156,6,15948,12280,11804,11194,25591,4
-69,-102,44,15980,12267,11754,11206,25591,4
165,72,82,16093,12202,11628,11157,25616,4
-118,9,30,16093,12009,11628,11133,25515,4
-16,-61,71,16109,11906,11478,11109,25641,4
-50,-106,71,16044,11830,11453,11096,25591,4
-59,-25,5,16028,11779,11403,11084,25540,4
13,32,-4,16109,11779,11391,11096,25540,4
-45,-35,38,16222,11766,11366,11060,25540,4
-25,-28,27,16303,11754,11379,11072,25515,4
-14,40,14,16532,11779,11403,11109,25540,4
-90,33,-12,16582,11792,11465,11121,25390,4
-219,-28,18,16565,11804,11465,11072,25316,4
-143,23,4,16549,11766,11453,11109,25266,4
-55,5,2,16549,11804,11465,11109,25167,4
-10,11,-8,16467,11754,11565,11072,25216,4
16,15,-4,16434,11766,11465,11096,25241,4
-3,-13,9,16368,11804,11528,11084,25192,4
48,-15,18,16417,11842,11515,11109,25241,4
37,32,-3,16319,11855,11515,11072,25266,4
31,-12,17,16189,11855,11553,11072,25142,4
16,12,2,16060,11855,11528,11121,25192,4
6,-15,1,16028,11868,11553,11072,25093,4
25,1,-3,15948,11855,11528,11072,25093,4
0,-16,-3,15948,11830,11515,11109,25093,4
-15,50,-30,15900,11804,11490,11109,25093,4
-2,61,-5,15868,11830,11515,11060,25118,4
0,0,2,15837,11842,11515,11072,25093,4
16,27,-1,15789,11817,11503,11072,25118,4
8,-5,-9,15789,11804,11515,11072,25142,4
-7,-4,1,15773,11792,11503,11084,25192,4
-10,30,-26,15789,11817,11515,11072,25142,4
14,21,-9,15789,11817,11453,11109,25167,4
15,-12,1,15726,11817,11503,11109,25241,4
20,44,3,15757,11792,11565,11084,25192,4
-80,-103,36,15726,11855,11553,11133,25241,4
98,8,1,15726,11932,11653,11121,25341,4
35,62,-29,15710,11983,11842,11133,25390,4
39,54,-30,15741,11970,11804,11121,25291,4
1,26,-4,15694,11957,11804,11121,25216,4
25,24,-13,15678,11983,11804,11157,25291,4
32,9,4,15710,11983,11804,11133,25316,4
89,-67,43,15726,11983,11804,11157,25216,4
47,-23,1,15789,11996,11830,11121,25216,4
4,22,-8,15868,11996,11868,11133,25241,4
14,-7,-20,15868,12021,11970,11170,25216,4
-58,-75,-31,15980,11957,11919,11157,25118,4
17,-35,5,16060,12009,11957,11157,25192,4
21,16,5,16093,12086,12009,11170,25118,4
-12,37,-8,16173,12137,12099,11255,25019,4
60,109,19,16254,12163,12150,11268,24897,4
54,-15,108,16966,12372,12424,11280,24824,4
122,-42,108,16949,12372,12411,11292,24702,4
-2,-26,-11,16815,12346,12398,11317,24510,4
13,23,2,16698,12346,12372,11304,24534,4
63,-48,72,16615,12320,12372,11329,24366,4
66,68,-35,16765,12346,12398,11304,24318,4
-4,48,-30,16748,12372,12398,11317,24318,4
-29,-57,-6,16632,12398,12372,11317,24414,4
-75,-118,31,16748,12385,12424,11341,24318,4
13,43,-34,16715,12372,12424,11304,24294,4
56,87,-40,16615,12372,12424,11292,24318,4
25,21,-10,16549,12372,12385,11268,24318,4
-9,-35,8,17067,12477,12385,11255,24318,4
-36,-44,23,17426,12424,12438,11280,24510,4
-6,68,-33,17495,12398,12477,11268,24558,4
72,46,3,17357,12372,12596,11268,24606,4
18,6,15,17306,12346,12596,11255,24438,4
-3,-6,-14,17152,12280,12583,11280,24510,4
27,14,-10,17152,12241,12583,11268,24414,4
-27,39,-31,16983,12228,12583,11255,24438,4
-1,-38,2,16949,12228,12596,11268,24366,4
85,-22,26,16966,12241,12610,11255,24462,4
52,-5,-11,16949,12215,12596,11255,24366,4
-43,-18,-19,16765,12241,12530,11243,24414,4
-74,35,-38,16748,12228,12477,11255,24510,4
-37,48,-66,16665,12254,12280,11219,24582,4
33,3,23,16681,12280,12176,11255,24534,4
-22,-11,17,16499,12346,12060,11219,24727,4
-41,-39,13,16076,12267,11868,11206,24702,4
-2,-44,-22,15459,12124,11603,11206,24824,4
-76,-50,-17,14876,11970,11403,11170,24799,4
-91,-17,-19,14907,11932,11354,11157,24995,4
3,-61,-14,14786,11932,11317,11133,24848,4
-4,-71,17,14771,11906,11304,11121,24824,4
-70,-62,4,14726,11957,11280,11121,24727,4
12,-165,19,14861,12060,11317,11145,24727,4
-70,-124,16,15319,12411,11590,11157,24775,4
11,-88,51,15964,12464,11553,11170,24799,4
61,-30,28,16434,12424,11528,11157,24946,4
27,-37,20,16516,12346,11578,11157,24970,4
2,15,17,16765,12320,11453,11157,24995,4
14,13,10,16748,12267,11403,11157,24995,4
-29,16,7,16665,12267,11453,11157,24897,4
4,-21,10,16698,12267,11428,11109,24897,4
25,-34,15,16565,12267,11490,11109,24799,4
-24,29,-13,16467,12228,11440,11121,24727,4
-67,-35,40,16483,12176,11440,11121,24727,4
-19,-49,42,16483,12163,11453,11096,24630,4
-145,63,-11,16499,12060,11453,11121,24654,4
0,28,20,16434,11957,11465,11121,24630,4
13,24,21,16483,11830,11465,11121,24606,4
-12,150,-31,16303,11628,11465,11121,24727,4
36,78,2,16287,11515,11317,11096,24751,4
-69,93,12,15964,11453,11268,11133,24751,4
37,107,0,15757,11403,11268,11096,24727,4
-72,-57,50,15631,11354,11219,11121,24824,4
-35,-27,28,15459,11354,11219,11121,24873,4
23,-69,15,15537,11366,11231,11072,24727,4
-53,33,-2,15600,11403,11268,11109,24824,4
-72,77,-1,15773,11553,11403,11121,24799,4
-125,5,37,16060,11653,11565,11109,24751,4
-41,-23,12,16141,11653,11703,11072,24654,4
-64,-26,18,16189,11653,11615,11084,24702,4
-59,39,-23,16254,11628,11653,11084,24799,4
-98,37,21,16450,11603,11628,11084,24799,4
8,22,-20,16368,11565,11640,11109,24702,4
38,40,-22,16319,11565,11716,11109,24702,4
-25,72,-31,16222,11578,11716,11133,24799,4
44,48,-19,16157,11603,11615,11121,24654,4
-40,-56,5,16044,11553,11578,11133,24702,4
14,17,-19,15980,11565,11615,11109,24342,4
183,-85,24,16028,11565,11615,11133,24318,4
125,38,-80,16303,11553,11653,11072,24366,4
-138,-163,6,16483,11565,11703,11109,24678,4
69,-179,23,16417,11578,11766,11121,24678,4
305,-69,-14,16368,11565,11716,11133,24606,4
21,13,-36,16222,11553,11703,11109,24366,4
359,-95,13,16385,11553,11754,11133,24366,4
1229,103,-46,16434,11590,11817,11121,24390,4
-193,-64,16,16368,11565,11754,11121,24486,4
-115,-41,7,16368,11565,11779,11121,24414,4
81,10,-13,16417,11578,11766,11170,24390,4
71,71,-18,16417,11603,11779,11170,24271,4
-60,2,-15,16549,11628,11817,11157,24366,4
-162,-65,3,16417,11615,11881,11157,24366,4
52,37,-7,16467,11665,11932,11133,24414,4
181,52,-40,16549,11640,11944,11157,24390,4
-79,6,-10,16450,11628,11970,11133,24271,4
-44,-44,-21,16352,11665,11957,11157,24462,4
-54,-5,-40,16483,11665,11970,11109,24558,4
-51,97,-45,16565,11716,11970,11157,24462,4
56,79,-40,16549,11703,12009,11157,24486,4
96,-24,17,16303,11665,11983,11170,24534,4
89,99,-20,16028,11678,11970,11157,24366,4
110,109,-6,15821,11703,11957,11145,24342,4
-11,60,22,15837,11703,11957,11133,24342,4
-39,-20,-1,15757,11665,11881,11157,24294,4
-102,-20,12,15647,11703,11779,11157,24176,4
-110,26,-234,15412,11615,11615,11170,24176,4
-11,-27,-47,15366,11615,11578,11157,24294,4
-28,-58,-20,15350,11603,11578,11157,24223,4
12,-104,61,15350,11603,11565,11121,24318,4
-82,-38,-19,15304,11615,11565,11072,24223,4
-124,-94,1,15350,11615,11578,11109,24176,4
95,85,-23,15273,11640,11553,11109,24223,4
-41,-6,19,15242,11565,11503,11157,24271,4
-64,49,2,15028,11603,11453,11109,24199,4
26,-21,40,14922,11553,11453,11157,24223,4
72,-8,5,14741,11565,11416,11121,24247,4
-79,109,-31,14666,11528,11403,11133,24223,4
-110,139,9,14621,11528,11403,11121,24318,4
-262,36,29,14547,11515,11453,11206,24318,4
-186,55,-5,14547,11515,11453,11206,24247,4
-285,-11,70,14577,11528,11515,11206,24438,4
-286,-43,86,14967,11540,11615,11219,24824,4
-569,-171,66,15932,11628,12060,11280,24897,4
-632,-143,-50,15490,11603,11957,11280,24606,4
-752,-73,5,15165,11515,11766,11268,24534,4
-675,-147,40,14997,11528,11716,11268,24486,4
-346,-3,21,14891,11553,11792,11268,24414,4
-273,-71,-3,14876,11603,11855,11255,24414,4
-314,-57,-21,14967,11578,11779,11268,24247,4
-276,-51,-22,14952,11553,11779,11268,24129,4
-273,-15,-24,15459,11653,11932,11255,24081,4
-195,10,33,17357,12112,12596,11255,24152,4
-132,-4,5,18200,12333,12932,11317,24129,4
-127,-76,-7,18129,12346,12905,11304,24034,4
-249,-69,-32,17986,12333,12810,11268,23894,4
-78,19,10,17933,12293,12810,11268,23847,4
-155,14,22,17792,12163,12690,11317,23777,4
-56,-8,19,17652,12073,12703,11268,23684,4
-81,-67,66,17687,12009,12676,11255,23754,4
-71,-17,32,17582,11944,12690,11268,23940,4
-61,3,-45,17392,11804,12636,11268,24105,4
-234,45,-25,17426,11817,12490,11255,24390,4
35,35,-65,17237,11766,12267,11182,24223,4
62,-25,9,17186,11754,12254,11170,24318,4
-44,47,-31,17289,11741,12228,11157,24342,4
-1,26,-75,17135,11766,12215,11157,24510,4
47,80,-62,17152,11804,12163,11157,24558,4
11,35,-45,17135,11804,12150,11157,24799,4
-17,46,-52,17135,11754,12176,11157,24702,4
16,23,-30,17135,11804,12176,11096,24606,4
5,-17,-22,17084,11804,12112,11133,24606,4
5,2,7,17084,11779,12124,11157,24558,4
-6,22,45,17033,11779,12073,11145,24606,4
-1,20,77,16898,11728,12047,11157,24510,4
181,295,-33,16450,11678,11855,11109,24678,4
-13,14,71,15773,11653,11754,11072,24678,4
-95,117,-29,15350,11628,11653,11133,24727,4
5,-30,69,15584,11628,11653,11145,24654,4
-41,-207,16,16352,11653,11766,11170,24799,4
85,-54,-15,16319,11653,11716,11133,24654,4
22,13,-29,16189,11665,11792,11157,24606,4
-29,-87,33,16109,11653,11716,11157,24486,4
-34,-79,45,16125,11665,11754,11121,24438,4
70,41,-12,16060,11615,11766,11157,24462,4
214,-14,-31,15852,11792,11868,11121,24438,4
16,90,-9,15916,11830,11906,11133,24366,4
-7,48,-24,15837,11842,11932,11170,24438,4
115,-16,13,15773,11855,11957,11170,24414,4
58,-15,19,15663,11855,11957,11157,24414,4
50,-97,9,15663,11881,11957,11121,24366,4
357,-56,-30,15647,11830,11970,11121,24366,4
-16,27,-6,15647,11842,11957,11170,24366,4
56,-68,5,15726,11842,11957,11157,24294,4
16,-85,39,15773,11830,11944,11145,24223,4
12,-194,52,15980,11804,11944,11072,24247,4
29,26,-15,16060,11804,11932,11121,24247,4
-34,-23,16,16012,11830,11957,11157,24223,4
216,23,-36,16012,11868,11957,11170,24271,4
109,68,-30,15868,11855,11932,11157,24247,4
-12,53,7,15726,11868,11932,11133,24247,4
17,3,40,15726,11881,11957,11157,24247,4
-61,-17,74,15773,11868,11957,11121,24247,4
-59,-57,92,15789,11830,11957,11109,24199,4
-4,-67,100,15837,11817,11919,11133,24176,4
30,29,21,15837,11766,11919,11133,24176,4
36,18,7,15916,11792,11932,11157,24129,4
37,-11,41,15900,11766,11906,11109,24129,4
-32,36,54,15980,11804,11919,11133,24152,4
16,-15,33,15980,11754,11957,11121,24105,4
3,36,27,15980,11754,11957,11133,24129,4
-44,67,30,16028,11766,11932,11121,24058,4
-68,4,10,15932,11766,11932,11133,24129,4
-10,55,-29,15964,11792,11932,11109,24058,4
-132,55,-31,16434,11957,12047,11157,24366,4
0,18,17,16582,12112,12215,11157,24510,4
4,189,-102,16450,12176,12320,11157,24606,4
58,49,-48,16434,12280,12703,11206,24678,4
148,12,-43,16417,12372,12810,11194,24630,4
-40,36,-18,16434,12372,12837,11243,24582,4
61,22,-14,16385,12424,12878,11231,24606,4
-46,34,-12,16319,12424,12918,11219,24630,4
-25,-28,-50,16417,12438,13136,11231,24582,4
-27,22,-16,16417,12398,13095,11231,24582,4
58,3,-30,16499,12385,13040,11206,24438,4
-23,18,-42,16549,12411,13027,11206,24462,4
65,68,-11,16565,12438,12959,11255,24438,4
21,89,-57,16417,12424,12959,11219,24366,4
173,121,14,16254,12320,12797,11219,24390,4
28,95,-36,16093,12306,12676,11206,24462,4
61,-1,-11,16044,12280,12636,11231,24534,4
47,73,-33,16060,12320,12676,11206,24510,4
-5,9,11,16093,12280,12690,11219,24510,4
121,-53,5,15996,12333,12676,11182,24462,4
392,-168,73,16060,12411,12690,11231,24558,4
-90,-11,-10,16060,12424,12676,11219,24438,4
-212,-21,-18,16044,12424,12690,11219,24366,4
-464,26,79,16093,12477,12663,11182,24318,4
-705,36,137,16157,12398,12649,11194,24366,4
-306,42,48,16173,12451,12649,11231,24271,4
142,19,-73,15964,12385,12623,11231,24223,4
109,-6,-67,15741,12372,12583,11219,24271,4
238,6,-99,15726,12385,12583,11219,24271,4
191,-9,-77,15773,12346,12583,11170,24366,4
225,31,-112,15710,12346,12556,11231,24342,4
345,204,-167,15475,12372,12530,11219,24366,4
-87,-100,250,15273,12320,12490,11170,24414,4
-107,62,-1,15273,12346,12490,11182,24438,4
96,-53,53,15335,12333,12517,11206,24366,4
7,7,-19,15304,12372,12530,11206,24271,4
16,-9,11,15350,12372,12517,11206,24247,4
37,-6,10,15397,12372,12543,11231,24152,4
16,-43,-5,15459,12398,12504,11206,24176,4
-220,136,1,15475,12398,12530,11206,24176,4
-62,23,-86,15459,12372,12596,11182,24176,4
247,-16,36,15475,12372,12610,11219,24081,4
167,48,38,15428,12372,12623,11170,24081,4
170,-78,-4,15428,12372,13013,11206,24129,4
86,50,-58,15350,12451,12999,11206,24129,4
22,70,-9,15412,12464,12972,11243,24105,4
231,-26,-10,15459,12424,12905,11231,24129,4
333,-39,-47,15350,12346,12851,11231,24105,4
484,-70,-60,15350,12280,12837,11219,24129,4
-76,-57,-14,15490,12189,12636,11206,24081,4
145,-29,36,15459,12124,12451,11206,24058,4
352,1,-70,15273,12021,12346,11231,24081,4
196,-4,13,15211,12099,12346,11231,23987,4
136,-34,21,15304,12228,12411,11206,23917,4
-194,-14,8,15366,12293,12451,11206,23847,4
-240,39,58,15412,12293,12424,11206,23847,4
49,-55,35,15428,12372,12490,11219,23894,4
-120,-12,7,15647,12490,12583,11219,23800,4
-84,-68,-9,15710,12464,12636,11231,23777,4
-111,-17,-1,15773,12438,12610,11231,23847,4
-20,29,-5,16483,12424,12972,11206,24081,4
494,-77,-30,16882,12411,13301,11280,24129,4
-88,6,-24,17565,12424,13636,11317,24294,4
-108,-35,20,17634,12280,13735,11403,24414,4
476,96,-83,17426,12060,13468,11403,24342,4
997,71,-81,17237,11906,13163,11366,24223,4
511,28,-46,17495,11881,13136,11354,24247,4
168,126,-67,17306,11779,12959,11317,24223,4
-31,-23,45,17016,11754,12878,11317,24058,4
-55,20,44,16932,11817,12864,11280,24105,4
-129,-87,10,17169,12189,12959,11268,24105,4
-11,-26,23,17169,12477,12905,11304,24081,4
94,-42,-11,17050,12596,12918,11304,24105,4
48,-20,5,16949,12556,12905,11280,24081,4
-12,47,-31,17016,12543,12851,11268,24034,4
507,76,-50,17323,12477,12810,11317,24223,4
-213,32,-17,17118,12320,12504,11304,24199,4
-433,29,54,17016,12215,12346,11280,24223,4
-440,107,32,16681,12137,12124,11206,24152,4
-276,-190,31,16450,12060,12047,11170,24129,4
-432,-130,8,16319,12034,11983,11133,24034,4
-32,8,88,17272,12112,12060,11145,23987,4
173,57,-34,16949,12086,12047,11121,23847,4
18,34,26,16831,12073,12060,11170,23894,4
-43,-39,-5,16434,12021,11983,11109,23824,4
-154,-7,22,16287,12009,12009,11170,23894,4
-294,-65,65,16173,12009,11970,11157,23870,4
-138,-40,28,15948,11970,11970,11157,23964,4
14,-33,50,15710,11957,11983,11157,23847,4
116,61,12,15600,11996,11957,11157,23777,4
69,65,10,15600,11983,11957,11157,23754,4
-34,23,38,15647,11957,11970,11170,23707,4
-12,5,55,15710,11881,11996,11170,23754,4
304,116,118,16157,11906,12372,11194,24081,4
-12,59,29,16516,11919,12743,11194,24223,4
-8,101,-27,16598,11868,12797,11157,24247,4
11,35,19,16632,11881,12743,11170,24129,4
-4,-54,49,16632,11868,12770,11170,24129,4
-56,-10,2,16549,11855,12797,11157,24058,4
-9,12,-7,16499,11855,12905,11182,24034,4
23,26,-49,16582,11855,13013,11206,24034,4
27,83,-25,16615,11868,13109,11182,23940,4
-30,79,-28,16615,11855,13260,11170,23940,4
-3,-29,31,16632,11881,13468,11170,23964,4
38,9,90,16516,11919,13357,11157,23964,4
-49,41,-21,16434,11906,13412,11170,23964,4
-241,9,-28,16417,11932,13371,11170,24034,4
-104,-12,1,16417,11906,13371,11206,24034,4
28,8,-16,16352,11868,13398,11182,23940,4
-22,-18,-9,16352,11957,13398,11170,23940,4
34,30,-8,16417,11957,13398,11182,23964,4
-74,-45,-17,16450,11944,13343,11157,23870,4
-61,-58,66,16483,11932,13343,11157,23917,4
-45,-123,28,16499,11944,13232,11182,23847,4
11,-59,11,16499,11932,13191,11170,23777,4
0,-28,-13,16565,11932,13177,11157,23754,4
51,-4,15,16681,11893,13136,11157,23800,4
19,-19,-8,16681,11906,13027,11133,23870,4
-4,-12,0,16681,11881,13013,11133,23777,4
31,-14,48,16615,11906,12986,11157,23777,4
-26,72,-33,16648,11906,12959,11170,23661,4
-5,50,1,16632,11893,12959,11157,23707,4
-19,26,5,16715,11906,12932,11170,23661,4
32,1,-9,16632,11868,12932,11133,23684,4
65,70,-60,16615,11919,12959,11157,23684,4
18,86,-10,16598,12073,12959,11182,23615,4
-7,28,18,16648,12124,12959,11170,23661,4
51,28,33,16549,12163,12945,11157,23754,4
47,120,-27,16632,12124,12959,11157,23824,4
38,244,-59,16615,12060,12864,11157,23777,4
-96,62,-12,16499,11957,12797,11194,23707,4
-37,-123,32,16450,11957,12770,11170,23661,4
-57,-91,61,16417,11983,12824,11194,23661,4
36,-16,-6,16450,11970,12810,11182,23638,4
33,21,-46,16368,11957,12797,11157,23661,4
25,-33,6,16303,11957,12810,11157,23684,4
-33,-20,1,16352,11957,12797,11206,23592,4
30,-98,30,16303,11957,12797,11194,23661,4
-21,-27,16,16417,11996,12824,11206,23569,4
-5,0,5,16417,11970,12810,11219,23569,4
-24,-36,23,16434,12009,12797,11182,23569,4
-2,-19,-10,16499,11970,12797,11157,23569,4
0,58,-6,16499,11983,12797,11170,23522,4
-16,-31,-2,16499,11970,12797,11157,23546,4
8,-2,21,16582,11983,12770,11206,23569,4
11,11,-17,16549,12009,12810,11157,23522,4
-9,-23,9,16549,12009,12797,11157,23522,4
-19,-37,22,16549,11970,12756,11157,23477,4
12,1,-1,16499,12009,12770,11182,23522,4
-5,-54,26,16483,11970,12756,11157,23499,4
-49,83,-26,16632,12073,12824,11182,23569,4
21,47,-45,16483,12047,12783,11170,23638,4
40,68,-18,16434,12060,12797,11182,23569,4
35,-25,13,16516,12060,12824,11157,23615,4
42,-17,7,16632,12034,12810,11170,23592,4
31,13,12,16748,12034,12824,11182,23569,4
-17,-2,14,16681,12060,12824,11182,23569,4
-8,-72,4,16615,12034,12810,11170,23615,4
-3,0,-11,16632,12047,12783,11206,23569,4
10,2,-12,16632,12086,12797,11157,23569,4
8,-34,21,16582,12073,12797,11157,23615,4
26,-22,18,16582,12034,12783,11206,23569,4
3,-21,3,16615,12060,12770,11170,23477,4
-8,-46,15,16598,12086,12810,11170,23477,4
4,9,-9,16549,12073,12797,11170,23522,4
-23,10,-22,16549,12176,12797,11170,23499,4
-102,3,10,16549,12176,12797,11170,23615,4
10,10,13,16615,12176,12851,11170,23569,4
24,54,-15,16499,12189,12770,11170,23477,4
36,46,-7,16434,12112,12636,11206,23569,4
65,32,-17,16434,12124,12610,11206,23522,4
-62,56,-2,16385,12073,12596,11182,23499,4
18,7,-10,16352,12112,12583,11157,23569,4
408,11,-49,16303,12086,12583,11219,23522,4
285,-77,-46,16271,12086,12583,11206,23522,4
0,-49,-15,16222,12124,12530,11206,23522,4
-51,34,-8,16173,12086,12596,11206,23477,4
98,46,-13,16157,12112,12543,11219,23569,4
-24,19,10,16125,12099,12543,11170,23569,4
-59,50,-33,16109,12112,12504,11157,23546,4
-48,60,28,16157,12073,12517,11231,23499,4
-1,-86,25,16238,12086,12530,11182,23431,4
-14,-211,117,16450,12086,12530,11157,23592,4
55,-39,15,16565,12086,12504,11182,23522,4
-45,-4,5,16549,12086,12504,11182,23477,4
-24,-11,-33,16499,12073,12543,11206,23431,4
1,1,12,16467,12060,12477,11182,23522,4
-50,10,-10,16450,12112,12543,11206,23499,4
-42,30,13,16434,12086,12530,11182,23477,4
-32,60,-19,16352,12073,12490,11170,23477,4
-54,32,36,16417,12060,12504,11206,23431,4
-18,59,-2,16352,12112,12543,11206,23454,4
73,-15,16,16352,12060,12530,11182,23477,4
-24,-20,20,16352,12137,12543,11231,23431,4
10,-18,4,16385,12176,12583,11194,23431,4
20,62,-9,16303,12137,12543,11219,23454,4
21,101,-9,16271,12112,12543,11206,23454,4
-22,-17,99,16238,12124,12543,11206,23316,4
96,-36,106,16189,12112,12543,11206,23431,4
1,4,73,16189,12150,12530,11206,23385,4
53,-61,35,16109,12112,12530,11231,23112,4
31,-32,66,16238,12124,12570,11206,23067,4
32,27,31,16450,12280,12636,11231,23135,4
43,95,7,16582,12280,12663,11255,22999,4
-183,56,-17,16815,12333,12663,11219,23044,4
-39,-50,-21,16748,12293,12636,11206,23044,4
11,-37,16,16632,12280,12583,11219,22999,4
10,-56,-17,16549,12333,12583,11219,22932,4
74,-35,7,16499,12293,12543,11255,22887,4
-14,0,7,16499,12320,12596,11206,22932,4
0,-44,-7,16417,12320,12583,11231,22955,4
8,-7,9,16385,12280,12596,11219,22887,4
-3,-76,26,16368,12280,12583,11268,22932,4
12,-37,-3,16385,12320,12583,11317,22910,4
6,21,5,16401,12280,12583,11354,22932,4
-25,1,-11,16368,12333,12570,11366,22843,4
-59,46,-38,16434,12293,12596,11379,22887,4
6,26,-43,16434,12293,12583,11354,22887,4
-5,-56,0,16417,12280,12610,11354,22887,4
-11,-23,-6,16368,12320,12596,11329,22843,4
21,13,-22,16319,12293,12583,11354,22798,4
21,-3,20,16319,12280,12570,11317,22887,4
21,-7,-10,16303,12267,12583,11354,22865,4
-11,-11,-6,16287,12267,12583,11379,22865,4
-1,8,5,16303,12293,12583,11379,22820,4
0,-16,-1,16352,12306,12583,11379,22887,4
9,11,15,16352,12346,12556,11379,22820,4
13,-7,6,16352,12280,12570,11366,22776,4
5,9,-13,16336,12280,12543,11379,22754,4
-3,24,4,16368,12280,12570,11403,22843,4
21,-34,9,16319,12320,12583,11391,22865,4
2,19,-4,16303,12280,12583,11403,22865,4
-32,-8,-10,16352,12293,12596,11379,22887,4
25,25,2,16303,12280,12583,11379,22820,4
0,8,-3,16385,12267,12596,11379,22843,4
23,14,-12,16368,12320,12583,11403,22843,4
21,-9,6,16336,12306,12570,11416,23135,4
-1,-38,-2,16352,12320,12583,11403,22798,4
20,26,-3,16303,12280,12570,11403,22843,4
19,32,-9,16352,12320,12570,11428,22776,4
0,42,-25,16303,12320,12570,11416,22865,4
-9,13,-12,16336,12280,12556,11403,22820,4
-5,-17,10,16368,12280,12583,11403,22776,4
-23,-34,4,16303,12254,12556,11403,22843,4
36,-5,-9,16352,12254,12596,11403,22754,4
13,16,24,16352,12267,12583,11416,22754,4
-12,26,-4,16385,12320,12570,11428,22776,4
-16,5,-35,16336,12280,12570,11428,22820,4
-12,20,12,16352,12293,12583,11416,22843,4
17,-16,13,16303,12280,12583,11403,22776,4
26,-17,-4,16368,12267,12583,11403,22754,4
-8,20,3,16336,12280,12583,11403,22798,4
-4,-24,-1,16303,12254,12556,11428,22798,4
2,38,-4,16352,12293,12596,11428,22776,4
-5,31,-63,16319,12267,12583,11416,22843,4
-58,28,-45,16352,12267,12596,11403,22776,4
-81,44,27,16417,12267,12610,11453,22843,4
46,-45,-15,16417,12267,12583,11428,22865,4
64,-55,73,16385,12267,12610,11428,22776,4
-76,110,-2,16368,12241,12596,11428,22776,4
-108,91,16,16368,12280,12583,11453,22843,4
-31,24,7,16385,12215,12583,11416,22776,4
-6,-24,-11,16368,12215,12583,11453,22754,4
20,-54,41,16336,12215,12610,11403,22798,4
-13,16,-22,16385,12215,12596,11453,22754,4
4,30,-8,16385,12241,12583,11403,22798,4
44,-9,-15,16385,12228,12583,11453,22798,4
22,29,-46,16417,12215,12583,11453,22843,4
-122,-6,-1,16499,12163,12543,11403,22843,4
-48,-4,0,16385,12228,12543,11465,22843,4
-3,4,-38,16222,12228,12504,11428,22843,4
32,-19,-38,16173,12215,12543,11453,22843,4
-14,17,-32,16157,12267,12530,11453,22865,4
-69,6,10,16157,12267,12610,11453,22798,4
13,-41,-6,16222,12280,12610,11428,22754,4
-53,-72,-7,16222,12267,12596,11416,22754,4
-13,17,-18,16173,12254,12610,11428,22865,4
-49,5,1,16189,12267,12649,11440,22776,4
-4,5,19,16238,12267,12636,11440,22731,4
-61,13,30,16173,12241,12636,11453,22754,4
-86,-16,-27,16287,12267,12636,11465,22754,4
19,-52,-29,16385,12280,12610,11403,22754,4
14,1,8,16352,12267,12583,11403,22776,4
27,-14,-5,16238,12215,12570,11403,22709,4
-79,51,-9,16238,12228,12530,11440,22754,4
8,37,18,16254,12189,12543,11403,22754,4
-91,49,19,16028,12163,12477,11379,22843,4
-68,32,35,15900,12137,12451,11403,22910,4
-143,69,-11,15757,12163,12424,11379,22977,4
-191,92,-23,15647,12124,12372,11366,22977,4
-129,-39,-25,15475,12034,12163,11304,22999,4
-50,-103,52,15350,11932,12009,11268,23022,4
-35,-59,19,15273,11855,11868,11280,23022,4
-65,11,-34,15227,11830,11855,11231,22977,4
5,-9,12,15165,11779,11817,11206,22955,4
-46,-16,27,15150,11779,11766,11219,23022,4
33,-42,21,15089,11754,11754,11231,23022,4
16,-24,-14,15043,11741,11754,11219,22820,4
-23,13,-2,15089,11754,11766,11206,22820,4
46,-51,14,15058,11741,11804,11206,22865,4
89,40,-39,15074,11779,11804,11206,22709,4
28,63,1,15089,11754,11766,11231,22599,4
61,38,-13,15074,11779,11804,11219,22466,4
-18,69,9,15104,11804,11817,11231,22401,4
28,20,-3,15150,11855,11868,11206,22401,4
16,5,-8,15089,11855,11842,11206,22226,4
-28,47,-22,15104,11868,11868,11219,22161,4
13,57,-30,15104,11906,11868,11206,22140,4
6,39,4,15104,11906,11868,11206,22096,4
-20,-36,8,15104,11957,11906,11206,22075,4
-41,7,15,15028,11957,11919,11255,22075,4
55,36,-21,15028,11944,11970,11231,22075,4
-10,15,-38,15150,11932,11970,11206,21989,4
15,8,-8,15150,11970,12021,11206,21967,4
-16,26,-27,15089,11957,12009,11206,21924,4
-59,-19,-10,15058,11957,12009,11206,21796,4
-3,-9,-3,15181,12073,12021,11231,21796,4
144,4,7,15288,12073,12009,11206,21882,4
34,-21,-19,15412,12099,12021,11231,21903,4
121,45,-19,15475,12137,12124,11206,21903,4
136,50,14,15506,12176,12112,11255,21882,4
29,-41,-4,15537,12163,12163,11255,21903,4
31,-31,14,15475,12150,12150,11280,21903,4
1,-49,25,15459,12189,12150,11280,21903,4
4,-15,24,15459,12176,12267,11243,21903,4
47,19,-10,15412,12163,12359,11255,21903,4
0,54,-26,15366,12215,12490,11268,21924,4
-28,-42,3,15412,12320,12703,11268,21903,4
-54,-5,-50,15397,12372,12649,11231,21882,4
-15,-37,17,15459,12385,12636,11243,21903,4
-14,1,-19,15475,12398,12663,11255,21903,4
-109,-93,50,15506,12438,12676,11206,21882,4
-7,-33,-9,15475,12451,12663,11219,21839,4
-33,-16,22,15490,12490,12636,11243,21882,4
-29,-12,-6,15553,12490,12703,11255,21860,4
2,-6,5,15757,12530,12703,11268,21882,4
-145,-23,19,15900,12477,12797,11231,21903,4
12,-17,15,15932,12451,12837,11255,21796,4
49,23,-7,15900,12280,12690,11243,21882,4
-2,9,-6,15932,12163,12530,11231,21796,4
63,58,-12,15837,12060,12517,11219,21818,4
32,44,-17,15663,12021,12424,11219,21796,4
-8,22,4,15568,12034,12320,11219,21733,4
-51,-20,25,15553,12021,12320,11219,21796,4
-23,-80,26,15663,12047,12320,11243,21796,4
-14,7,1,15663,12021,12333,11206,21818,4
19,24,-8,15647,12021,12346,11206,21754,4
-3,10,-7,15663,12034,12346,11243,21818,4
-26,20,14,15710,12021,12346,11206,21796,4
28,-17,21,15710,12021,12424,11219,21796,4
26,-8,-8,15678,12060,12385,11231,21818,4
27,34,-14,15710,12034,12398,11206,21796,4
-12,39,-5,15694,12009,12424,11255,21754,4
33,18,-9,15710,12047,12398,11206,21733,4
39,66,-37,15710,12034,12424,11243,21733,4
-7,-11,-10,15710,12060,12385,11194,21796,4
-3,19,-21,15710,12021,12398,11206,21754,4
24,-24,-12,15710,12021,12424,11182,21711,4
-7,-22,-2,15710,12060,12424,11243,21733,4
-17,-25,33,15741,12034,12385,11206,21733,4
-46,-10,-10,15726,12034,12424,11206,21796,4
6,-6,4,15773,12034,12424,11231,21754,4
-26,-50,4,15837,12021,12424,11255,21796,4
-8,-22,20,15821,12009,12424,11231,21711,4
4,-42,22,15868,12086,12424,11255,21754,4
-4,30,-10,15837,12086,12398,11206,21754,4
7,-5,28,15773,12060,12424,11219,21711,4
-56,-30,-17,15773,12086,12398,11268,21754,4
-17,1,-8,15852,12086,12424,11255,21711,4
-30,-20,1,15837,12034,12424,11255,21733,4
5,-67,19,15852,12034,12385,11231,21711,4
19,1,-3,15932,12047,12424,11268,21690,4
-5,-29,13,15916,12060,12438,11243,21711,4
21,-17,6,15964,12060,12411,11268,21711,4
11,35,-10,15932,12047,12424,11255,21733,4
6,-30,5,15964,12073,12451,11255,21754,4
12,-24,-15,15964,12073,12424,11219,21711,4
172,-44,-65,15964,12073,12424,11255,21711,4
78,6,-125,15980,12060,12438,11268,21796,4
-20,8,-22,16044,12073,12424,11243,21711,4
-6,21,7,15980,12034,12424,11206,21796,4
-17,85,1,16044,12073,12504,11255,21711,4
15,-8,-31,16109,12060,12543,11243,21669,4
-49,64,-8,16060,12112,12504,11280,21733,4
-36,-20,28,16093,12086,12543,11280,21733,4
17,10,-20,16093,12099,12543,11268,21669,4
215,-122,12,16093,12073,12543,11255,21711,4
40,51,50,16109,12112,12530,11268,21711,4
-42,73,-39,16109,12060,12504,11280,21690,4
98,-89,-51,16093,12073,12517,11268,21627,4
-7,64,21,16125,12073,12517,11292,21669,4
18,-83,-37,16173,12099,12543,11304,21627,4
-59,-108,-98,16189,12112,12543,11341,21606,4
148,127,-20,16206,12086,12543,11317,21669,4
103,5,-2,16222,12124,12517,11354,21648,4
5,-41,25,16222,12176,12690,11341,21648,4
10,106,60,16173,12124,12636,11292,21542,4
37,24,-29,16238,12124,12610,11354,21563,4
241,-20,-31,16287,12124,12636,11317,21563,4
-75,126,52,16222,12189,12596,11366,21542,4
-75,78,-21,16238,12124,12596,11317,21563,4
-50,-28,-12,16303,12112,12556,11317,21542,4
-64,-7,56,16287,12112,12636,11366,21584,4
-34,3,7,16287,12163,12583,11304,21500,4
-23,-2,-35,16254,12150,12556,11354,21542,4
-15,33,-6,16238,12112,12583,11354,21563,4
-93,33,13,16222,12112,12596,11379,21479,4
17,114,-65,16222,12163,12649,11453,21500,4
-62,29,-39,16287,12124,12583,11428,21458,4
174,-139,-22,16254,12163,12623,11403,21500,4
-31,-91,-10,16222,12112,12570,11465,21521,4
42,-130,-65,16238,12112,12623,11416,21563,4
83,-190,-71,16287,12124,12583,11453,21542,4
89,-51,-129,16352,12124,12596,11403,21542,4
-24,28,-49,16385,12124,12636,11428,21479,4
-77,39,-8,16434,12150,12623,11416,21500,4
-30,-87,-3,16483,12163,12636,11465,21521,4
77,-115,15,16450,12073,12583,11453,21542,4
244,-95,-14,16467,12124,12583,11453,21521,4
7,-82,70,16499,12124,12596,11465,21500,4
-43,56,101,16499,12137,12596,11453,21563,4
-67,-83,111,16499,12112,12636,11465,21563,4
162,-277,100,16765,12124,12864,11453,21479,4
127,32,-144,16748,12124,12891,11478,21627,4
-33,-8,0,16698,12163,12851,11515,21521,4
37,-13,-51,16715,12137,12824,11503,21500,4
234,-135,-9,16831,12124,12851,11465,21479,4
28,6,-5,16915,12163,12851,11528,21542,4
-627,175,50,16898,12163,12824,11515,21500,4
-73,25,28,16898,12086,12851,11465,21521,4
234,36,-54,16898,12073,12824,11528,21479,4
2,20,-96,16882,12112,12851,11540,21542,4
181,-71,-68,16882,12112,12864,11503,21500,4
-183,-30,47,16915,12099,12837,11453,21563,4
131,95,-71,16949,12163,12864,11503,21563,4
58,-27,-31,16681,12137,12797,11503,21542,4
-65,-36,54,16532,12124,12770,11503,21458,4
121,-77,39,16615,12163,12810,11540,21542,4
-84,70,87,16632,12163,12810,11503,21542,4
94,-225,67,16549,12163,12797,11503,21563,4
-261,274,24,16516,12137,12797,11503,21395,4
-93,94,-12,16434,12137,12770,11540,21375,4
-62,32,130,16352,12124,12756,11503,21312,4
-26,31,-25,16483,12112,12783,11503,21395,4
-41,-32,57,16352,12112,12756,11515,21375,4
35,40,-11,16516,12163,12770,11503,21229,4
-53,27,43,16549,12137,12810,11565,21312,4
-102,9,-37,16499,12124,12743,11553,21395,4
-290,37,92,16499,12163,12797,11553,21312,4
23,-35,-3,16483,12150,12797,11540,21229,4
-13,13,-15,16483,12073,12810,11603,21291,4
-9,-1,-2,16516,12163,12810,11603,21375,4
41,-6,-40,16516,12163,12851,11565,21270,4
4,27,14,16565,12163,12864,11603,21312,4
156,39,-32,16632,12112,12810,11565,21375,4
-17,-28,-11,16499,12137,12797,11578,21250,4
-1,-24,30,16483,12112,12864,11553,21291,4
-3,55,-20,16615,12124,12878,11528,21291,4
7,-9,37,16499,12086,12824,11603,21333,4
98,21,-48,16467,12124,12851,11615,21333,4
20,8,-1,16549,12124,12851,11553,21312,4
9,25,1,16549,12112,12810,11553,21291,4
32,-15,-17,16450,12124,12810,11553,21291,4
119,47,-32,16417,12073,12797,11603,21395,4
33,37,-21,16352,12137,12770,11565,21395,4
75,-38,-78,16368,12137,12756,11603,21375,4
-29,-187,33,16254,12060,12743,11553,21395,4
-8,-71,20,16271,12086,12716,11565,21312,4
55,-15,5,16222,12112,12690,11515,21250,4
101,-26,5,16238,12124,12743,11565,21291,4
-21,70,-75,16238,12124,12703,11565,21291,4
-56,-11,39,16093,12112,12716,11615,21250,4
-53,1,14,16125,12099,12703,11615,21354,4
-32,12,40,16157,12112,12743,11553,21312,4
80,0,2,16222,12124,12703,11565,21354,4
121,-11,-39,16173,12124,12756,11553,21270,4
7,54,-33,16173,12112,12797,11565,21375,4
-17,44,-13,16141,12073,12756,11553,21229,4
-10,16,-2,16206,12099,12756,11578,21229,4
3,2,9,16189,12060,12756,11578,21208,4
4,-4,-3,16238,12124,12770,11615,21291,4
-42,22,-10,16238,12112,12743,11615,21250,4
92,-3,-21,16271,12086,12797,11590,21250,4
-1,-30,-17,16222,12073,12770,11603,21208,4
-43,6,-50,16287,12112,12770,11540,21187,4
3,-15,10,16238,12060,12797,11565,21312,4
-16,12,-16,16303,12112,12824,11565,21229,4
-5,2,-48,16287,12137,12797,11553,21270,4
-58,-7,11,16303,12112,12824,11603,21208,4
-12,-1,-22,16417,12086,12797,11565,21187,4
-16,18,-3,16798,12086,12756,11603,21354,4
-9,-1,-14,16698,12124,12824,11628,21291,4
11,-12,34,16681,12124,12770,11565,21312,4
-23,3,-16,16681,12137,12851,11565,21395,4
-23,15,1,16815,12137,12797,11628,21375,4
-54,63,-56,16966,12112,12824,11628,21333,4
79,24,18,16815,12086,12851,11565,21395,4
133,1,-18,16798,12086,12824,11603,21375,4
59,-59,-45,16765,12215,12810,11578,21333,4
-18,9,30,16715,12215,12797,11553,21437,4
-10,-56,-43,16748,12189,12797,11603,21395,4
-17,5,25,16765,12228,12851,11628,21375,4
-7,-20,35,16681,12176,12797,11565,21479,4
28,-13,0,16731,12228,12851,11565,21312,4
59,8,7,16748,12228,12810,11603,21395,4
4,37,-13,16698,12189,12851,11615,21312,4
-55,26,23,16698,12215,12851,11628,21416,4
33,-2,26,16765,12241,12797,11578,21333,4
27,17,-7,16815,12241,12797,11578,21312,4
-14,18,8,16865,12267,12824,11653,21250,4
-19,-4,31,16781,12241,12864,11678,21375,4
-19,-35,-4,16815,12267,12864,11665,21395,4
-10,-20,21,16865,12228,12851,11691,21375,4
-13,-6,-26,16882,12189,12905,11678,21291,4
1,16,9,16815,12215,12851,11703,21291,4
6,31,3,16781,12176,12905,11653,21375,4
-1,-18,5,16748,12176,12851,11703,21291,4
-14,12,2,16815,12241,12824,11678,21291,4
-3,-36,5,16831,12241,12878,11678,21333,4
8,-20,-2,16748,12189,12864,11703,21312,4
12,8,-11,16748,12228,12864,11703,21270,4
-6,-10,9,16865,12254,12891,11678,21375,4
-3,-10,-7,16748,12228,12905,11665,21291,4
-10,-27,-1,16831,12176,12905,11678,21375,4
-1,-5,-16,16815,12228,12891,11703,21395,4
-45,32,-14,16831,12189,12810,11678,21312,4
-271,14,42,16966,12228,12824,11653,21375,4
-106,177,31,16966,12228,12891,11678,21479,4
-53,112,56,16898,12215,12878,11754,21521,4
-324,8,52,16831,12189,13232,11716,21648,4
-316,-15,89,16748,12228,13246,11678,21606,4
-406,1,58,16615,12215,13177,11703,21627,4
-329,56,82,16483,12241,13177,11754,21542,4
-313,110,15,16417,12372,13177,11653,21563,4
-197,8,7,16287,12398,13122,11603,21627,4
-51,-48,40,16093,12346,13068,11553,21584,4
37,-28,3,16189,12385,13040,11528,21479,4
220,-91,-31,16141,12385,13040,11528,21458,4
263,-60,-107,16076,12372,12972,11515,21458,4
89,18,-46,16060,12424,13013,11478,21416,4
82,-20,36,16093,12411,13027,11553,21479,4
-38,46,-72,16125,12424,12972,11528,21375,4
-59,-80,64,16060,12424,12972,11503,21500,4
-57,-82,-3,16076,12372,13027,11578,21333,4
-27,69,-26,16060,12346,13013,11578,21375,4
-12,-64,10,16093,12346,12986,11515,21437,4
-27,42,30,16093,12346,12959,11553,21375,4
13,-9,-1,16109,12333,13027,11553,21354,4
62,-25,-29,16093,12398,12972,11515,21312,4
-7,26,9,16060,12346,13027,11503,21395,4
62,22,-12,16093,12372,12999,11503,21375,4
357,-86,-90,16060,12372,13013,11515,21312,4
-225,109,-23,16076,12372,13027,11515,21375,4
-75,79,-26,16125,12346,13040,11553,21395,4
37,45,84,16093,12385,13068,11515,21312,4
-57,-25,-45,16109,12346,12972,11515,21375,4
-15,-54,34,16109,12346,13013,11578,21437,4
27,30,-22,16157,12372,13040,11528,21375,4
7,-24,37,16157,12320,13027,11503,21312,4
-14,23,29,16157,12346,13013,11503,21333,4
62,-15,11,16125,12320,12986,11528,21416,4
30,-21,-8,16076,12372,13013,11503,21312,4
-33,23,7,15996,12320,12972,11528,21416,4
-62,-8,12,15980,12280,12932,11565,21395,4
-61,31,16,16093,12346,12959,11515,21395,4
-28,24,-20,15980,12306,12918,11553,21375,4
-25,-8,19,15964,12280,12959,11503,21333,4
40,11,-4,15996,12320,12891,11528,21375,4
3,22,-5,15980,12346,12905,11515,21291,4
14,-16,33,15980,12320,12905,11503,21375,4
9,-10,-12,16060,12280,12905,11515,21270,4
16,-92,2,16060,12293,12932,11553,21375,4
18,-4,-36,16093,12359,12878,11553,21333,4
80,15,-68,16012,12293,12905,11515,21312,4
36,-44,12,15916,12320,12851,11490,21312,4
85,19,6,15900,12346,12878,11553,21458,4
5,-46,21,15900,12346,12932,11503,21458,4
-84,-16,12,15789,12385,12851,11553,21333,4
-50,-36,18,15980,12490,12932,11503,21291,4
-18,15,1,16044,12464,13013,11565,21291,4
-9,-13,12,15948,12424,13013,11528,21333,4
-2,34,15,16044,12424,12905,11553,21250,4
-4,21,3,16028,12359,12959,11503,21333,4
21,9,9,15964,12346,12905,11503,21229,4
30,18,5,16028,12359,12959,11553,21291,4
-100,4,18,15980,12346,12972,11528,21354,4
-68,-22,14,15964,12346,12959,11528,21250,4
-42,-72,58,15964,12359,12878,11553,21375,4
-272,-90,127,15932,12306,12891,11503,21479,4
-326,-59,102,15916,12215,12851,11515,21500,4
-36,91,-29,15916,12112,12649,11503,21500,4
5,34,38,15821,12009,12543,11478,21458,4
17,-28,-26,15710,12009,12424,11503,21416,4
26,-20,3,15584,12021,12385,11465,21416,4
165,-11,-25,15475,12009,12346,11453,21479,4
-4,30,-28,15273,12086,12306,11453,21437,4
-3,-69,-9,15058,12021,12150,11453,21395,4
-48,-8,-14,15089,12021,12060,11416,21375,4
78,6,-23,15028,11957,11996,11465,21416,4
34,-7,25,14922,12009,11970,11366,21416,4
111,-96,7,14922,11983,11970,11366,21333,4
-74,-118,-48,14801,11957,11906,11354,21437,4
-104,108,69,14786,11919,11804,11280,21354,4
-175,8,65,14756,11804,11804,11304,21375,4
-58,8,64,14786,11754,11855,11304,21542,4
-204,254,70,14861,11766,12034,11304,21584,4
-4,-85,25,14876,11691,12086,11354,21669,4
40,-79,94,14907,11678,12021,11379,21648,4
123,67,38,15074,11565,12112,11341,21818,4
-114,13,7,15600,11578,12241,11317,21967,4
-72,16,3,15553,11528,12137,11366,21882,4
59,81,-28,15459,11503,12163,11354,21903,4
76,-12,7,15428,11503,12124,11354,21860,4
154,38,-21,15366,11465,12124,11366,21860,4
-18,12,-2,15258,11490,12086,11317,21796,4
-76,-28,16,15058,11465,12034,11366,21796,4
-168,-32,55,14967,11428,12009,11329,21839,4
108,-98,25,14907,11465,12021,11354,21818,4
-2,-10,3,14786,11515,12060,11292,21839,4
-1,-4,-23,14636,11553,12060,11366,21882,4
-5,-55,10,14607,11603,12021,11354,21882,4
-75,15,-10,14562,11615,12021,11366,21882,4
-20,12,19,14666,11590,12021,11304,21754,4
22,2,-24,14666,11565,12047,11317,21754,4
33,-71,20,14621,11615,12009,11280,21542,4
90,-21,-20,14846,11665,12073,11366,21416,4
617,-53,-98,14876,11703,12124,11317,21416,4
935,-144,-143,14967,11703,12112,11379,21437,4
90,-21,-28,14891,11703,12060,11391,21375,4
-11,8,1,14801,11728,12124,11366,21312,4
-35,30,0,14726,11741,12112,11379,21270,4
-46,-69,-7,14726,11754,12060,11354,21312,4
-76,1,-16,14741,11728,12060,11304,21208,4
-71,10,32,14786,11779,12112,11304,21167,4
-106,-23,54,14756,11728,12073,11268,21208,4
-64,2,22,14726,11804,12086,11317,21167,4
-67,-45,55,14846,11766,12073,11268,21125,4
-40,22,45,14801,11804,12112,11304,21146,4
-60,-27,40,14967,11804,12124,11354,21167,4
-33,-29,76,14997,11766,12073,11341,21208,4
-35,-38,84,14982,11703,12150,11304,21208,4
11,-1,5,15089,11665,12124,11304,21125,4
-15,-64,15,15028,11665,12124,11304,21146,4
-12,-9,-31,15089,11678,12124,11329,21208,4
-21,26,-5,15043,11703,12163,11268,21208,4
-23,58,-14,14997,11653,12163,11329,20879,4
-171,28,-17,15537,11868,12583,11354,21084,4
34,-8,7,15490,11919,12610,11416,21167,4
-50,0,-17,15475,11906,12543,11465,21146,4
35,-3,-22,15475,11855,12543,11490,21146,4
18,-51,62,15521,11881,12543,11503,21105,4
-28,-9,13,15631,11830,12596,11503,21105,4
3,-46,-24,15615,11804,12596,11416,21167,4
62,-25,-50,15600,11754,12530,11478,21250,4
-10,-17,-22,15584,11804,12583,11428,21208,4
-27,30,13,15443,11804,12504,11453,21125,4
68,106,-104,15366,11754,12504,11440,21084,4
-69,3,-76,15242,11766,12464,11416,21187,4
-34,-22,-50,15242,11766,12477,11416,21187,4
63,56,-52,15211,11766,12477,11416,21167,4
192,143,-63,15150,11766,12424,11416,21229,4
-69,-16,9,15089,11817,12451,11416,21208,4
20,31,28,15165,11817,12477,11366,21125,4
-63,66,-17,15104,11804,12451,11465,21043,4
-16,35,-2,15181,11779,12477,11416,21084,4
13,-35,-64,15119,11804,12490,11416,21125,4
31,8,27,15104,11830,12477,11453,21043,4
-42,-1,0,15089,11804,12451,11503,21043,4
-21,-2,1,15074,11804,12477,11578,21043,4
2,-20,7,15013,11817,12477,11565,21105,4
-35,-3,-8,14982,11804,12490,11578,21043,4
-3,10,20,14982,11855,12477,11565,21146,4
5,-28,-3,14967,11855,12530,11603,21064,4
-7,60,29,14982,11855,12477,11603,21125,4
-33,61,32,14967,11842,12464,11628,21002,4
10,-59,11,14922,11855,12504,11615,21043,4
33,-9,-2,14876,11893,12451,11640,21002,4
13,-4,3,14861,11830,12451,11678,21043,4
-24,-4,13,14907,11842,12438,11703,21043,4
6,-9,8,14846,11817,12451,11703,20838,4
-45,0,35,14876,11855,12477,11754,20798,4
-20,-14,8,15058,11855,12477,11754,20777,4
47,-45,-21,15227,11855,12490,11766,20737,4
-26,12,-9,15242,11855,12490,11741,20737,4
-9,-22,15,15181,11842,12504,11766,20777,4
18,-52,6,15089,11868,12477,11779,20737,4
13,-7,4,14982,11855,12477,11754,20716,4
37,42,13,14997,11855,12477,11728,20798,4
28,-45,2,15013,11868,12451,11754,20716,4
-14,-18,18,15028,11881,12477,11779,20777,4
35,35,11,15043,11868,12464,11804,20716,4
8,-3,7,15043,11830,12451,11779,20798,4
-19,-8,7,14967,11855,12398,11804,20716,4
5,-1,12,14967,11817,12372,11804,20818,4
16,8,3,14922,11855,12372,11804,20818,4
-10,-1,5,14891,11804,12385,11804,20757,4
-80,-9,7,14876,11855,12398,11779,20737,4
-36,-36,37,14876,11804,12398,11868,20818,4
-51,-37,18,14846,11817,12372,11881,20798,4
28,-15,-5,14876,11804,12372,11855,20798,4
-7,-28,-10,14891,11830,12346,11906,20757,4
-22,44,17,14876,11868,12385,11906,20757,4
-15,6,7,14861,11804,12385,11932,20818,4
36,20,18,14907,11868,12424,11957,20798,4
-11,14,7,14907,11817,12398,12009,20838,4