GyroX,GyroY,GyroZ,Thumb,Index,Middle,Ring,Pinky,Gesture
-7,-13,4,17220,11665,41176,30715,26202,2
-2,4,9,17237,11665,41044,30715,26150,2
-28,-3,12,17272,11628,41000,30715,26150,2
-13,27,5,17254,11615,41044,30715,26150,2
5,1,4,17289,11603,41044,30653,26202,2
-15,11,6,17220,11578,41132,30715,26228,2
6,6,5,17254,11565,41132,30715,26228,2
38,10,22,17306,11503,41176,30591,26124,2
11,-36,19,17323,11453,41221,30591,26124,2
31,-127,59,17374,11317,41132,30226,25996,2
-60,-154,126,17254,11255,40519,29538,25641,2
-68,-70,84,17118,11194,40259,29158,25465,2
-40,9,89,16949,11170,39960,29042,25316,2
-3,-58,44,17016,11157,39832,28984,25266,2
-27,12,53,17067,11157,39747,28869,25241,2
-34,-37,40,17016,11157,39747,28726,25093,2
-14,48,36,16949,11133,39244,28783,25266,2
-109,20,62,16865,11268,39036,29042,26461,2
-37,-87,17,16748,11157,38953,29362,27364,2
-8,33,9,16748,11157,38953,30195,28498,2
-6,25,-13,16715,11157,39327,30715,29568,2
15,-22,-35,16715,11157,39411,30377,28955,2
-11,89,-17,16698,11145,39578,30015,28357,2
-21,28,17,16598,11170,39327,29984,28133,2
35,13,-20,16549,11157,39327,29925,28022,2
56,10,-27,16549,11157,39327,29775,27939,2
59,-13,-12,16615,11170,39369,29865,27939,2
46,-14,-23,16615,11157,39285,29865,27883,2
69,-34,-30,16615,11121,39327,29865,27800,2
-3,-1,0,16549,11157,39285,29775,27718,2
-33,11,23,16516,11182,39285,29746,27718,2
-25,-56,64,16582,11182,39160,29746,27636,2
-96,8,69,16532,11133,39327,29746,27527,2
-122,112,96,16499,11280,39327,29568,27527,2
-17,215,-18,16565,11133,39327,29627,27499,2
33,78,-15,16565,11170,39244,29538,27148,2
-114,27,8,16483,11170,39160,29421,27041,2
-36,9,11,16467,11157,39036,29450,26935,2
-54,-2,38,16417,11182,38995,29391,26935,2
2,-1,4,16417,11157,38871,29333,26855,2
-52,48,7,16417,11182,38995,29274,26988,2
-94,41,15,16352,11157,39119,29421,26829,2
-79,64,73,16417,11182,39705,29391,26935,2
77,-114,114,17357,11219,39960,29450,26961,2
-184,-263,-11,19306,11503,39285,29274,26566,2
77,-75,-26,20196,11665,39244,28754,26253,2
-162,-47,-45,20335,11792,39077,28527,26305,2
-21,24,15,19689,11754,38707,28669,26435,2
-123,-29,77,19287,11691,38585,29391,27581,2
-92,-47,5,18727,11603,38382,29984,28812,2
-50,0,-49,18435,11515,38463,30377,29450,2
-70,52,0,18362,11553,38503,30226,29274,2
-217,0,68,18362,11503,38341,30045,28840,2
-154,-49,0,18164,11503,38220,29627,28498,2
50,-100,-28,18129,11503,38180,29509,28414,2
-39,-115,11,18075,11440,38260,29391,28161,2
53,-45,-66,18129,11465,38180,29304,28189,2
12,-80,-33,18218,11465,38220,29158,28105,2
-127,95,-4,18272,11453,38260,29158,28189,2
-68,3,-26,18272,11503,38260,29187,28161,2
-87,19,38,18236,11453,38140,29158,28133,2
-5,5,13,18164,11465,38220,29158,28133,2
62,53,53,18147,11428,38220,29187,28049,2
-22,62,34,18236,11453,38059,29216,27911,2
-87,-5,-10,18236,11453,38019,28812,27472,2
-38,-30,26,18200,11403,38100,28640,27310,2
-21,14,-39,18075,11453,37980,28697,27148,2
-44,11,37,17933,11416,37900,28555,27041,2
-77,-1,-17,17915,11403,37900,28527,27068,2
41,30,14,17862,11403,37980,28583,26961,2
-20,72,5,17774,11403,37860,28583,27041,2
77,34,-27,17652,11403,37741,28527,26935,2
100,-53,-3,17669,11354,37900,28527,26988,2
238,-122,-51,17722,11416,37900,28583,27015,2
37,32,-28,17722,11366,37980,28640,26961,2
-2,-15,15,17704,11366,37940,28555,27068,2
-47,119,-15,17704,11379,37900,28583,27068,2
-69,18,48,17634,11403,37940,28527,26961,2
-11,-36,-14,17582,11354,38019,28583,26961,2
-37,43,0,17634,11379,37980,28414,26935,2
-54,-32,-13,17565,11379,37940,28498,26908,2
-15,46,-5,17547,11391,37940,28470,27015,2
1,0,-4,17478,11366,37980,28555,26935,2
45,-3,-22,17513,11354,37940,28414,26882,2
71,-49,-22,17513,11329,37940,28357,26855,2
39,40,-29,17443,11329,38019,28357,26829,2
42,-32,-31,17443,11354,38019,28385,26908,2
-28,9,-16,17495,11354,38059,28385,26961,2
-47,26,12,17513,11329,38059,28470,26829,2
27,-23,-7,17426,11366,37940,28470,26961,2
9,-2,-7,17426,11354,38100,28442,26855,2
17,-13,20,17409,11366,38019,28357,26829,2
8,2,-10,17443,11354,38019,28357,26776,2
-20,23,-9,17443,11329,37980,28357,26829,2
13,2,-5,17426,11341,38059,28329,26882,2
8,-10,-6,17289,11329,38059,28189,26723,2
-5,-22,14,17306,11329,37940,28301,26802,2
29,-21,-5,17289,11317,37860,28301,26723,2
74,-32,5,17306,11329,37940,28357,26749,2
39,-36,5,17186,11317,37860,28245,26644,2
13,17,-11,17254,11354,37940,28301,26776,2
-2,54,-9,17169,11354,37860,28301,26670,2
22,-22,-13,17237,11317,37860,28301,26618,2
27,6,-6,17152,11317,37900,28301,26697,2
35,-15,-8,17152,11354,38059,28245,26670,2
4,-1,8,17169,11354,38019,28301,26618,2
-23,5,0,17135,11317,37940,28245,26670,2
-37,18,12,17101,11354,38059,28301,26644,2
25,-7,-3,17101,11366,38059,28329,26749,2
10,6,0,17084,11317,37900,28245,26566,2
23,8,-3,17084,11341,38059,28245,26644,2
35,-19,-1,17084,11354,38019,28301,26566,2
5,-9,32,17152,11304,38059,28301,26723,2
4,-26,16,17152,11391,37940,28161,26644,2
-63,-4,-2,17169,11366,37980,28105,26566,2
-20,-12,2,17220,11354,38059,28077,26513,2
-18,5,-12,17203,11329,37940,28133,26435,2
-70,-6,17,17152,11329,38059,28133,26409,2
-25,-22,17,17118,11354,37940,28133,26409,2
13,7,-3,17152,11317,37940,28133,26409,2
-32,24,8,17101,11280,37820,27994,26409,2
-25,14,-6,17084,11366,38019,27911,26409,2
-29,40,10,17033,11379,37860,27911,26331,2
17,8,-9,17033,11354,37820,27939,26383,2
-23,16,-6,17050,11304,37781,27939,26383,2
26,1,0,17033,11280,37900,27911,26331,2
-18,9,7,17101,11317,37741,27883,26435,2
27,-17,-10,17067,11341,37741,27800,26357,2
-7,8,8,17084,11304,37781,27966,26305,2
-1,-10,3,17033,11304,37860,27800,26305,2
9,-3,3,17033,11354,37860,27911,26357,2
2,2,4,16999,11304,37900,27911,26305,2
81,-41,-22,17016,11304,37860,27883,26331,2
13,7,-5,16983,11304,37820,27856,26253,2
8,11,3,17050,11329,37741,27828,26253,2
0,-4,4,17016,11317,37860,27828,26253,2
5,2,5,17016,11329,37820,27856,26357,2
18,1,-6,17016,11341,37900,27911,26409,2
-14,28,6,17050,11304,37701,27828,26305,2
18,-4,-2,17016,11366,37820,27856,26253,2
8,3,4,17016,11354,37781,27800,26253,2
-4,18,8,17050,11329,37820,27911,26228,2
-11,-1,9,16999,11304,37781,27911,26383,2
12,-12,-2,17050,11317,37701,27828,26305,2
17,-13,2,16999,11329,37820,27800,26331,2
17,0,-9,17050,11329,37820,27911,26305,2
3,-24,0,17033,11304,37781,27800,26305,2
23,3,-13,17084,11354,37741,27856,26202,2
43,-45,-6,16966,11354,37701,27828,26331,2
12,-13,9,16966,11304,37701,27828,26202,2
54,-9,-7,16983,11329,37701,27800,26202,2
24,-6,-1,16983,11304,37820,27911,26305,2
-1,21,-14,17016,11304,37741,27856,26279,2
-36,55,16,17067,11379,37940,27527,26202,2
-8,5,-14,17084,11292,37900,27310,25971,2
-289,-33,-68,17084,11280,38180,27015,25818,2
27,-108,-146,16949,11255,38059,26723,25591,2
75,2,-41,16932,11268,38019,26618,25490,2
-159,-44,71,16966,11243,37781,26357,25192,2
-70,-88,78,16966,11317,37781,26047,24897,2
-220,-113,147,16949,11317,37741,25894,24558,2
-130,-154,98,16966,11304,37701,25742,24510,2
-10,14,44,16983,11243,37741,25945,24438,2
32,-19,7,17016,11304,37701,26228,24414,2
-30,10,72,16983,11255,37701,26855,24176,2
-149,-12,92,17016,11231,37701,26961,23847,2
101,25,-94,16983,11255,37820,27391,23987,2
195,95,-106,16898,11231,37543,28984,26409,2
-16,25,77,16815,11243,37465,29158,26776,2
138,92,-21,16831,11268,37701,29597,27636,2
56,-7,27,16831,11255,37662,29568,27911,2
-7,-34,5,16815,11255,37741,29538,27856,2
-90,-37,-13,16831,11255,37980,29627,27966,2
76,0,-52,16915,11255,38019,29627,28161,2
15,-55,-46,16831,11219,38140,29597,28301,2
-100,-115,73,16898,11304,38341,29686,28754,2
-11,-131,30,16865,11255,39285,30105,29274,2
-60,110,-56,16915,11255,39874,30015,29100,2
95,44,-23,16898,11268,39832,30469,29304,2
181,82,5,16882,11268,39494,30962,29158,2
6,138,-20,16781,11206,39160,31025,28726,2
-100,71,-58,16781,11366,39327,30745,28470,2
-94,77,-88,16698,11329,39369,30745,28189,2
-100,7,-85,16681,11231,39327,30499,28161,2
3,113,-78,16499,11341,39369,30347,28049,2
113,47,-75,16303,11182,39244,30165,28077,2
137,81,-37,16173,11170,39244,30105,27718,2
114,22,-62,16060,11157,39327,30105,27581,2
255,130,-83,15837,11109,39036,29835,27041,2
239,261,-121,15459,11109,38585,29421,27418,2
198,222,-75,15397,11157,38382,29391,27472,2
124,-157,25,15459,11157,38260,29391,27418,2
211,-159,-4,15537,11170,37900,29187,27283,2
242,-213,19,15615,11170,37860,29216,27256,2
485,-250,6,15647,11121,37940,29042,27256,2
460,-164,110,15837,11157,38140,29187,27472,2
-227,-35,118,15837,11170,38180,29013,27581,2
39,-136,-2,15932,11182,38382,29129,27745,2
47,-44,-26,15980,11157,38544,29187,27828,2
449,-154,-139,16060,11182,38544,29187,27966,2
121,-15,-120,16060,11182,38544,29158,27939,2
61,6,-85,16044,11304,38422,29071,27691,2
200,1,-111,16093,11133,38503,29129,27609,2
-60,90,-123,16109,11304,38503,29042,27609,2
-3,85,-11,16060,11182,38503,28984,27554,2
-69,67,45,16060,11170,38585,29071,27472,2
-24,21,4,16093,11170,38463,29042,27499,2
-44,113,-40,16028,11145,38301,28754,27364,2
49,-18,3,15932,11157,38301,28640,27148,2
-49,45,-9,15900,11170,38382,28583,27202,2
-70,42,20,15837,11121,38140,28697,27148,2
-79,81,-46,15868,11133,38180,28612,27095,2
-81,81,13,15852,11157,38100,28640,27068,2
-31,18,10,15821,11157,38140,28527,27041,2
22,-19,-11,15789,11145,38019,28527,26988,2
-13,-5,-1,15773,11157,38140,28583,27041,2
-1,36,-12,15773,11292,38180,28527,26935,2
-16,11,6,15773,11157,38220,28583,27041,2
55,24,2,15726,11109,38059,28612,26988,2
-108,4,59,15663,11121,37980,28301,26776,2
-233,188,3,15443,11072,38019,27966,26228,2
-131,311,-63,15273,11060,38180,27527,26022,2
-76,77,33,15211,11060,38100,27364,25894,2
110,38,-47,15058,11060,38100,27202,25869,2
18,25,3,14967,11024,38059,27256,25843,2
-11,-2,-25,14952,11012,37820,27256,25920,2
-17,-12,-32,14937,11012,37820,27175,25843,2
16,-70,-21,14967,11048,37741,27256,25894,2
5,-136,-39,15165,11219,37465,27202,25894,2
33,-225,23,15412,11072,37152,26882,25616,2
-62,-109,-20,15584,11060,36805,26305,24751,2
-30,-75,19,15553,11060,36767,26099,24176,2
24,8,2,15600,11048,36614,25945,24081,2
-14,-67,72,15615,11012,36424,25920,24152,2
-18,-37,24,15537,11048,36197,25843,24152,2
-68,-8,-12,15490,11060,36085,25843,24129,2
-6,-54,-4,15397,11060,36160,25818,24176,2
-36,44,24,15397,11036,36122,25818,24081,2
25,-38,11,15335,11036,36160,25843,24058,2
74,-13,-71,15335,11060,36197,25793,24058,2
61,63,-40,15304,11060,36197,25818,24152,2
22,-23,-14,15288,11036,36272,25920,24129,2
3,-33,7,15227,11060,36235,25894,24034,2
11,-22,-21,15242,11024,36386,25996,24176,2
14,-16,14,15196,11024,36424,25818,24129,2
49,21,13,15150,11036,36235,25945,24129,2
-4,15,-18,15181,11206,36310,25996,24247,2
-36,8,-2,15104,11024,36235,25894,24152,2
26,24,-25,15089,11060,36462,25869,24129,2
37,-27,-9,15104,11048,36386,25971,24176,2
13,32,-38,15089,11048,36462,25971,24223,2
65,-7,13,15119,11060,36386,25894,24223,2
-18,32,-16,15058,11060,36348,25920,24152,2
39,-20,-11,15043,11048,36499,25869,24223,2
-25,29,0,15074,11024,36348,25894,24176,2
32,-49,-5,15028,11060,36462,25894,24223,2
-45,-25,26,15074,11084,36386,25843,24176,2
36,-56,-5,15043,11060,36462,25945,24129,2
-21,4,13,15089,11072,36538,25869,24176,2
-49,48,23,15028,11048,36386,25945,24152,2
-9,-6,-36,15043,11048,36499,25843,24081,2
-61,64,4,15028,11060,36538,25869,24223,2
39,-39,-10,15043,11036,37036,25996,24152,2
40,17,7,15089,11012,37386,26022,24129,2
41,-64,13,15104,11060,37230,25894,24058,2
22,-14,-1,15104,11024,37036,25894,24176,2
28,16,6,15089,11036,36690,25818,23987,2
-12,21,-3,15028,11060,36690,25869,24058,2
-48,12,30,14997,11024,36767,25920,24081,2
-18,-17,62,15043,11231,36690,25920,24034,2
-39,62,-63,14997,11048,36805,25869,24058,2
-15,30,3,15043,11036,36805,25945,24058,2
39,-23,-18,15028,11060,36690,25920,24034,2
-16,-15,7,14982,11024,36652,25717,24034,2
-10,3,7,15043,11060,36728,25945,24129,2
31,-11,-7,15043,11060,36690,25843,24034,2
0,-10,23,15089,11036,36690,25869,24011,2
24,-35,4,15089,11060,36614,25793,24058,2
-64,65,21,15089,11024,36538,25793,24129,2
-1,39,-9,15028,11012,36576,25742,24058,2
-58,45,28,15013,11012,36614,25818,24081,2
27,-5,-4,15028,11060,36538,25742,24058,2
-21,36,-3,15089,11036,36614,25793,24034,2
18,7,-2,15089,11060,36614,25742,24129,2
43,-14,-10,15043,11036,36499,25843,24129,2
15,39,0,15089,11024,36614,25742,24058,2
-59,-20,14,15028,11060,36690,25818,24034,2
-11,-5,2,15028,11024,36690,25894,23987,2
113,1,-52,14982,11012,36614,25818,23987,2
33,10,26,14997,11036,36576,25793,23987,2
-54,100,84,14982,11060,36576,25767,24034,2
42,-2,16,14967,11024,36614,25767,24034,2
-12,3,9,14861,11036,36690,25767,23987,2
-10,38,-18,14907,11060,36614,25691,23987,2
12,-15,-6,14846,11024,36614,25793,23940,2
37,-1,8,14831,11060,36690,25717,24034,2
24,-14,-7,14801,11036,36690,25818,23987,2
-11,30,19,14801,11072,36614,25691,24034,2
-63,53,27,14801,11036,36690,25869,23964,2
-59,64,24,14801,11036,36767,25818,24081,2
-23,28,14,14786,11072,36690,25717,23987,2
-70,-6,-40,14786,11024,36767,25742,24034,2
16,-15,-20,14741,11036,36920,25818,23987,2
3,29,-31,14786,11036,36767,25793,23964,2
38,8,-47,14801,11060,36843,25717,23987,2
60,18,-31,14801,11072,36767,25843,23940,2
32,9,-29,14801,11048,36805,25742,24011,2
-38,4,-5,14801,11072,36805,25717,23940,2
-45,19,34,14801,11243,36690,25767,24034,2
-1,6,11,14816,11060,36690,25717,24011,2
28,-10,2,14801,11060,36728,25793,23964,2
-19,15,18,14801,11036,36767,25793,23964,2
-41,8,26,14876,11060,36767,25691,23940,2
-32,59,35,14982,11060,36690,25616,23870,2
-61,88,-23,14997,11012,36499,25390,23684,2
86,-41,-56,15089,11012,36386,25390,23661,2
-74,-64,-27,15288,11036,36386,25266,23546,2
-4,-56,18,15584,11072,36272,25192,23431,2
15,2,14,15710,11072,35935,25019,23385,2
-90,-34,73,15789,11060,35898,24995,23339,2
-60,67,-21,15964,11121,35712,24799,23203,2
-44,67,-52,15980,11109,35639,24606,22843,2
-45,55,-47,15996,11109,35602,24414,22357,2
-3,-112,65,16060,11084,35455,24247,22075,2
61,-172,121,16417,11121,35418,24129,21946,2
360,-238,73,16434,11109,35565,26022,23339,2
-411,-104,123,16060,11121,35787,27718,26150,2
-351,-50,140,15980,11170,36160,29805,29509,2
21,29,210,16028,11206,36235,31244,31181,2
-103,88,70,15900,11231,36386,31720,32043,2
-34,-27,22,15980,11170,36614,31119,31339,2
-138,33,62,16303,11219,36614,31056,31465,2
-260,85,109,17033,11219,36614,31276,32075,2
-717,-53,220,17374,11206,36010,30962,31978,2
-160,-34,124,17792,11231,35418,30561,31213,2
2,8,76,17986,11268,35272,30347,30561,2
-53,39,2,18272,11304,35018,30105,30165,2
-139,24,27,18057,11341,35055,30045,30015,2
73,48,-55,17704,11341,35236,29984,30105,2
-3,-22,-30,17530,11304,35236,29984,29865,2
56,61,-78,17565,11317,35272,29984,29746,2
1,48,-34,17374,11268,35127,30075,29538,2
-6,4,-61,17254,11379,35091,29925,29304,2
-56,18,31,17067,11280,35055,29865,29158,2
-18,36,-9,16915,11304,34982,29775,29071,2
7,26,11,16831,11255,35055,29746,28955,2
-22,32,-4,16815,11304,35127,29627,28955,2
-1,4,-29,16781,11268,34982,29597,28840,2
-5,7,-12,16698,11255,34982,29479,28754,2
-74,44,7,16648,11255,35127,29538,28640,2
9,31,-47,16632,11280,35018,29450,28697,2
14,6,-9,16632,11280,34982,29509,28442,2
20,27,-17,16565,11280,35018,29304,28527,2
81,10,-48,16549,11255,35055,29362,28498,2
-43,51,5,16483,11255,35091,29391,28442,2
-62,37,13,16483,11231,35127,29304,28470,2
25,1,-19,16483,11280,35163,29274,28527,2
33,2,-14,16434,11268,35236,29274,28385,2
-1,10,-33,16450,11304,35091,29274,28357,2
-19,-20,-8,16483,11255,35127,29362,28442,2
-21,0,-14,16565,11255,35055,29216,28357,2
-25,1,6,16499,11255,35055,29216,28022,2
25,-33,2,16499,11255,35055,29158,27966,2
52,-19,-25,16417,11280,34982,29013,27939,2
46,-13,-17,16368,11219,35055,29071,27966,2
23,-11,-8,16319,11243,35309,29042,28022,2
6,13,-5,16319,11304,35018,28927,27911,2
-9,9,-2,16287,11304,34910,29042,27939,2
19,-1,0,16238,11219,35018,28955,27939,2
-13,-32,-18,16287,11255,34910,28927,27883,2
-42,68,-25,16303,11268,34803,29042,27691,2
-2,-15,-3,16238,11255,34803,29042,27773,2
-20,23,5,16222,11255,34839,28898,27745,2
0,12,3,16189,11219,34874,28898,27745,2
11,-9,4,16206,11219,34910,28955,27663,2
44,11,-5,16141,11231,34946,28898,27636,2
10,18,-10,16125,11231,34839,28869,27691,2
31,28,-14,16157,11255,34803,28927,27609,2
12,30,-9,16157,11255,34874,28840,27691,2
-138,31,15,16319,11255,34982,28927,27773,2
41,5,7,16385,11206,34946,28840,27418,2
-23,-21,67,16815,11268,35163,28583,26908,2
72,76,-28,17495,11219,35055,28640,26723,2
-218,-18,-70,18200,11268,35565,27800,25641,2
103,-14,-3,18562,11280,35418,27800,25894,2
28,55,-7,18417,11317,35345,27939,26202,2
140,-15,5,18308,11379,35418,27966,26305,2
36,-19,10,18200,11304,35418,27994,26644,2
49,-71,84,17880,11268,35676,28812,28049,2
-39,-126,102,17565,11243,36010,29187,28812,2
48,-147,124,17374,11231,36010,29274,29042,2
13,-119,153,17392,11255,36160,29746,29627,2
166,-11,186,17426,11243,36122,29775,29568,2
188,-23,89,17478,11255,36160,30015,29716,2
129,42,45,17374,11231,36085,29925,29538,2
176,109,35,17220,11206,35898,29895,29187,2
69,-16,2,16949,11157,35749,29568,28726,2
62,25,9,16831,11157,35712,29391,28498,2
-4,23,37,16615,11157,35712,29304,28470,2
-45,61,16,16565,11121,35712,29187,28357,2
-49,10,-9,16434,11109,35676,29216,28245,2
33,-28,-12,16352,11096,35676,29158,28161,2
-96,69,-55,16287,11109,35749,29187,28245,2
9,32,-19,16254,11109,35712,29042,28133,2
47,-39,-27,16109,11121,35528,28927,28077,2
12,25,-31,16093,11109,35528,28812,27856,2
105,-81,-42,16060,11084,35528,28726,27800,2
-1,8,-20,15932,11072,35565,28697,27800,2
11,42,-7,15900,11072,35492,28783,27718,2
22,21,-37,15900,11121,35602,28754,27800,2
13,-56,-9,15916,11084,35602,28669,27828,2
40,-34,-3,15916,11243,35639,28640,27828,2
-7,60,-35,15868,11096,35565,28583,27718,2
-51,112,-14,15852,11072,35712,28612,27745,2
-21,-48,-42,15900,11060,35861,28697,27745,2
10,49,-43,15900,11109,35787,28697,27636,2
14,-46,-81,15916,11109,35787,28726,27581,2
29,3,-78,15868,11072,35898,28583,27581,2
-23,13,-7,15916,11109,35898,28498,27499,2
-73,48,3,15948,11133,35787,28555,27554,2
24,-11,26,15900,11121,35861,28555,27472,2
26,10,-4,15868,11072,35712,28470,27364,2
71,-50,0,15837,11072,35565,28385,27364,2
-56,-7,38,15710,11072,35787,28357,27310,2
39,100,12,15584,11072,35972,28527,27418,2
-52,34,-47,15490,11109,36310,28612,27310,2
55,-48,30,15443,11072,36576,28697,27256,2
-75,-26,-11,15428,11072,36538,28640,27095,2
-64,-16,7,15521,11109,36843,28869,27095,2
-16,49,-7,15600,11060,37230,29071,27148,2
58,-10,3,15475,11109,37114,29042,27041,2
-58,87,-2,15397,11060,37152,28869,27148,2
5,27,-33,15273,11109,37114,28927,27041,2
-7,-94,-24,15273,11096,37075,28927,27041,2
-4,-23,12,15335,11072,37036,28726,27041,2
-14,-43,-26,15335,11121,37075,28812,26882,2
-120,24,1,15227,11109,36882,28754,26829,2
34,79,-73,15335,11072,37036,28726,26855,2
42,144,-58,15443,11109,37308,28697,26829,2
48,157,-71,15475,11060,37662,28726,26855,2
21,54,-22,15397,11036,37622,28754,26829,2
24,-8,-19,15335,11012,37622,28783,26723,2
18,-29,24,15227,11036,37504,28726,26776,2
102,-29,-34,15196,11036,37426,28697,26829,2
-48,45,-6,15181,11060,37465,28612,26670,2
-9,-31,-22,15089,11219,37465,28583,26776,2
13,68,23,15104,10999,37386,28612,26670,2
12,-39,7,15089,11219,37347,28612,26670,2
-19,-67,33,15089,11012,37347,28555,26723,2
-27,-102,18,15104,10975,37269,28527,26776,2
-31,-36,-30,15119,11243,37308,28527,26829,2
-42,-47,-40,15058,11012,37308,28470,26749,2
52,-40,40,15089,11012,37347,28527,26644,2
-43,138,-8,15043,10987,37426,28527,26749,2
14,-95,38,15074,11012,37504,28498,26749,2
-57,42,-5,15043,11036,37426,28498,26670,2
33,10,-50,15074,11012,37386,28470,26670,2
-37,-42,31,15181,11012,37426,28555,26644,2
-18,132,-73,15837,10987,38100,28640,26723,2
21,140,-15,16368,10999,39036,29187,26935,2
59,-38,-28,16238,10963,39160,29391,27663,2
65,37,58,15773,11024,38463,29042,27445,2
15,21,27,15490,11012,38019,28812,27095,2
39,1,57,15350,11012,37583,28640,26935,2
34,-82,34,15288,10975,37465,28527,26855,2
-36,-149,47,15242,10975,37152,28385,26644,2
-32,99,20,15335,11012,36998,28329,26723,2
29,25,-64,15242,10987,37036,28189,26566,2
-32,-28,12,15211,11012,36998,28273,26566,2
7,8,-48,15211,11024,37036,28301,26618,2
32,-29,14,15211,11012,37075,28273,26670,2
-25,-7,-26,15150,11012,37036,28301,26566,2
-4,18,-4,15150,10975,37114,28189,26513,2
22,-2,15,15135,10975,37114,28301,26566,2
-10,26,12,15181,10987,37075,28273,26461,2
56,62,30,15211,11012,37230,28161,26409,2
111,149,-83,15227,11206,37543,28245,26461,2
51,146,-94,15211,10963,37465,28301,26435,2
56,19,-83,15196,10975,37308,28161,26331,2
4,142,-3,15135,10963,37386,28245,26305,2
20,-112,8,15089,10975,37308,28161,26357,2
91,41,-46,15028,10987,37583,28189,26409,2
156,151,-35,14982,11012,37622,28133,26331,2
125,9,36,15028,10999,37269,28022,26228,2
83,-56,18,14997,11012,36843,28049,26228,2
42,-37,43,15028,11036,36614,27691,26099,2
-9,3,-10,14952,11060,36386,27472,25996,2
1,1,6,14982,11060,36310,27418,25945,2
5,-37,1,14967,11036,36272,27391,25996,2
-39,-14,-19,14982,11060,36160,27391,25843,2
-69,87,-10,14997,11036,36197,27364,25843,2
-50,78,13,14922,11024,36122,27310,25818,2
-32,80,1,14907,10999,36310,27391,25793,2
4,-4,-42,14786,10999,36160,27364,25818,2
17,-12,-57,14801,11012,36310,27472,25793,2
-25,-11,-38,14756,10987,36197,27364,25793,2
-9,-53,40,14801,10975,36272,27364,25894,2
39,8,4,14786,11012,36197,27364,25793,2
-16,1,8,14786,10963,36160,27310,25869,2
-135,-174,11,14846,10975,36272,27310,25869,2
145,-73,30,14967,11194,36010,27283,25793,2
-104,123,-21,14907,11012,36197,27472,25894,2
-258,287,-25,14982,10987,37114,27883,25869,2
-41,60,-11,14967,11194,37230,27718,25818,2
-25,60,18,14922,11194,37075,27499,25641,2
-73,-22,25,15089,10963,37386,27310,25691,2
-18,-27,30,15104,11012,37347,27256,25616,2
45,12,-15,15028,10987,37269,27148,25666,2
-43,84,1,14861,10987,37152,27283,25616,2
6,-13,-5,14801,10963,38382,27472,25616,2
0,137,-11,14726,10951,38912,27883,25920,2
4,34,-11,14696,10987,38707,27939,25996,2
3,34,7,14621,10963,38463,27856,25920,2
8,8,2,14666,10963,38341,27800,25945,2
3,15,-27,14666,10963,38301,27745,25996,2
-1,8,39,14607,10939,38301,27718,25894,2
-16,-18,-45,14562,10975,38180,27718,25920,2
-24,-11,19,14607,10975,37900,27527,25920,2
56,-70,-8,14711,10975,37860,27527,25742,2
20,25,-4,14726,10975,37860,27554,25565,2
-144,-4,41,14607,10963,37583,27310,25390,2
75,-77,18,14488,10975,36843,26935,25019,2
-388,-203,271,14458,10939,36805,26855,24946,2
110,-216,237,14621,10975,36538,26988,25192,2
55,-40,62,14741,10963,36614,27041,25691,2
48,-30,-35,14681,10963,36462,27041,25616,2
-7,34,-11,14621,10963,36462,27041,25515,2
40,-15,-32,14607,10975,36576,27175,25490,2
12,96,-52,14607,10963,36462,27068,25465,2
0,9,-4,14577,10939,36499,27015,25390,2
9,2,-32,14562,10927,36386,27041,25341,2
-19,16,17,14562,11194,36310,26961,25216,2
-29,7,5,14488,10963,36614,27068,25316,2
-55,36,26,14488,10975,36499,27068,25266,2
-157,-26,33,14503,10963,36805,27283,25641,2
52,41,-30,14488,10963,36920,27472,25843,2
69,17,-26,14458,10963,37036,28022,26357,2
33,39,-16,14503,10987,36998,28022,26357,2
58,47,9,14562,10987,36882,28133,26618,2
-8,68,19,14696,10963,36920,28385,26723,2
-53,56,51,14741,10963,36998,29100,27581,2
11,-38,35,14801,10975,37386,31119,30226,2
39,-11,-15,14876,10987,37741,32238,32108,2
-159,23,0,14756,11012,37860,32799,33202,2
-53,-25,6,14607,10987,37940,32932,33337,2
-253,-141,22,14488,10963,37701,32765,33371,2
-282,-82,-8,14473,11012,37543,32271,33474,2
-50,-276,21,14562,11024,37781,31785,33303,2
57,-138,-87,14937,11036,38707,32043,33100,2
720,21,-86,15150,11012,38748,32765,32699,2
-145,-60,-13,15150,11012,38544,32699,32303,2
37,8,48,14997,10975,38382,32238,32238,2
48,36,-7,14846,10987,38220,31370,32402,2
89,103,-3,14741,10987,38019,31119,32402,2
6,59,8,14726,11024,37860,31150,32402,2
117,18,3,14666,10975,37820,31119,32633,2
61,-50,25,14621,11024,37781,31150,33168,2
-9,52,18,14488,11048,37940,31688,33956,2
-61,79,41,14429,11012,37781,31913,33714,2
-168,112,65,14370,11024,37860,31720,33748,2
67,58,4,14370,11036,37701,31561,33337,2
-38,5,19,14385,11048,37504,31497,33168,2
42,30,34,14385,11231,37465,31465,33303,2
-20,-17,23,14399,11012,37465,31465,33269,2
-181,-69,25,14488,10975,37543,31465,33337,2
-113,7,-9,14621,11231,37900,31593,33337,2
-72,-88,35,14726,11012,37900,31720,33236,2
-72,-54,25,14876,11012,37860,31849,32932,2
-167,-56,43,15288,11060,37940,31370,32205,2
-168,-4,48,16093,11109,37622,30684,31339,2
105,19,11,16368,11121,37386,30226,30530,2
145,20,27,16141,11109,36959,29657,29538,2
115,38,24,15980,11072,36690,29509,29274,2
-70,54,42,15884,11084,36767,29304,29245,2
-22,45,46,15852,11109,36767,29333,29129,2
136,-16,-51,16093,11060,36959,29746,29597,2
254,-64,52,16287,11109,37269,30256,29538,2
-289,-15,14,16222,11157,37269,30256,29391,2
224,23,12,16368,11133,37114,30165,29304,2
74,-19,-8,16549,11157,37114,30408,29450,2
-65,10,-8,16798,11231,37583,30317,29538,2
-32,63,-38,16815,11182,37701,30377,29509,2
-38,29,-4,16549,11170,37386,30075,29450,2
-31,148,-31,16352,11157,36998,29895,29216,2
80,-125,-58,16287,11121,36882,29775,29158,2
-102,28,-18,16238,11170,36690,29509,29042,2
-12,201,65,16109,11133,36160,29042,28669,2
-48,126,33,16060,11157,36122,28812,28414,2
-89,39,12,15821,11157,35898,28583,28133,2
-128,-13,-2,15773,11170,35749,28527,28049,2
276,-162,52,15773,11145,35676,28498,28022,2
16,52,-15,15710,11109,35787,28527,27911,2
11,-48,16,15726,11157,35749,28583,27828,2
37,-7,-31,15710,11084,35898,28527,27773,2
-8,-44,22,15710,11157,35787,28583,27745,2
95,-22,-9,15710,11133,35787,28555,27800,2
67,42,28,15773,11145,35861,28442,27581,2
-43,-51,56,15773,11157,36010,28612,27581,2
141,54,-35,15726,11170,35898,28583,27581,2
9,16,-10,15757,11157,36047,28612,27636,2
-27,70,-20,15694,11121,36047,28527,27364,2
116,49,6,15694,11157,35898,28527,27122,2
22,17,-21,15710,11292,35935,28385,27041,2
-27,-5,-18,15726,11121,36047,28385,26988,2
25,-74,-13,15726,11182,36085,28414,26776,2
-32,36,-11,15773,11194,36160,28470,26882,2
-2,7,21,15821,11280,36235,28442,26802,2
99,6,-47,15773,11121,36197,28470,26749,2
24,3,0,15773,11170,36197,28527,26670,2
22,-59,-10,15884,11182,36197,28583,26829,2
10,8,0,15964,11170,36197,28470,26697,2
-24,4,6,15964,11292,36047,28442,26618,2
-6,3,-5,15964,11292,36047,28385,26513,2
-8,37,-11,15900,11145,36122,28357,26513,2
8,4,2,15932,11157,36197,28301,26539,2
-9,11,4,15948,11292,36197,28357,26461,2
-1,-14,-6,15868,11182,36160,28357,26435,2
-3,39,-4,15900,11206,36160,28189,26357,2
37,-34,-19,15852,11206,36197,28217,26202,2
-39,25,2,15868,11182,36348,28133,26279,2
-16,61,-7,15900,11170,36310,28245,26202,2
-4,1,19,15884,11206,36310,28217,26228,2
39,-111,1,15837,11182,36235,28022,25971,2
179,-279,-17,16028,11206,35898,27911,25920,2
35,-218,-62,16060,11206,35676,27718,25341,2
-312,93,0,15980,11280,35455,27691,25192,2
-32,-45,31,16076,11268,35455,27609,25068,2
21,-8,-37,16044,11268,35309,27527,25142,2
-10,-35,0,16044,11268,35309,27499,25093,2
19,61,-15,15980,11255,35309,27527,25093,2
11,-58,17,15980,11255,35309,27391,25093,2
-12,45,-72,15916,11304,35199,27418,25068,2
360,-39,-124,15948,11255,35163,27391,25019,2
-74,-28,5,15900,11268,35163,27310,25019,2
5,-82,4,15900,11268,35272,27283,25093,2
27,17,-23,15900,11280,35309,27364,24995,2
-148,6,21,15852,11280,35418,27364,25019,2
-27,-115,1,15948,11255,35272,27229,24897,2
-358,190,40,16060,11280,35199,26935,24702,2
33,22,17,16565,11354,35455,26776,24462,2
23,87,-4,16632,11403,35898,26592,24366,2
96,90,49,16565,11354,35565,26513,24318,2
13,-42,17,16417,11354,35345,26461,24390,2
14,-89,-13,16417,11354,35345,26513,24294,2
-59,75,8,16287,11354,35382,26487,24366,2
20,42,27,16287,11317,35676,26409,24342,2
39,34,22,16287,11304,36160,26435,24318,2
-52,65,-37,16319,11255,36197,26409,24294,2
-70,-32,-11,16287,11280,36047,26461,24247,2
-87,-18,-9,16352,11255,35935,26357,24318,2
-38,-33,-6,16303,11280,35935,26383,24390,2
-100,-19,30,16385,11255,36010,26435,24390,2
93,-139,-38,16352,11268,36010,26566,24366,2
-219,-119,39,16565,11268,35861,26566,24486,2
-54,-162,36,16815,11304,35749,26644,24271,2
-400,-62,121,16949,11255,35382,26935,24897,2
-203,-108,29,17016,11280,35272,27499,25742,2
17,-39,38,17169,11280,35272,27175,25616,2
-27,73,-10,17272,11354,35272,27095,25415,2
92,104,16,17186,11317,35528,27122,25341,2
84,95,-3,17169,11304,35565,27095,25390,2
89,54,-15,16999,11304,35528,26988,25192,2
-10,20,-8,17016,11304,35602,26882,24946,2
54,-4,-12,16983,11304,35824,26961,24702,2
19,-41,-92,16983,11379,35565,26935,24510,2
5,171,-32,16983,11341,35492,26829,24366,2
45,99,-54,16898,11304,35787,27015,24223,2
28,86,-39,16882,11304,35639,26961,24247,2
7,153,3,16582,11329,35418,27015,24152,2
-75,415,-42,16222,11341,36010,26855,24247,2
-14,447,-131,15837,11304,36462,26776,24223,2
33,295,-45,15615,11329,36538,26566,23964,2
119,208,-74,15553,11317,36462,26435,23661,2
222,155,-153,15397,11341,36010,27041,25192,2
184,-16,-13,15335,11354,35824,27175,25316,2
-63,-83,-20,15273,11366,35787,26988,25044,2
-28,-106,-3,15165,11354,35492,27148,25192,2
296,-13,28,15165,11354,35602,27828,26228,2
-82,-39,16,15165,11317,35787,28955,28357,2
-32,2,-2,15089,11354,35824,29100,29391,2
78,-83,-32,15089,11304,36160,29450,30105,2
-148,-148,19,15089,11341,36310,29391,31056,2
-90,-145,44,15058,11329,36462,29216,32566,2
-25,-186,-4,15119,11341,36462,29100,33303,2
-74,8,-9,14997,11354,36424,29100,34165,2
-3,-134,43,14997,11317,36538,28869,34624,2
-71,-76,28,14967,11304,36690,28927,34026,2
17,57,-23,14982,11304,36728,28697,33439,2
64,59,-71,14952,11317,36652,28754,33817,2
-37,-13,30,14952,11329,36882,28812,34271,2
36,-65,32,14937,11329,36843,28697,33611,2
21,-54,31,14937,11329,36805,28697,33439,2
82,-40,-47,14891,11304,36882,28583,33168,2
1,-9,-15,14922,11268,36882,28583,33303,2
65,-25,-6,14922,11304,36920,28357,33236,2
-66,49,-23,14861,11304,36998,28189,32932,2
26,-21,13,14982,11341,36998,28301,33236,2
-14,-17,-53,14967,11329,36843,28133,32799,2
-9,0,-34,14967,11304,36843,28133,32467,2
30,-131,-12,15028,11354,36959,28133,32173,2
295,-3,-97,15043,11317,36882,28049,32010,2
266,-103,-71,15119,11304,36843,28133,31978,2
-95,65,33,15211,11391,36805,28161,31849,2
-6,2,1,15211,11304,36805,28022,31881,2
-20,-110,52,15181,11268,36882,28133,31720,2
-52,-312,116,15397,11317,36843,27994,31785,2
17,-102,30,15490,11366,36920,28105,32140,2
219,-257,58,15726,11354,36998,28357,32238,2
289,222,194,15678,11304,36690,28357,31785,2
209,161,186,15475,11255,36348,28133,31213,2
194,10,-23,15475,11219,35861,28301,31465,2
203,-168,-27,15584,11182,35712,28697,32140,2
50,-129,-10,15710,11206,35898,29304,33033,2
44,6,-11,15773,11219,36010,29450,33439,2
0,12,-14,15710,11170,36085,29450,33439,2
20,-53,-52,15615,11206,36122,29509,33439,2
-1,-23,-103,15647,11170,36462,29304,33033,2
-48,122,-81,15600,11304,36348,29042,32765,2
56,20,-42,15553,11182,36310,28812,32402,2
439,69,-185,15615,11170,36235,28583,32173,2
-111,71,-33,15615,11206,36310,28527,32075,2
78,-36,17,15647,11292,36348,28357,31849,2
-56,63,5,15663,11206,36424,28357,31720,2
50,-47,-23,15663,11317,36348,28357,31656,2
-63,-17,58,15726,11194,36272,28245,31656,2
7,12,-2,15710,11280,36235,28217,31465,2
-15,-5,26,15663,11206,36160,28161,31402,2
11,21,-11,15663,11182,36235,28133,31339,2
-25,-35,51,15710,11243,36310,28049,31213,2
53,-3,-7,15837,11206,36499,28077,31181,2
-32,-101,36,15852,11206,36959,28077,30869,2
37,115,97,15773,11157,37741,28301,30962,2
-150,72,-11,15600,11072,38100,28414,30994,2
2,-54,-7,15490,11072,38180,28385,31056,2
-23,24,-1,15366,11036,37940,28470,31056,2
-57,29,42,15242,11048,37900,28301,30994,2
-31,-65,5,15150,11231,37701,28357,30900,2
-16,-119,2,15135,11060,37662,28301,30931,2
39,-43,17,15196,11231,37741,28301,30745,2
-8,45,10,15227,11060,37662,28470,30962,2
-115,149,31,15196,11072,37426,28527,30499,2
-329,351,232,15104,11036,37230,28754,30469,2
-152,25,157,15104,11084,37152,29274,30469,2
10,-21,63,15211,11072,37308,29895,31087,2
187,149,-99,15350,11060,37504,30256,30994,2
-136,561,-47,15366,11072,37465,30165,30653,2
-863,909,-66,15043,11072,37543,30165,30622,2
-290,673,-163,14696,11036,37386,30045,30469,2
-402,226,-83,14562,11072,37308,30105,30286,2
-192,-102,-26,14518,11084,37308,29955,30438,2
-156,-16,-49,14503,11072,37347,29865,30347,2
-410,-161,-65,14473,11072,37152,29805,30256,2
-1004,-148,20,14503,11060,37114,29775,30226,2
-191,-95,-25,14444,11072,36959,29479,30165,2
-505,19,-14,14370,11048,36652,28955,29538,2
-509,-101,25,14326,11024,36310,28726,29333,2
-338,-42,-18,14268,11060,36235,28697,29391,2
-981,-127,7,14166,11060,36122,28697,29391,2
-781,-330,-40,14050,11060,36047,28583,29391,2
-44,-386,-90,13964,11012,36010,28697,29391,2
29,-147,-84,13906,11072,36160,28754,29509,2
-186,-61,39,13821,11060,36235,28726,29509,2
-17,-115,-29,13806,11036,36235,28812,29450,2
94,-22,26,13764,11024,36160,28697,29333,2
103,26,-4,13792,11024,36160,28726,29391,2
49,44,-49,13735,11060,36160,28726,29304,2
194,16,-25,13792,11060,36160,28612,29100,2
370,-14,-28,13764,11048,36197,28612,29100,2
292,-8,-4,13764,11036,36047,28583,28984,2
295,-73,-19,13735,11194,35935,28783,29245,2
442,-100,-44,13764,11048,36010,29042,29391,2
1049,-85,-245,13764,11060,36010,29304,29627,2
811,70,-193,13778,11060,36310,29391,29775,2
519,132,-76,13764,11060,36499,29274,29627,2
216,233,-11,13806,11060,36499,29391,29775,2
529,-32,-157,13806,11084,36462,29421,29775,2
520,48,-148,13863,10999,36310,29450,29775,2
656,-15,-130,13806,11012,36085,29391,29805,2
722,25,-180,13863,11036,36424,29450,30165,2
637,101,-62,13849,11024,36614,29984,30591,2
963,-28,-68,13964,11036,36959,30408,30869,2
1079,39,-108,14224,11036,36998,30499,31213,2
402,-4,-14,14268,11024,37114,30838,31276,2
404,-110,-11,14385,11012,37114,30962,31244,2
148,60,48,14473,11036,36998,30561,31087,2
-16,-5,66,14503,11048,36499,30256,30745,2
-205,-2,122,14621,11036,36010,29775,30377,2
-114,53,61,15366,11096,35418,29042,29865,2
80,277,2,15459,11084,34910,28697,29304,2
109,278,15,15366,11072,34553,28555,29216,2
-32,175,10,15211,11060,34341,28442,28927,2
114,133,-35,15089,11231,34376,28357,28840,2
104,47,1,15058,11012,34235,28245,28583,2
-107,45,-3,14997,11024,33852,28133,28612,2
-204,80,-17,14861,11072,33852,28105,28470,2
-305,-11,26,14756,11194,33748,28022,28442,2
-221,63,45,14756,11060,33611,27828,28189,2
59,78,-27,14726,11060,33405,27718,28049,2
-108,-3,25,14726,11012,33134,27527,27939,2
-249,-49,55,14741,11012,33033,27472,27800,2
-478,8,63,14666,11012,33100,27364,27718,2
-809,-65,49,14547,11012,33439,27472,27691,2
-956,-114,44,14429,11036,33645,27527,27527,2
-824,-126,64,14209,11012,33887,27581,27445,2
-723,-153,104,14050,11012,33783,27527,27283,2
-876,-216,101,13921,11012,33887,27418,27256,2
-778,-124,116,13806,11048,33748,27283,27122,2
-702,-107,87,13806,11036,33714,26802,26435,2
-615,-33,84,13849,11012,33645,26539,26461,2
-525,134,59,13792,11012,34130,26855,26882,2
-74,27,-48,13693,11012,35127,27554,27800,2
-123,126,-51,13679,11036,35602,28329,28697,2
46,53,-19,13679,11072,35565,28470,28812,2
137,-37,-39,13679,11060,35455,28357,28927,2
233,37,-39,13735,11255,35639,28301,28783,2
421,102,-112,13749,11036,35602,28133,28754,2
-74,11,25,13735,11060,35565,28189,28783,2
-36,-46,19,13693,11024,35492,28189,28669,2
65,93,9,13749,11024,35602,28133,28583,2
-63,9,9,13735,11060,35418,28022,28640,2
52,5,42,13735,11060,35565,28022,28583,2
42,-19,2,13735,11036,35418,28022,28583,2
30,-106,-1,13792,11072,35382,28077,28726,2
-73,-44,19,13792,11060,35272,28049,28612,2
-185,183,-2,13978,11060,36767,28217,28612,2
-161,84,-55,15600,11072,38503,28583,28527,2
-21,34,-18,15710,11084,38912,28583,28470,2
-29,-16,4,15335,11048,38220,28470,28357,2
54,24,14,14861,11060,37386,28133,28077,2
-93,-90,18,14592,11048,37114,27828,27745,2
77,-78,-18,14592,11036,37036,27691,27745,2
-2,-147,14,14562,11060,36959,27745,27800,2
18,-63,20,14518,11084,36920,27773,28022,2
-299,-141,-90,14282,11060,36959,27828,28022,2
121,-120,52,14021,11096,37230,27966,28049,2
91,105,4,13964,11084,37308,28105,28049,2
28,-22,38,13978,11121,37347,27966,27828,2
-33,105,53,14122,11133,37386,28077,27883,2
130,-15,15,14137,11084,37191,28133,27911,2
-111,-43,44,14137,11133,37114,28077,28022,2
-123,-106,9,14137,11145,37114,28022,27939,2
-25,-52,13,14079,11121,37152,28022,28022,2
-15,15,-36,14021,11157,37075,27911,28022,2
-1,-44,8,14050,11121,37036,28022,28049,2
-33,37,18,14137,11121,37075,27966,28105,2
-85,-38,9,14253,11157,37230,27966,28022,2
6,13,42,14311,11157,37152,27911,28077,2
72,57,-72,14195,11109,37075,27911,28049,2
68,-9,4,14209,11109,37114,27745,28077,2
-72,-1,11,14180,11121,36998,27883,28049,2
-47,-95,15,14137,11157,36920,27745,28049,2
99,-225,-33,14166,11133,36959,27691,27911,2
135,5,-41,14209,11182,36805,27636,28049,2
58,40,-54,14166,11292,36920,27636,27966,2
210,-51,-119,14137,11121,36805,27691,27939,2
295,19,-170,14195,11182,36843,27609,27911,2
-64,-6,61,14137,11170,36920,27609,27911,2
42,43,9,14122,11170,36920,27691,27966,2
-63,20,-10,14151,11170,36920,27581,27911,2
69,-29,-11,14151,11157,36805,27636,27883,2
170,45,-58,14209,11157,36767,27527,27856,2
0,5,34,14108,11157,36882,27499,27828,2
102,-37,-38,14108,11182,36843,27472,27800,2
51,41,-34,14108,11206,36843,27445,27745,2
-42,49,32,14137,11170,36690,27472,27800,2
-99,140,18,14429,11121,36843,27391,27828,2
-179,113,-53,14741,11121,36614,27391,27745,2
-63,16,-66,14967,11109,36462,27391,27663,2
36,-71,1,14937,11084,36310,27202,27691,2
77,26,-22,14907,11060,36010,27068,27445,2
97,-14,-24,14741,11109,35972,27041,27445,2
-99,-130,26,14621,11060,35898,27041,27337,2
-96,-51,81,14518,11072,35898,26935,27283,2
37,-48,8,14562,11133,35824,27041,27229,2
-68,47,18,14503,11109,35861,26935,27148,2
-50,4,37,14488,11121,35861,26855,27148,2
75,118,6,14547,11268,35787,26935,26855,2
32,-56,4,14518,11072,35712,26882,26723,2
208,53,41,14488,11072,35712,27472,27095,2
213,-90,22,14518,11060,35712,28077,27966,2
117,-24,49,14666,11109,35565,28022,28022,2
46,-70,4,14621,11243,35455,27883,27856,2
1,-141,35,14518,11084,35309,27911,27800,2
-52,-45,18,14488,11109,35127,27773,27800,2
-62,-41,9,14370,11231,35272,27911,27718,2
131,24,-89,14473,11060,35345,27856,27581,2
156,-62,-16,14696,11060,35455,27745,27364,2
201,-41,11,14786,11024,35492,28022,27472,2
44,-46,34,15043,11060,35418,28612,27609,2
-36,-73,-15,15211,11072,35602,29158,27527,2
-145,-74,60,15028,11072,35492,29362,27499,2
-255,-175,154,14967,11072,35712,29925,28189,2
-399,-48,41,14907,11084,36160,30015,28984,2
-61,33,25,14846,11084,35898,29925,29274,2
84,36,9,14801,11109,35824,29925,29391,2
0,-68,-6,14786,11109,35935,29925,29391,2
59,11,2,14786,11109,36197,29865,29274,2
-48,50,0,14741,11121,36197,29865,29245,2
2,60,-19,14696,11109,36235,29805,29071,2
3,29,18,14666,11109,36348,29686,29216,2
-24,16,0,14607,11084,36348,29686,29158,2
-4,-36,20,14577,11109,36235,29568,29100,2
2,-18,-4,14547,11072,36197,29391,28927,2
97,-73,-59,14488,11084,36235,29479,28955,2
-49,70,-13,14429,11109,36235,29274,28869,2
-90,-9,12,14370,11109,36197,29274,28812,2
-161,7,47,14370,11121,36085,29216,28697,2
39,10,3,14311,11096,36010,29274,28812,2
-33,19,14,14311,11109,36047,29158,28783,2
-10,26,30,14311,11096,36010,29187,28754,2
73,-29,-24,14311,11109,36085,29274,28697,2
-25,7,-10,14355,11109,36047,29304,28812,2
85,-28,-95,14341,11121,35972,29333,28898,2
149,2,-94,14341,11109,35898,29362,28927,2
0,72,-62,14385,11109,35602,29450,28955,2
26,130,-46,14429,11243,35528,29391,28898,2
-5,48,-64,14429,11243,35418,29391,28812,2
-45,23,28,14385,11096,35418,29274,28754,2
0,9,-22,14326,11121,35418,29274,28754,2
-6,44,4,14370,11109,35455,29274,28697,2
-48,55,-2,14311,11109,35418,29158,28612,2
-20,56,31,14253,11280,35309,29158,28612,2
20,-67,-7,14268,11255,35272,29100,28612,2
133,45,-16,14282,11121,35455,29042,28612,2
10,-14,-9,14268,11109,35418,28984,28470,2
103,-86,-16,14311,11109,35418,28955,28301,2
-19,-15,10,14209,11072,35309,28927,28161,2
6,-52,-60,14137,11109,35309,28640,27800,2
-8,-6,-1,14050,11060,35418,28133,27499,2
-12,-27,-27,14021,11072,35455,28022,27337,2
-66,40,27,14021,11109,35565,28022,27445,2
-65,-16,29,13964,11084,35492,28022,27554,2
-11,35,-13,13921,11072,35418,27994,27418,2
-32,45,27,13906,11072,35455,28022,28414,2
39,-46,-10,13906,11072,35528,27966,27994,2
15,-129,106,13964,11072,35345,27828,27256,2
-39,-442,275,14036,11072,35382,27773,27256,2
-52,-304,159,14166,11109,36160,28927,29245,2
-352,-155,99,14195,11109,36920,30807,31688,2
-439,46,11,15119,11096,36805,32140,32402,2
-75,21,-85,15475,11109,36010,31465,31593,2
122,129,-153,16125,11084,35528,31025,30226,2
354,270,-174,15773,11121,35272,30561,29304,2
165,178,-181,15273,11072,35199,29568,28442,2
30,8,-18,15058,11084,35127,29333,28105,2
69,68,-49,14786,11072,35018,28754,27283,2
62,52,-51,14429,11121,35018,28189,26461,2
12,-11,-21,14326,11072,34982,27663,25818,2
-6,-23,38,14311,11084,35055,27609,25793,2
-23,-55,24,14311,11060,35055,27499,25742,2
-10,-60,54,14385,11109,35236,27472,25691,2
43,2,-17,14503,11060,35382,27499,25616,2
-20,50,-52,14503,11121,35199,27554,25591,2
44,65,-19,14429,11072,35236,27472,25666,2
-25,83,-68,14326,11072,35127,27391,25666,2
-26,141,-52,14268,11072,34946,27310,25565,2
-132,84,-52,14253,11060,34731,26988,25415,2
86,168,-107,14444,11109,34696,26829,25291,2
-74,172,-20,14429,11121,34553,26749,25216,2
-175,120,7,14444,11243,34553,26670,24995,2
44,96,-22,14370,11109,34589,26566,24946,2
63,-55,16,14370,11268,34482,26566,24995,2
53,116,-47,14311,11243,34553,26566,24946,2
-24,24,-6,14253,11072,34412,26566,24848,2
-69,-69,112,14268,11109,34447,26618,24824,2
-9,31,-11,14209,11048,34412,26566,24897,2
-6,1,54,14195,11072,34412,26618,24946,2
60,28,5,14195,11060,34376,26566,24946,2
31,-1,26,14209,11109,34341,26513,24970,2
-73,15,-13,14195,11072,34341,26513,24897,2
10,4,-33,14224,11036,34060,26409,24848,2
-60,16,1,14209,11060,33921,26228,24630,2
-227,52,-71,14370,11060,33852,25996,24342,2
55,117,-75,14311,11060,33542,25843,24510,2
-64,201,-57,14253,11109,33542,25793,24534,2
120,171,-51,14137,11109,33783,25742,24390,2
92,-8,-27,14137,11121,33852,25717,24318,2
485,-49,-25,14209,11133,33887,25641,24414,2
371,-159,30,14166,11157,34060,25717,24630,2
247,68,61,14108,11157,34553,25996,25019,2
-45,-174,121,14108,11170,34553,26047,25266,2
-10,-140,70,14050,11157,34660,26099,25365,2
-296,-49,165,14108,11121,34696,26176,25490,2
8,-544,176,14180,11157,34803,26305,25591,2
216,-473,45,14326,11157,34839,26228,25666,2
98,34,-126,14326,11157,34839,26176,25540,2
-96,23,-61,14282,11145,34910,26150,25440,2
-280,31,43,14282,11133,35018,26124,25440,2
15,84,-55,14268,11121,35055,26124,25465,2
-16,88,-35,14268,11157,35055,26099,25390,2
-30,37,8,14238,11157,34982,26099,25490,2
-37,-1,10,14253,11170,35091,26099,25365,2
9,13,-24,14224,11268,34874,26022,25390,2
21,2,-9,14253,11292,34982,26124,25390,2
-3,106,31,14195,11170,34982,26022,25440,2
30,18,-11,14166,11157,34946,25996,25390,2
-4,-8,37,14151,11292,34982,26099,25316,2
-28,30,28,14137,11170,35018,26124,25291,2
-3,26,2,14108,11182,34982,26047,25390,2
-6,13,-2,14108,11304,34910,26022,25390,2
-6,27,4,14108,11170,34910,26099,25316,2
-21,-7,5,14137,11157,34982,26022,25241,2
-16,13,14,14108,11157,34982,26099,25241,2
-13,-16,5,14108,11157,34982,26073,25216,2
3,3,-5,14079,11157,34874,26022,25316,2
-3,0,4,14108,11280,34910,26099,25390,2
17,27,3,14108,11194,34874,26047,25390,2
11,8,-1,14036,11157,34874,26099,25390,2
-10,6,4,14021,11182,34839,25996,25316,2
39,23,-9,14021,11292,34767,26099,25316,2
9,-17,5,14021,11170,34696,26099,25316,2
20,-2,-2,13978,11157,34731,26073,25291,2
3,0,-1,13964,11182,34624,26022,25341,2
3,-31,6,13964,11157,34624,26073,25216,2
-29,-14,23,14021,11157,34624,26047,25341,2
112,-139,31,14195,11182,34982,26176,25390,2
-146,-62,66,15335,11206,36576,26253,25390,2
529,238,-233,15459,11231,36920,27636,25843,2
96,181,80,14952,11182,34696,26961,24702,2
-317,34,150,14429,11206,29304,23546,21796,2
-284,-117,-6,14801,11255,24848,20676,19999,2
-273,-6,-106,14696,11255,23499,19650,19325,2
-74,96,0,14385,11280,23067,19382,18931,2
88,46,-13,14311,11304,22843,19306,18857,2
25,61,36,14108,11329,22754,19249,18709,2
140,58,34,13921,11304,22731,19249,18654,2
-17,-50,10,13849,11304,22599,19344,18727,2
-26,-11,38,13792,11304,22621,19287,18691,2
-2,3,9,13636,11304,22665,19382,18654,2
9,-16,23,13496,11317,22977,19420,18635,2
41,3,8,13412,11354,23022,19535,18599,2
77,-2,8,13287,11317,23157,19535,18654,2
9,34,-5,13205,11317,23248,19708,18562,2
53,11,-4,13136,11341,23294,19727,18599,2
42,-25,3,13122,11304,23294,19746,18562,2
21,-27,5,13068,11304,23316,19785,18526,2
-21,30,0,13027,11354,23316,19805,18508,2
43,-7,-1,13027,11354,23385,19766,18508,2
0,-8,20,12972,11341,23385,19882,18471,2
10,6,16,12972,11304,23431,19863,18417,2
-10,-2,-1,12959,11304,23661,20117,18417,2
9,-13,2,12959,11317,24366,20435,18508,2
-34,9,17,12918,11304,24342,20415,18417,2
13,6,-2,12905,11304,24318,20395,18453,2
1,-9,14,12851,11304,24271,20395,18435,2
-11,-5,0,12851,11329,24294,20395,18435,2
-1,-12,-5,12810,11304,24223,20335,18453,2
12,-50,-3,12810,11317,24271,20335,18344,2
12,4,4,12797,11317,24247,20315,18272,2
-35,-4,-6,12797,11292,24247,20335,18272,2
6,-5,0,12783,11317,24223,20315,18164,2
-6,-8,-15,12797,11304,24271,20275,18200,2
-20,-3,11,12756,11329,24176,20275,18147,2
25,-14,-14,12770,11317,24129,20236,18147,2
2,6,7,12743,11317,24152,20157,18111,2
0,2,3,12743,11329,24129,20236,18129,2
-29,16,8,12756,11341,24081,20216,18057,2
-29,12,0,12703,11304,24105,20176,18057,2
20,16,-3,12743,11304,24129,20196,18057,2
-6,17,12,12690,11304,24176,20216,18022,2
-6,4,5,12636,11329,24223,20256,18022,2
7,10,8,12676,11366,24176,20216,18057,2
30,-12,13,12649,11354,24176,20256,18022,2
15,7,6,12636,11341,24176,20236,17951,2
-6,16,3,12636,11329,24199,20256,17986,2
-9,7,9,12610,11329,24223,20315,17986,2
3,-16,-1,12610,11379,24247,20315,17951,2
21,-5,37,12596,11329,24702,20475,18004,2
12,-105,8,12610,11329,28077,22292,17774,2
-35,-86,-18,12756,11354,33645,27148,18635,2
-100,-50,-1,12905,11329,37114,31119,21312,2
-57,-1,3,12932,11391,38100,32303,21754,2
-16,3,9,12864,11341,37900,32173,21500,2
12,25,-1,12810,11428,37191,31593,21229,2
25,5,9,12703,11354,36462,30962,20961,2
27,23,9,12649,11341,36085,30715,20757,2
-6,-15,1,12636,11403,35861,30499,20656,2
-21,46,15,12543,11317,35639,30256,20615,2
-8,12,12,12530,11341,35272,29895,20515,2
12,-15,10,12530,11366,34982,29775,20355,2
27,-27,-5,12504,11341,34767,29686,20236,2
25,-11,5,12477,11329,34696,29568,20157,2
8,-2,-3,12490,11354,34767,29538,20078,2
