GyroX,GyroY,GyroZ,Thumb,Index,Middle,Ring,Pinky,Gesture
0,0,0,22401,26253,25142,42488,39578,0
0,0,0,22357,26279,25093,42395,39578,0
0,0,0,22423,26202,25019,42166,39452,0
0,0,0,22401,26124,24995,42212,39411,0
0,0,0,22335,26124,24946,42029,39411,0
0,0,0,22226,26099,24921,42029,39327,0
0,0,0,22053,26099,24799,41938,39244,0
0,0,0,21882,25996,24799,41893,39244,0
0,0,0,21711,26022,24727,41803,39160,0
0,0,0,21627,26022,24727,41757,39244,0
0,0,0,21627,26022,24654,41757,39077,0
0,0,0,21818,26047,24702,41712,39160,0
0,0,0,21839,25996,24654,41757,39036,0
0,0,0,21796,25945,24630,41622,39077,0
0,0,0,21754,25894,24606,41712,38995,0
0,0,0,21754,25894,24606,41622,38912,0
0,0,0,22032,25894,24630,41577,39036,0
0,0,0,22053,25894,24534,41399,39036,0
0,0,0,21903,25843,24606,41309,38789,0
0,0,0,21839,25920,24558,41309,38707,0
0,0,0,21860,26202,24702,41399,38666,0
0,0,0,21882,26409,25044,41622,38503,0
0,0,0,22053,26618,25641,41984,39036,0
0,0,0,22205,26618,26099,42673,39663,0
0,0,0,22444,26670,26566,42953,40432,0
0,0,0,22532,26829,27041,43519,41354,0
0,0,0,22488,26855,27472,44487,43424,0
0,0,0,22335,26749,27499,45081,43951,0
0,0,0,22335,26723,27364,45081,44000,0
0,0,0,22313,26723,27364,44931,43615,0
0,0,0,22313,26723,27283,44881,43567,0
0,0,0,22379,26776,27310,44881,44193,0
0,0,0,22335,26802,27418,45281,44438,0
0,0,0,22292,26776,27283,45081,44145,0
0,0,0,22226,26670,27283,45131,43903,0
0,0,0,22140,26618,27175,44931,43807,0
0,0,0,22053,26618,27175,44931,43663,0
0,0,0,22096,26566,27095,44832,43519,0
0,0,0,22096,26487,27068,44683,43519,0
0,0,0,22053,26513,26988,44634,43282,0
0,0,0,22010,26513,26988,44438,43282,0
0,0,0,22010,26435,26908,44487,43282,0
0,0,0,21967,26513,26829,44291,43093,0
0,0,0,22010,26513,26829,44389,43093,0
0,0,0,21903,26461,26829,44340,43046,0
0,0,0,22010,26513,26829,44389,42812,0
0,0,0,21924,26409,26776,44193,42859,0
0,0,0,21903,26435,26723,44291,42766,0
0,0,0,21882,26513,26723,44096,42766,0
0,0,0,21882,26409,26723,44000,42859,0
0,0,0,21882,26357,26670,44048,42534,0
0,0,0,21946,26357,26618,44048,42488,0
0,0,0,21882,26305,26618,44000,42488,0
0,0,0,21882,26305,26566,43807,42488,0
0,0,0,21818,26253,26566,43855,42349,0
0,0,0,21796,26176,26461,43711,42212,0
0,0,0,21733,26073,26305,43663,42120,0
0,0,0,21796,26047,26357,43711,41984,0
0,0,0,21882,25920,26331,43615,42120,0
0,0,0,21839,25945,26228,43377,41938,0
0,0,0,21818,25894,26150,43282,41667,0
0,0,0,21796,25818,26124,43046,41757,0
0,0,0,21796,25691,26022,43046,40780,0
0,0,0,21882,25666,25920,42906,40475,0
0,0,0,22010,25691,25894,42953,40432,0
0,0,0,22010,25540,25920,43093,40389,0
0,0,0,21882,25540,25894,43235,40302,0
0,0,0,21839,25490,25793,43377,40002,0
0,0,0,21839,25465,25666,43472,39663,0
0,0,0,21882,25490,25641,43615,39494,0
0,0,0,21882,25440,25641,43807,39411,0
0,0,0,21796,25440,25691,43759,39327,0
0,0,0,21796,25440,25616,43759,38995,0
0,0,0,21818,25390,25515,43711,38707,0
0,0,0,21882,25390,25415,43424,38544,0
0,0,0,21818,25390,25241,43140,38019,0
0,0,0,21690,25415,25118,42859,37701,0
0,0,0,21711,25440,25093,42488,37386,0
0,0,0,21500,25465,24995,42166,37308,0
0,0,0,21395,25390,24751,42029,37230,0
0,0,0,21146,25415,24727,41803,37075,0
0,0,0,21125,25316,24630,41803,37036,0
0,0,0,21084,25365,24606,41757,36959,0
0,0,0,21043,25365,24534,41667,36843,0
0,0,0,21002,25316,24414,41757,36690,0
0,0,0,20879,25365,24462,41577,36728,0
0,0,0,20716,25365,24414,41577,36462,0
0,0,0,20636,25241,24366,41577,36386,0
0,0,0,20636,25291,24318,41533,36310,0
0,0,0,20575,25341,24318,41533,36197,0
0,0,0,20555,25341,24271,41399,36235,0
0,0,0,20475,25291,24247,41309,36197,0
0,0,0,20415,25291,24247,41399,36235,0
0,0,0,20435,25241,24271,41265,36122,0
0,0,0,20415,25316,24247,41221,36197,0
0,0,0,20475,25316,24223,41309,36047,0
0,0,0,20475,25241,24199,41176,36047,0
0,0,0,20636,25291,24223,41221,36160,0
0,0,0,20615,25266,24247,41265,36160,0
0,0,0,20615,25241,24129,41309,36160,0
0,0,0,20575,25291,24129,41221,36197,0
0,0,0,20636,25192,24223,41309,36160,0
0,0,0,20636,25241,24176,41221,36310,0
0,0,0,20575,25192,24129,41221,36047,0
0,0,0,20595,25291,24129,41132,36085,0
0,0,0,20555,25192,24129,41221,36160,0
0,0,0,20615,25216,24129,41265,36235,0
0,0,0,20676,25341,24318,41309,36197,0
0,0,0,20676,25465,24342,41265,36197,0
0,0,0,20676,25415,24366,41265,36085,0
0,0,0,20636,25490,24342,41132,36160,0
0,0,0,20716,25490,24366,41088,36160,0
0,0,0,20716,25440,24366,41088,36047,0
0,0,0,20716,25390,24318,41132,36085,0
0,0,0,20696,25440,24390,41088,36010,0
0,0,0,20716,25390,24294,40868,36122,0
0,0,0,20716,25390,24247,40955,35861,0
0,0,0,20636,25365,24271,40912,35972,0
0,0,0,20676,25291,24223,40912,35935,0
0,0,0,20716,25291,24223,40868,35935,0
0,0,0,20716,25291,24176,40912,35861,0
0,0,0,20676,25291,24223,40868,35972,0
0,0,0,20696,25241,24176,40736,35898,0
0,0,0,20676,25192,24223,40868,35861,0
0,0,0,20615,25167,24176,40868,35861,0
0,0,0,20575,25216,24176,40736,35861,0
0,0,0,20575,25216,24129,40868,35749,0
0,0,0,20555,25241,24129,40780,35898,0
0,0,0,20595,25216,24176,40824,35787,0
0,0,0,20595,25266,24176,40736,35712,0
0,0,0,20716,25216,24152,40693,35787,0
0,0,0,20676,25192,24223,40693,35787,0
0,0,0,20595,25192,24176,40519,35898,0
0,0,0,20515,25142,24152,40693,36047,0
0,0,0,20495,25093,24058,40649,36310,0
0,0,0,20495,25142,24034,40432,36235,0
0,0,0,20495,25192,24271,40605,36310,0
0,0,0,20676,25465,24654,40780,36538,0
0,0,0,20716,25390,24751,40912,36690,0
0,0,0,20757,25490,24946,41088,36920,0
0,0,0,20879,25616,25093,41309,37308,0
0,0,0,21043,25894,25440,41803,38180,0
0,0,0,21125,25894,25616,42075,39036,0
0,0,0,21043,25793,25591,42120,38871,0
0,0,0,20981,25691,25540,42120,38666,0
0,0,0,20981,25641,25440,41938,38585,0
0,0,0,21043,25666,25490,41984,38422,0
0,0,0,21043,25591,25341,41757,38422,0
0,0,0,20981,25540,25316,41848,38140,0
0,0,0,21105,25490,25390,41803,38100,0
0,0,0,21146,25465,25341,41577,37860,0
0,0,0,21105,25341,25216,41533,37781,0
0,0,0,21084,25216,25093,41399,37701,0
0,0,0,21084,25241,24995,41176,37701,0
0,0,0,21043,25192,24848,41088,37308,0
0,0,0,20961,25167,24654,40868,37269,0
0,0,0,21022,24995,24534,40605,37191,0
0,0,0,21064,25044,24438,40519,37075,0
0,0,0,20961,25044,24462,40519,36920,0
0,0,0,20981,24995,24414,40562,36767,0
0,0,0,20961,24946,24318,40389,36614,0
0,0,0,20920,24995,24342,40519,36538,0
0,0,0,20961,24995,24318,40346,36690,0
0,0,0,21002,24995,24318,40432,36499,0
0,0,0,20981,25044,24318,40346,36386,0
0,0,0,20798,24995,24223,40389,36047,0
0,0,0,20676,24995,24129,40302,35787,0
0,0,0,20676,25019,24034,40216,35712,0
0,0,0,20716,25019,24034,40259,35712,0
0,0,0,20798,24995,23940,40131,35418,0
0,0,0,20757,24970,23964,40131,35345,0
0,0,0,20716,24946,23940,40131,35236,0
0,0,0,20676,24946,23940,40045,35272,0
0,0,0,20696,24921,23940,40173,35199,0
0,0,0,20636,24897,23917,40088,35272,0
0,0,0,20636,24946,23894,40088,35127,0
0,0,0,20716,24897,23824,40173,35272,0
0,0,0,20636,24946,23917,40216,35127,0
0,0,0,20676,24897,23940,40173,35091,0
0,0,0,20676,24897,23894,40131,35163,0
0,0,0,20676,24897,23940,40173,35199,0
0,0,0,20676,24897,23894,40216,35199,0
0,0,0,20757,24946,23917,40131,35199,0
0,0,0,20777,24897,23894,40173,35345,0
0,0,0,20757,24897,23940,40259,35345,0
0,0,0,20716,24897,23894,40173,35272,0
0,0,0,20716,24824,23847,40302,35382,0
0,0,0,20636,24946,23800,40088,35749,0
0,0,0,20615,24897,23754,40131,35935,0
0,0,0,20575,24799,23754,40173,35935,0
0,0,0,20555,24873,23707,40088,35935,0
0,0,0,20435,24775,23684,40088,35898,0
0,0,0,20256,24848,23661,40002,35749,0
0,0,0,19941,24702,23569,39917,35565,0
0,0,0,19689,24751,23477,39832,35602,0
0,0,0,19554,24727,23477,39960,35935,0
0,0,0,19535,24799,23569,40346,36348,0
0,0,0,19401,24897,23431,40562,36197,0
0,0,0,19268,24897,23385,40302,36085,0
0,0,0,19080,24946,23248,40259,36010,0
0,0,0,18857,24946,23135,40216,35861,0
0,0,0,18562,24873,22977,40088,35676,0
0,0,0,18182,24727,22887,39874,35492,0
0,0,0,17915,24702,22798,39747,35345,0
0,0,0,17792,24534,22776,39747,35309,0
0,0,0,17774,24510,22798,39747,35272,0
0,0,0,17774,24462,22820,39705,35272,0
0,0,0,17774,24462,22843,39663,35272,0
0,0,0,17809,24438,22776,39663,35127,0
0,0,0,17898,24558,22843,39747,35091,0
0,0,0,17915,24606,22865,39621,35091,0
0,0,0,17951,24606,22887,39917,34946,0
0,0,0,17933,24630,22843,39747,34910,0
0,0,0,17986,24630,22910,39790,34839,0
0,0,0,18057,24606,22843,39832,34767,0
0,0,0,18057,24510,22865,39705,34839,0
0,0,0,18147,24534,22843,39705,34803,0
0,0,0,18129,24510,22843,39663,34731,0
0,0,0,18182,24510,22754,39663,34731,0
0,0,0,18254,24510,22843,39663,34624,0
0,0,0,18236,24462,22865,39663,34660,0
0,0,0,18236,24462,22887,39917,34803,0
0,0,0,18254,24462,22843,39917,34767,0
0,0,0,18308,24510,22865,39832,34874,0
0,0,0,18290,24534,22887,40002,34767,0
0,0,0,18290,24654,22932,39917,34874,0
0,0,0,18362,24606,22955,40002,34803,0
0,0,0,18417,24630,22977,40131,34839,0
0,0,0,18489,24775,23044,40088,34874,0
0,0,0,18562,24799,23294,40389,34731,0
0,0,0,18599,24873,23522,40259,34839,0
0,0,0,18801,24848,23522,40088,34731,0
0,0,0,18931,24824,23522,40002,34946,0
0,0,0,19136,24799,23661,39747,35163,0
0,0,0,19612,24848,23754,39663,35712,0
0,0,0,19843,24848,23707,39663,35749,0
0,0,0,19960,24727,23707,39494,35749,0
0,0,0,20098,24848,23707,39327,36010,0
0,0,0,20395,24897,23777,39160,36010,0
0,0,0,20435,24799,23777,39036,36160,0
0,0,0,20475,24848,23847,39036,36047,0
0,0,0,20515,24799,23847,38912,36197,0
0,0,0,20676,24897,23847,38789,36499,0
0,0,0,20838,24946,23940,38830,36959,0
0,0,0,20879,24946,24034,38830,37191,0
0,0,0,20920,24946,24011,38585,37940,0
0,0,0,20981,25093,24152,38544,38748,0
0,0,0,20981,25390,24271,38912,41803,0
0,0,0,20961,25390,24342,39077,41757,0
0,0,0,20981,25390,24414,39119,41488,0
0,0,0,21043,25341,24438,39411,41443,0
0,0,0,21043,25415,24462,39411,41667,0
0,0,0,20920,25515,24438,39621,41893,0
0,0,0,20879,25616,24510,39832,41803,0
0,0,0,20879,25591,24462,39960,41938,0
0,0,0,20798,25591,24510,39960,42029,0
0,0,0,20676,25616,24534,40088,42120,0
0,0,0,20636,25490,24510,40045,41984,0
0,0,0,20636,25390,24486,39917,41757,0
0,0,0,20535,25266,24486,39874,41577,0
0,0,0,20636,25192,24486,39874,41622,0
0,0,0,20879,25044,24438,39747,41488,0
0,0,0,21458,24897,24366,39747,41354,0
0,0,0,21627,24702,24342,39663,40868,0
0,0,0,21648,24582,24462,39917,40389,0
0,0,0,21711,24510,24510,40346,38503,0
0,0,0,22226,24534,24534,40605,38382,0
0,0,0,22576,24558,24558,40780,38140,0
0,0,0,22140,24534,24606,40780,38140,0
0,0,0,20981,24318,24654,40912,38019,0
0,0,0,19458,24342,24702,41221,38100,0
0,0,0,18489,24152,24799,41399,38341,0
0,0,0,17774,24081,24897,41712,38260,0
0,0,0,17186,24081,24946,41938,38260,0
0,0,0,16615,24081,24970,42029,38422,0
0,0,0,16303,24081,24995,42166,38382,0
0,0,0,16060,24129,24995,42258,38422,0
0,0,0,16012,24034,25019,42488,38422,0
0,0,0,15932,24081,24946,42395,38341,0
0,0,0,15900,24058,25044,42304,37820,0
0,0,0,16060,24081,24995,42349,37662,0
0,0,0,15932,24152,25044,42304,37583,0
0,0,0,15964,24223,25093,42304,37504,0
0,0,0,16028,24199,25019,42212,37465,0
0,0,0,15996,24129,24995,42029,37465,0
0,0,0,15553,24129,24995,42212,37543,0
0,0,0,15211,24105,25044,42120,37269,0
0,0,0,14666,24223,25142,42304,37308,0
0,0,0,14253,24176,25118,42304,37230,0
0,0,0,14282,24129,25093,42120,37075,0
0,0,0,14297,24081,25093,42120,37036,0
0,0,0,14429,24129,24995,41938,36767,0
0,0,0,14399,24034,24995,41757,36614,0
0,0,0,14370,23987,24946,41667,36576,0
0,0,0,14326,23987,24946,41533,36462,0
0,0,0,14311,23940,24897,41399,36462,0
0,0,0,14326,23940,24848,41443,36272,0
0,0,0,14311,23940,24897,41399,36348,0
0,0,0,14253,23940,24799,41354,36310,0
0,0,0,14282,23894,24799,41221,36235,0
0,0,0,14195,23847,24799,41309,36235,0
0,0,0,14195,23847,24751,41309,36160,0
0,0,0,14195,23870,24751,41221,36235,0
0,0,0,14224,23894,24751,41132,36235,0
0,0,0,14195,23870,24702,41088,36160,0
0,0,0,14209,23847,24702,41132,36085,0
0,0,0,14282,23800,24727,41044,36085,0
0,0,0,14311,23824,24654,41044,36160,0
0,0,0,14311,23800,24654,40955,36310,0
0,0,0,14268,23824,24654,41044,36235,0
0,0,0,14282,23754,24702,41000,36235,0
0,0,0,14282,23777,24630,40912,36010,0
0,0,0,14311,23754,24606,40912,35972,0
0,0,0,14326,23800,24678,40736,36047,0
0,0,0,14370,23777,24606,40780,35861,0
0,0,0,14414,23800,24606,40649,35972,0
0,0,0,14399,23754,24606,40649,36047,0
0,0,0,14385,23730,24558,40562,36160,0
0,0,0,14399,23707,24606,40693,36047,0
0,0,0,14385,23754,24534,40649,36160,0
0,0,0,14429,23754,24534,40519,36010,0
0,0,0,14399,23661,24558,40693,35935,0
0,0,0,14429,23684,24534,40649,35972,0
0,0,0,14458,23754,24534,40432,36010,0
0,0,0,14488,23684,24534,40605,36010,0
0,0,0,14444,23661,24510,40475,35972,0
0,0,0,14195,23684,24510,40475,36160,0
0,0,0,13693,23615,24510,40519,35861,0
0,0,0,13454,23592,24534,40605,35861,0
0,0,0,13232,23615,24606,40432,35787,0
0,0,0,13177,23615,24582,40389,35787,0
0,0,0,13122,23707,24558,40432,35676,0
0,0,0,12986,23661,24510,40432,35676,0
0,0,0,12918,23707,24462,40432,35749,0
0,0,0,12959,23707,24462,40475,35787,0
0,0,0,12972,23661,24438,40389,35712,0
0,0,0,13013,23754,24414,40346,35749,0
0,0,0,13068,23684,24366,40389,35824,0
0,0,0,13040,23707,24366,40346,35787,0
0,0,0,13013,23684,24318,40389,35639,0
0,0,0,13013,23661,24318,40302,35639,0
0,0,0,13013,23661,24342,40346,35639,0
0,0,0,13013,23569,24294,40346,35712,0
0,0,0,13013,23592,24294,40389,35712,0
0,0,0,13040,23615,24271,40259,35712,0
0,0,0,13068,23592,24223,40259,35676,0
0,0,0,13068,23569,24247,40259,35712,0
0,0,0,13122,23615,24223,40216,35712,0
0,0,0,13122,23592,24223,40173,35639,0
0,0,0,13150,23569,24223,40259,35565,0
0,0,0,13177,23638,24223,40216,35565,0
0,0,0,13136,23569,24223,40131,35639,0
0,0,0,13177,23522,24199,40173,35565,0
0,0,0,13205,23569,24152,40002,35639,0
0,0,0,13177,23569,24199,40045,35602,0
0,0,0,13191,23569,24105,40088,35602,0
0,0,0,13177,23546,24081,39917,35565,0
0,0,0,13246,23569,24152,40045,35602,0
0,0,0,13246,23546,24129,40045,35492,0
0,0,0,13260,23569,24081,39917,35565,0
0,0,0,13301,23546,24058,39917,35676,0
0,0,0,13315,23546,24081,40002,35639,0
0,0,0,13343,23522,24105,39960,35418,0
0,0,0,13538,23569,24058,40002,35639,0
0,0,0,13707,23615,24058,39790,35676,0
0,0,0,13749,23615,24034,39747,35565,0
0,0,0,13778,23592,24034,39747,35602,0
0,0,0,13964,23615,23940,39747,35565,0
0,0,0,14108,23661,23940,39663,35565,0
0,0,0,14297,23754,23894,39747,35861,0
0,0,0,14253,23800,23894,39536,35787,0
0,0,0,14268,23777,23894,39578,35861,0
0,0,0,14238,23777,23847,39663,35712,0
0,0,0,14224,23777,23800,39536,35418,0
0,0,0,14195,23870,23824,39536,35528,0
0,0,0,14195,23847,23777,39369,35528,0
0,0,0,14079,23847,23777,39494,35492,0
0,0,0,14108,23847,23800,39411,35418,0
0,0,0,14108,23800,23754,39369,35565,0
0,0,0,14079,23847,23847,39411,35565,0
0,0,0,14108,23870,23754,39327,35492,0
0,0,0,14137,23870,23754,39327,35528,0
0,0,0,14137,23870,23754,39327,35528,0
0,0,0,14108,23847,23754,39327,35418,0
0,0,0,14137,23870,23754,39160,35455,0
0,0,0,14137,23847,23754,39285,35528,0
0,0,0,14137,23847,23754,39327,35418,0
0,0,0,14151,23870,23730,39202,35455,0
0,0,0,14195,23870,23754,39160,35455,0
0,0,0,14238,23917,23754,39202,35418,0
0,0,0,14224,23894,23707,39244,35418,0
0,0,0,14137,23940,23707,39244,35418,0
0,0,0,14108,23964,23684,39119,35382,0
0,0,0,14050,23940,23684,39160,35382,0
0,0,0,14021,23940,23684,39119,35492,0
0,0,0,14007,23940,23707,39077,35345,0
0,0,0,14021,23894,23661,39244,35418,0
0,0,0,13992,23964,23661,39160,35382,0
0,0,0,13964,23894,23707,39160,35345,0
0,0,0,14079,23917,23661,39077,35345,0
0,0,0,14166,23940,23661,39119,35382,0
0,0,0,14195,23940,23615,39119,35382,0
0,0,0,13749,23870,23615,39160,35345,0
0,0,0,13510,23917,23615,39077,35418,0
0,0,0,13454,23940,23615,39160,35345,0
0,0,0,13468,23847,23615,39160,35236,0
0,0,0,13315,23894,23592,39077,35272,0
0,0,0,13287,23894,23592,39202,35345,0
0,0,0,13205,23894,23569,39119,35272,0
0,0,0,13177,23847,23569,38995,35345,0
0,0,0,13027,23870,23615,39077,35418,0
0,0,0,12810,23800,23569,39036,35345,0
0,0,0,12424,23800,23569,39036,35272,0
0,0,0,12060,23847,23615,39160,35236,0
0,0,0,11944,23847,23615,39036,35272,0
0,0,0,11957,23847,23615,39160,35272,0
0,0,0,11957,23847,23569,38995,35309,0
0,0,0,11855,23824,23546,38995,35345,0
0,0,0,11766,23847,23569,39036,35127,0
0,0,0,11553,23800,23569,38995,35309,0
0,0,0,11855,23824,23569,39077,35199,0
0,0,0,12424,23754,23569,38995,35199,0
0,0,0,12424,23800,23569,39036,35163,0
0,0,0,12477,23754,23569,38995,35199,0
0,0,0,12477,23777,23592,39036,35127,0
0,0,0,12477,23824,23522,38995,35163,0
0,0,0,12530,23800,23522,38995,35199,0
0,0,0,12543,23730,23522,38995,35272,0
0,0,0,12543,23707,23615,38912,35127,0
0,0,0,12596,23754,23661,39077,35199,0
0,0,0,12743,23754,23615,38995,35199,0
0,0,0,13177,23754,23615,38995,35127,0
0,0,0,13412,23754,23615,38912,35199,0
0,0,0,13371,23754,23569,38871,35199,0
0,0,0,13510,23777,23615,38912,35018,0
0,0,0,13764,23870,23569,38830,35127,0
0,0,0,14137,23800,23615,38830,35091,0
0,0,0,14399,23870,23522,38830,35199,0
0,0,0,14651,23894,23522,38912,35236,0
0,0,0,15058,24011,23499,38912,35199,0
0,0,0,15459,24034,23522,38871,35199,0
0,0,0,15647,24176,23546,38789,35382,0
0,0,0,15868,24223,23546,38707,35418,0
0,0,0,15980,24271,23477,38544,35492,0
0,0,0,16060,24271,23477,38503,35492,0
0,0,0,16093,24271,23431,38544,35492,0
0,0,0,16157,24176,23431,38503,35492,0
0,0,0,16238,24223,23454,38503,35455,0
0,0,0,16385,24318,23431,38503,35492,0
0,0,0,16417,24318,23431,38422,35455,0
0,0,0,16698,24271,23431,38382,35455,0
0,0,0,16532,24366,23431,38341,35418,0
0,0,0,16287,24318,23431,38260,35565,0
0,0,0,16093,24271,23339,38341,35455,0
0,0,0,16060,24318,23339,38341,35418,0
0,0,0,15964,24342,23431,38341,35528,0
0,0,0,15980,24342,23385,38180,35455,0
0,0,0,16125,24342,23385,38220,35345,0
0,0,0,16206,24318,23385,38180,35382,0
0,0,0,16287,24342,23431,38220,35309,0
0,0,0,16417,24318,23316,38100,35418,0
0,0,0,16516,24342,23339,38260,35272,0
0,0,0,16615,24342,23316,38100,35418,0
0,0,0,16681,24318,23339,38100,35418,0
0,0,0,16748,24294,23385,38220,35272,0
0,0,0,16781,24318,23385,38220,35272,0
0,0,0,16698,24271,23339,38180,35272,0
0,0,0,16615,24271,23316,38180,35272,0
0,0,0,16648,24271,23385,38180,35309,0
0,0,0,16748,24294,23294,38059,35309,0
0,0,0,16748,24247,23294,38059,35272,0
0,0,0,16748,24247,23339,38100,35272,0
0,0,0,16665,24223,23316,38059,35345,0
0,0,0,16598,24223,23408,38140,35199,0
0,0,0,16565,24271,23339,38180,35199,0
0,0,0,16831,24271,23294,38059,35127,0
0,0,0,17050,24318,23339,38100,35272,0
0,0,0,17050,24318,23316,38180,35127,0
0,0,0,17084,24271,23339,38059,35127,0
0,0,0,17220,24342,23294,38100,35127,0
0,0,0,17374,24342,23316,38059,35199,0
0,0,0,17669,24390,23339,38100,35127,0
0,0,0,17845,24294,23316,38100,35055,0
0,0,0,17915,24294,23294,38100,35055,0
0,0,0,17933,24342,23248,37980,35127,0
0,0,0,17915,24318,23225,38059,35018,0
0,0,0,17880,24318,23225,38059,34982,0
0,0,0,17774,24247,23203,38019,35055,0
0,0,0,17687,24271,23248,38019,34946,0
0,0,0,17652,24223,23203,38059,34982,0
0,0,0,17617,24271,23157,37940,35055,0
0,0,0,17565,24271,23135,37900,34982,0
0,0,0,17478,24223,23157,38019,34982,0
0,0,0,17374,24247,23157,37940,34982,0
0,0,0,17323,24152,23157,38019,35018,0
0,0,0,17289,24176,23135,38019,34982,0
0,0,0,17237,24223,23135,37940,34982,0
0,0,0,17186,24176,23180,38019,34910,0
0,0,0,17152,24223,23157,37900,34982,0
0,0,0,17118,24152,23135,37940,35055,0
0,0,0,17118,24129,23112,37980,35055,0
0,0,0,17033,24176,23067,37900,35091,0
0,0,0,17033,24176,23157,38019,35055,0
0,0,0,17016,24152,23044,37781,34982,0
0,0,0,17084,24129,23067,37940,35055,0
0,0,0,17101,24129,23112,37940,35345,0
0,0,0,16983,24129,23022,37860,35199,0
0,0,0,16882,24081,23044,37860,35127,0
0,0,0,16748,24081,23112,37940,35272,0
0,0,0,16615,24081,23067,37940,35272,0
0,0,0,16516,24034,23044,37940,35127,0
0,0,0,16385,24034,23044,37860,35272,0
0,0,0,16254,24011,23044,37781,35272,0
0,0,0,15900,24034,23044,37940,35272,0
0,0,0,15615,24034,23067,37940,35199,0
0,0,0,15412,23940,23022,37860,35272,0
0,0,0,15273,23964,23022,37900,35127,0
0,0,0,14876,23940,23044,37860,35199,0
0,0,0,14547,23940,23022,37860,35163,0
0,0,0,14195,23847,23067,37940,35163,0
0,0,0,14064,23847,23067,38019,35163,0
0,0,0,13964,23870,23022,37820,35272,0
0,0,0,13906,23894,23044,37860,35199,0
0,0,0,13849,23847,23044,37940,35127,0
0,0,0,13792,23800,23067,37860,35055,0
0,0,0,13778,23847,23022,37900,35055,0
0,0,0,13749,23847,23067,37940,35055,0
0,0,0,13764,23824,23044,37860,35163,0
0,0,0,13735,23847,23022,37860,35163,0
0,0,0,13964,23847,23090,37860,35127,0
0,0,0,14370,23847,23112,37940,35163,0
0,0,0,14651,23894,23044,37900,35055,0
0,0,0,14801,23870,23112,38019,35127,0
0,0,0,14846,23847,23112,37900,35127,0
0,0,0,14861,23800,23135,37940,35018,0
0,0,0,14861,23800,23044,37860,35091,0
0,0,0,14741,23754,23090,37860,35055,0
0,0,0,14711,23754,23044,37860,35127,0
0,0,0,14681,23707,23022,37860,35055,0
0,0,0,14696,23684,23022,37940,35055,0
0,0,0,14666,23615,23067,37940,34982,0
0,0,0,14592,23661,23022,37781,34982,0
0,0,0,14399,23661,23157,37781,34982,0
0,0,0,14108,23661,23225,37860,34946,0
0,0,0,13964,23615,23203,37860,34910,0
0,0,0,13921,23546,23203,37860,34982,0
0,0,0,13821,23615,23203,37860,34982,0
0,0,0,13735,23522,23157,37940,34982,0
0,0,0,13792,23569,23203,38019,34982,0
0,0,0,14224,23569,23248,38059,34910,0
0,0,0,14488,23546,23225,38059,34839,0
0,0,0,14876,23522,23362,38180,34696,0
0,0,0,15397,23499,23385,38180,34767,0
0,0,0,15165,23431,23316,38059,34696,0
0,0,0,14607,23522,23248,38100,34660,0
0,0,0,14429,23431,23225,37940,34553,0
0,0,0,14547,23454,23135,37900,34553,0
0,0,0,14907,23477,23157,37940,34553,0
0,0,0,14681,23431,23157,37900,34553,0
0,0,0,14801,23569,23157,37940,34412,0
0,0,0,15089,23754,23044,37781,34341,0
0,0,0,15631,23940,23022,37860,34376,0
0,0,0,16615,23894,22977,37701,34447,0
0,0,0,17186,23800,22977,37741,34412,0
0,0,0,17186,23661,23022,37781,34482,0
0,0,0,17220,23661,23022,37622,34553,0
0,0,0,17357,23615,23044,37543,34553,0
0,0,0,17220,23569,22999,37543,34553,0
0,0,0,17118,23522,23022,37583,34553,0
0,0,0,17084,23454,23022,37583,34447,0
0,0,0,16915,23477,22977,37622,34518,0
0,0,0,16815,23477,22977,37543,34376,0
0,0,0,16748,23477,23022,37543,34341,0
0,0,0,16648,23477,22932,37543,34376,0
0,0,0,16615,23431,22955,37465,34447,0
0,0,0,16516,23431,22977,37543,34412,0
0,0,0,16499,23431,22932,37543,34412,0
0,0,0,16483,23431,22932,37504,34447,0
0,0,0,16385,23431,22932,37543,34447,0
0,0,0,16385,23339,22910,37504,34341,0
0,0,0,16352,23431,22932,37465,34341,0
0,0,0,16303,23408,22977,37543,34341,0
0,0,0,16287,23454,22887,37386,34341,0
0,0,0,16238,23431,22887,37386,34306,0
0,0,0,16254,23431,22932,37426,34271,0
0,0,0,16222,23431,22887,37465,34271,0
0,0,0,16222,23339,22932,37386,34341,0
0,0,0,16157,23385,22887,37386,34341,0
0,0,0,16109,23385,22843,37308,34341,0
0,0,0,16028,23431,22843,37386,34271,0
0,0,0,15964,23339,22843,37386,34235,0
0,0,0,15964,23339,22843,37386,34271,0
0,0,0,15868,23385,22865,37465,34200,0
0,0,0,15868,23431,22887,37426,34165,0
0,0,0,15789,23339,22865,37426,34235,0
0,0,0,15631,23385,22843,37386,34200,0
0,0,0,15584,23385,22887,37426,34095,0
0,0,0,15537,23316,22798,37386,34165,0
0,0,0,15537,23362,22798,37386,34130,0
0,0,0,15663,23385,22798,37426,34130,0
0,0,0,15932,23339,22843,37386,34271,0
0,0,0,15996,23294,22798,37386,34271,0
0,0,0,16060,23248,22843,37386,34271,0
0,0,0,15948,23316,22843,37386,34235,0
0,0,0,15932,23316,22820,37386,34165,0
0,0,0,15916,23294,22843,37465,34200,0
0,0,0,15773,23248,22798,37386,34271,0
0,0,0,15584,23294,22843,37465,34060,0
0,0,0,15412,23248,22798,37386,33991,0
0,0,0,15058,23316,22820,37308,34026,0
0,0,0,13496,23546,22798,37308,33991,0
0,0,0,12530,23477,22776,37230,33921,0
0,0,0,12398,23499,22754,37230,33921,0
0,0,0,12112,23546,22820,37230,33921,0
0,0,0,11615,23499,22754,37230,33991,0
0,0,0,11354,23477,22776,37230,33852,0
0,0,0,11109,23499,22709,37230,33921,0
0,0,0,10963,23522,22754,37152,33852,0
0,0,0,10867,23522,22798,37230,33887,0
0,0,0,10748,23546,22709,37191,33887,0
0,0,0,10724,23522,22731,37230,33852,0
0,0,0,10700,23615,22709,37152,33783,0
0,0,0,10748,23569,22731,37152,33817,0
0,0,0,10724,23569,22709,37230,33783,0
0,0,0,10771,23592,22709,37191,33852,0
0,0,0,10771,23522,22754,37269,33714,0
0,0,0,10831,23569,22709,37230,33748,0
0,0,0,10867,23522,22754,37308,33748,0
0,0,0,11012,23615,22709,37230,33714,0
0,0,0,11072,23615,22709,37230,33748,0
0,0,0,11157,23569,22709,37269,33748,0
0,0,0,11231,23546,22709,37269,33783,0
0,0,0,11206,23569,22687,37230,33783,0
0,0,0,11170,23522,22665,37191,33783,0
0,0,0,11157,23522,22665,37152,33852,0
0,0,0,11133,23499,22709,37269,33714,0
0,0,0,11157,23477,22709,37191,33817,0
0,0,0,11182,23454,22709,37230,33852,0
0,0,0,11182,23569,22687,37230,33714,0
0,0,0,11206,23477,22709,37152,33748,0
0,0,0,11255,23477,22709,37191,33783,0
0,0,0,11304,23431,22665,37230,33852,0
0,0,0,11280,23454,22687,37230,33817,0
0,0,0,11280,23477,22709,37230,33714,0
0,0,0,11317,23431,22709,37308,33852,0
0,0,0,11268,23477,22709,37191,33783,0
0,0,0,11157,23385,22709,37152,33817,0
0,0,0,11440,23431,22709,37191,33714,0
0,0,0,12009,23385,22731,37230,33921,0
0,0,0,12163,23294,22731,37230,33748,0
0,0,0,12280,23294,22731,37191,33887,0
0,0,0,12372,23294,22687,36959,33887,0
0,0,0,12636,23248,22709,37230,33852,0
0,0,0,13287,23294,22754,37191,33852,0
0,0,0,13992,23248,22643,37114,33817,0
0,0,0,14137,23225,22687,37114,33817,0
0,0,0,14180,23248,22709,37152,33714,0
0,0,0,14253,23294,22665,37152,33748,0
0,0,0,14253,23203,22665,37114,33611,0
0,0,0,14253,23203,22731,37152,33748,0
0,0,0,14268,23203,22687,37114,33645,0
0,0,0,14253,23225,22665,37075,33748,0
0,0,0,14282,23203,22665,37114,33714,0
0,0,0,14326,23203,22731,37152,33645,0
0,0,0,14341,23157,22709,37152,33714,0
0,0,0,14458,23203,22709,37230,33679,0
0,0,0,14547,23225,22709,37152,33714,0
0,0,0,14756,23225,22731,37114,33714,0
0,0,0,15104,23203,22754,37230,33714,0
0,0,0,15412,23294,22754,37152,33645,0
0,0,0,15521,23294,22776,37152,33645,0
0,0,0,15631,23339,22754,37191,33679,0
0,0,0,15773,23385,22798,37230,33852,0
0,0,0,15916,23385,22820,37114,33956,0
0,0,0,15980,23431,22798,37152,34060,0
0,0,0,16125,23522,22865,37152,34200,0
0,0,0,16189,23569,22865,37075,34341,0
0,0,0,16222,23569,22865,37114,34165,0
0,0,0,16254,23684,22865,37075,34341,0
0,0,0,16417,23684,22910,37036,34306,0
0,0,0,16565,23870,22887,36998,34341,0
0,0,0,16565,23870,22932,36998,34341,0
0,0,0,16450,23894,22865,36998,34235,0
0,0,0,16287,23847,22887,36959,34165,0
0,0,0,16287,23824,22887,36959,34235,0
0,0,0,16254,23847,22865,36843,34200,0
0,0,0,16287,23917,22887,36805,34271,0
0,0,0,16157,23940,22932,36882,34165,0
0,0,0,15789,24034,22932,36882,34200,0
0,0,0,15773,24081,22932,36690,34306,0
0,0,0,15884,24129,22932,36690,34341,0
0,0,0,15980,24129,22932,36767,34412,0
0,0,0,16060,24129,22932,36690,34376,0
0,0,0,16157,24129,22977,36690,34482,0
0,0,0,16157,24129,22977,36690,34553,0
0,0,0,16109,24223,22932,36614,34518,0
0,0,0,16303,24223,22977,36690,34624,0
0,0,0,16450,24176,22955,36538,34518,0
0,0,0,16385,24223,22977,36538,34553,0
0,0,0,16287,24223,22977,36538,34696,0
0,0,0,16222,24223,23044,36614,34731,0
0,0,0,15964,24247,22955,36652,34982,0
0,0,0,15584,24129,23022,36767,35236,0
0,0,0,15366,24081,23067,36767,35345,0
0,0,0,15459,24081,23022,36767,35455,0
0,0,0,15521,24034,23067,36882,35565,0
0,0,0,15900,23964,23067,37075,36047,0
0,0,0,16303,23894,23135,37075,36235,0
0,0,0,16815,23964,23203,37114,36386,0
0,0,0,17118,23917,23157,37075,36348,0
0,0,0,17600,23940,23225,37230,36690,0
0,0,0,18129,24034,23203,37308,36614,0
0,0,0,18508,24081,23339,37347,36614,0
0,0,0,18635,24129,23339,37308,36805,0
0,0,0,18562,24223,23522,37543,37426,0
0,0,0,18562,24438,23638,37860,38871,0
0,0,0,18581,24799,23777,37940,41221,0
0,0,0,18635,25167,23940,38220,41848,0
0,0,0,18746,25390,23964,38220,41803,0
0,0,0,18801,25291,23964,38019,41399,0
0,0,0,18838,25192,23894,37741,40912,0
0,0,0,18857,25291,23870,37543,40605,0
0,0,0,18968,25291,23917,37622,40519,0
0,0,0,19005,25341,23940,37465,40259,0
0,0,0,18987,25390,23987,37543,40780,0
0,0,0,18894,25490,24105,38220,42304,0
0,0,0,18783,25316,24510,39663,42304,0
0,0,0,18672,25044,24606,40389,42120,0
0,0,0,18581,24897,24510,40432,42029,0
0,0,0,18526,24727,24486,40259,41938,0
0,0,0,18417,24702,24510,40216,41667,0
0,0,0,18380,24606,24462,39917,41309,0
0,0,0,18435,24438,24438,39663,41309,0
0,0,0,18489,24438,24318,39411,41399,0
0,0,0,18417,24366,24318,39327,41132,0
0,0,0,18308,24366,24223,39119,41088,0
0,0,0,18236,24247,24129,38953,40955,0
0,0,0,18075,24223,24081,38707,40736,0
0,0,0,18004,24152,24058,38748,40562,0
0,0,0,17986,24176,24034,38666,40605,0
0,0,0,17915,24129,24058,38666,40389,0
0,0,0,17915,24176,24105,38666,40432,0
0,0,0,17968,24152,24129,38666,40346,0
0,0,0,18093,24129,24058,38585,40173,0
0,0,0,18129,24223,24058,38625,40346,0
0,0,0,18182,24105,23964,38666,40346,0
0,0,0,18164,24058,23987,38585,40173,0
0,0,0,18147,24081,24034,38585,40088,0
0,0,0,18164,24081,24034,38585,40088,0
0,0,0,18164,24058,23987,38503,40045,0
0,0,0,18164,24058,23940,38503,40088,0
0,0,0,18147,24081,23940,38503,39917,0
0,0,0,18164,23987,23894,38463,39747,0
0,0,0,18147,23964,23894,38341,40002,0
0,0,0,18129,24034,23894,38382,39960,0
0,0,0,18093,24034,23894,38301,40002,0
0,0,0,17880,24081,23870,38382,39874,0
0,0,0,17774,24129,23894,38463,39747,0
0,0,0,17739,24105,23870,38341,39494,0
0,0,0,17704,24129,23847,38260,38019,0
0,0,0,17722,24129,23894,38341,37741,0
0,0,0,17739,24199,23870,38180,37622,0
0,0,0,17722,24294,23847,38019,37583,0
0,0,0,17669,24318,23777,37820,36499,0
0,0,0,17600,24318,23661,37622,35199,0
0,0,0,17565,24318,23569,37308,34696,0
0,0,0,17513,24366,23477,37230,34271,0
0,0,0,17426,24414,23316,37308,33921,0
0,0,0,17426,24342,23294,37114,33783,0
0,0,0,17461,24366,23225,36998,33714,0
0,0,0,17495,24366,23203,36998,33611,0
0,0,0,17513,24438,23112,36959,33576,0
0,0,0,17600,24462,23112,36959,33371,0
0,0,0,17757,24534,23112,37308,33474,0
0,0,0,17739,24510,23112,37465,33337,0
0,0,0,17774,24510,23090,37465,33337,0
0,0,0,17652,24606,23067,37386,33168,0
0,0,0,17495,24510,22932,37386,33033,0
0,0,0,17374,24510,22865,37308,32932,0
0,0,0,17461,24606,22887,37308,32932,0
0,0,0,17722,24799,22843,37269,32932,0
0,0,0,17774,24824,22776,37152,32866,0
0,0,0,17792,24824,22754,37230,32799,0
0,0,0,17774,24897,22754,37036,32832,0
0,0,0,17862,24946,22820,37036,32832,0
0,0,0,18057,24873,22843,37036,32765,0
0,0,0,18093,24897,22798,37152,32799,0
0,0,0,17862,24799,22798,37114,32799,0
0,0,0,17845,24702,22798,37036,32799,0
0,0,0,17774,24751,22754,36920,32799,0
0,0,0,17845,24702,22709,36998,32765,0
0,0,0,17915,24654,22709,36920,32699,0
0,0,0,18039,24510,22709,36959,32765,0
0,0,0,18057,24462,22621,36805,32866,0
0,0,0,18057,24414,22665,36843,32832,0
0,0,0,18057,24438,22665,36843,32765,0
0,0,0,18093,24414,22665,36843,32765,0
0,0,0,18362,24342,22665,36882,32765,0
0,0,0,18489,24152,22709,36843,32765,0
0,0,0,18435,23917,22665,36767,32799,0
0,0,0,18417,23754,22665,36843,32699,0
0,0,0,18362,23661,22687,36920,32765,0
0,0,0,18362,23546,22643,36767,32832,0
0,0,0,18380,23431,22665,36920,32765,0
0,0,0,18489,23385,22709,36843,32832,0
0,0,0,18489,23203,22776,36920,32832,0
0,0,0,18508,23157,22798,36998,32899,0
0,0,0,18635,23044,22709,37114,33033,0
0,0,0,18783,23044,22798,37230,32966,0
0,0,0,18968,23157,22843,37191,33033,0
0,0,0,19043,23294,22887,36998,33371,0
0,0,0,18912,23112,22843,36462,33852,0
0,0,0,18672,23157,22754,36310,34130,0
0,0,0,18562,23135,22731,36197,34130,0
0,0,0,18380,23022,22754,36235,34095,0
0,0,0,18129,22932,22665,36160,33921,0
0,0,0,18022,22887,22665,36160,33817,0
0,0,0,17880,22798,22621,36424,33852,0
0,0,0,17880,22754,22488,36767,34026,0
0,0,0,17898,22709,22532,37075,33852,0
0,0,0,17915,22776,22466,37308,33714,0
0,0,0,17986,22754,22621,37583,33645,0
0,0,0,18218,22865,22709,37701,33748,0
0,0,0,18326,22932,22955,37940,34341,0
0,0,0,18526,22887,23248,38220,35565,0
0,0,0,18654,22932,23225,38100,35602,0
0,0,0,18820,22932,23294,38100,36085,0
0,0,0,18931,22977,23225,37860,36197,0
0,0,0,18949,23022,23135,37820,36310,0
0,0,0,18931,22932,23135,37781,36160,0
0,0,0,18931,22932,23157,37701,35898,0
0,0,0,18857,22932,23090,37622,35712,0
0,0,0,18783,22865,23112,37701,35712,0
0,0,0,18764,22865,23112,37622,35492,0
0,0,0,18820,22820,22977,37504,35602,0
0,0,0,18857,22843,22977,37465,35418,0
0,0,0,18820,22843,22887,37308,35382,0
0,0,0,18783,22798,22865,37075,35163,0
0,0,0,18801,22798,22820,37036,35127,0
0,0,0,18801,22776,22754,36920,34589,0
0,0,0,18783,22709,22532,36538,33714,0
0,0,0,18709,22687,22335,36499,33337,0
0,0,0,18709,22754,22226,36235,33371,0
0,0,0,18709,22754,22226,36160,33303,0
0,0,0,18654,22709,22183,36047,33236,0
0,0,0,18654,22776,22161,36047,33168,0
0,0,0,18599,22776,22075,36010,33202,0
0,0,0,18562,22776,22096,36010,33033,0
0,0,0,18508,22776,22075,36272,32966,0
0,0,0,18489,22820,22053,36235,32899,0
0,0,0,18435,22932,22010,36235,32832,0
0,0,0,18471,23022,22096,36160,32699,0
0,0,0,18417,23157,22096,36122,32765,0
0,0,0,18344,23248,22075,36047,32566,0
0,0,0,18344,23225,22053,36010,32633,0
0,0,0,18236,23203,22010,36010,32633,0
0,0,0,18164,23203,22010,35935,32500,0
0,0,0,18129,23157,22053,36085,32500,0
0,0,0,18129,23248,22010,36010,32500,0
0,0,0,18093,23203,21967,36462,32500,0
0,0,0,18075,23203,22053,36010,32402,0
0,0,0,18093,23157,22010,35861,32369,0
0,0,0,18057,23203,21967,36348,32435,0
0,0,0,18075,23157,21903,36310,32303,0
0,0,0,18093,23248,21860,36235,32369,0
0,0,0,18075,23294,21903,36348,32303,0
0,0,0,17986,23294,22010,35712,32402,0
0,0,0,17915,23339,22075,36235,32566,0
0,0,0,17845,23362,22096,36310,32633,0
0,0,0,17845,23339,22075,36197,32467,0
0,0,0,17774,23316,22053,36010,32435,0
0,0,0,17757,23362,22010,36010,32435,0
0,0,0,17774,23339,22010,35898,32369,0
0,0,0,17774,23294,22010,35935,32303,0
0,0,0,17774,23385,22010,35861,32271,0
0,0,0,17774,23385,22053,35787,32369,0
0,0,0,17757,23431,22010,35861,32402,0
0,0,0,17827,23431,22053,35861,32369,0
0,0,0,18164,23225,22183,36047,32533,0
0,0,0,18236,23157,22248,36386,32566,0
0,0,0,18111,23112,22313,37075,32899,0
0,0,0,17915,22955,22313,37230,32966,0
0,0,0,17652,22887,22401,37386,32966,0
0,0,0,17495,22820,22444,37426,32899,0
0,0,0,17323,22798,22488,37269,32866,0
0,0,0,17186,22754,22532,37308,32799,0
0,0,0,17050,22843,22576,36998,32899,0
0,0,0,16781,22843,22599,36843,32999,0
0,0,0,16499,22798,22599,36805,32866,0
0,0,0,16385,22754,22621,36690,32899,0
0,0,0,16352,22776,22621,36767,32765,0
0,0,0,16287,22798,22665,36690,33033,0
0,0,0,16271,22865,22776,36959,33991,0
0,0,0,16287,22865,22977,37386,35272,0
0,0,0,16417,22865,23157,37386,35676,0
0,0,0,16417,22932,23294,37308,35935,0
0,0,0,16565,23022,23294,37230,35972,0
0,0,0,17357,23248,23499,37386,36767,0
0,0,0,17880,23546,23754,37583,37781,0
0,0,0,18218,23730,23847,37860,38666,0
0,0,0,18508,23661,23847,37741,39705,0
0,0,0,19005,23522,23661,37622,38666,0
0,0,0,19382,23362,23477,37741,37662,0
0,0,0,19477,23248,23248,37622,37075,0
0,0,0,19420,23203,23225,37426,36882,0
0,0,0,19325,23180,23203,37386,36767,0
0,0,0,19306,23157,23203,37269,36690,0
0,0,0,19193,23157,23203,37230,36690,0
0,0,0,19005,23112,23203,37386,36614,0
0,0,0,18857,23044,23203,37583,36690,0
0,0,0,18654,23044,23044,37543,36386,0
0,0,0,18562,23112,23022,37543,36386,0
0,0,0,18489,23090,22932,37543,36235,0
0,0,0,18417,23022,22932,37543,36122,0
0,0,0,18453,22977,22910,37543,35972,0
0,0,0,18417,23044,22932,37543,36010,0
0,0,0,18417,23067,22910,37386,35898,0
0,0,0,18417,23067,22843,37386,35935,0
0,0,0,18380,23112,22865,37465,35787,0
0,0,0,18308,23090,22843,37386,35861,0
0,0,0,18308,23157,22887,37386,35898,0
0,0,0,18272,23157,22843,37465,35749,0
0,0,0,18218,23112,22798,37308,35639,0
0,0,0,18164,23135,22798,37308,35639,0
0,0,0,18164,23112,22776,37230,35639,0
0,0,0,18164,23157,22820,37269,35492,0
0,0,0,18129,23112,22776,37308,35565,0
0,0,0,18147,23112,22776,37230,35418,0
0,0,0,18129,23067,22754,37152,35418,0
0,0,0,18129,23112,22754,37308,35309,0
0,0,0,18147,23112,22731,37269,35272,0
0,0,0,18164,23067,22754,37269,35345,0
0,0,0,18129,23067,22754,37191,35272,0
0,0,0,18147,23022,22754,37230,35199,0
0,0,0,18147,23067,22709,37269,35199,0
0,0,0,18182,23022,22709,37230,35127,0
0,0,0,18093,23067,22754,37230,35163,0
0,0,0,17986,23067,22709,37152,35163,0
0,0,0,17915,23112,22776,37114,35199,0
0,0,0,17792,23203,22798,37152,35199,0
0,0,0,17845,23203,22754,37152,34982,0
0,0,0,17986,23112,22754,37269,34767,0
0,0,0,17809,23044,22599,37191,34447,0
0,0,0,17634,23112,22444,37075,34200,0
0,0,0,17513,23112,22270,36614,34026,0
0,0,0,17495,23112,22226,36462,33783,0
0,0,0,17306,23203,22140,36310,33852,0
0,0,0,17203,23112,22183,36386,33542,0
0,0,0,17152,23157,22096,36235,33439,0
0,0,0,17272,23294,22032,36235,33303,0
0,0,0,17461,23499,22032,36160,33168,0
0,0,0,17426,23499,21924,36805,33168,0
0,0,0,17409,23569,21882,36690,33100,0
0,0,0,17669,23477,21924,36805,33033,0
0,0,0,17687,23569,22010,36160,32999,0
0,0,0,17565,23499,22010,36160,33033,0
0,0,0,17513,23522,21967,36805,33100,0
0,0,0,17461,23477,21967,36805,33033,0
0,0,0,17323,23499,22010,36085,33033,0
0,0,0,17340,23477,22010,36085,33033,0
0,0,0,17254,23477,21924,36690,33067,0
0,0,0,17237,23569,21882,36690,33067,0
0,0,0,17186,23569,21924,36767,33067,0
0,0,0,17220,23615,21882,36767,33168,0
0,0,0,17357,23638,22010,36085,33202,0
0,0,0,17357,23684,22053,36197,33202,0
0,0,0,17237,23754,22096,36160,33303,0
0,0,0,17220,23800,22140,36160,33303,0
0,0,0,17186,23777,22140,36310,33439,0
0,0,0,17118,23754,22140,36160,33508,0
0,0,0,17152,23684,22183,36235,33508,0
0,0,0,17374,23592,22161,36310,33439,0
0,0,0,17357,23522,22118,36235,33303,0
0,0,0,17306,23569,22183,36310,33439,0
0,0,0,17426,23684,22205,36348,33337,0
0,0,0,17669,23894,22226,36462,33508,0
0,0,0,17704,23754,22183,36386,33474,0
0,0,0,17862,23477,22140,36386,33474,0
0,0,0,18129,23339,22161,36690,33508,0
0,0,0,18344,23203,22226,36959,33474,0
0,0,0,18236,23022,22226,37152,33508,0
0,0,0,18057,22932,22161,37152,33371,0
0,0,0,18093,22843,22205,37426,33236,0
0,0,0,18093,22843,22183,37308,33168,0
0,0,0,18075,22731,22205,37230,32899,0
0,0,0,17739,22599,22183,37114,32866,0
0,0,0,16781,22532,22335,36998,32765,0
0,0,0,16582,22444,22313,36920,32633,0
0,0,0,16549,22248,22270,37075,32666,0
0,0,0,16648,22248,22313,36998,32633,0
0,0,0,16781,22161,22313,37114,32832,0
0,0,0,16765,22140,22313,37230,33100,0
0,0,0,17084,22053,22401,37426,33202,0
0,0,0,17152,22053,22401,37504,33100,0
0,0,0,17152,22010,22488,37583,33067,0
0,0,0,17050,22010,22510,37465,33202,0
0,0,0,16999,21946,22754,37543,33168,0
0,0,0,17033,21903,22731,37504,33100,0
0,0,0,16781,21924,22754,37347,33033,0
0,0,0,16648,21882,22754,37347,33033,0
0,0,0,16222,21882,22665,37269,32899,0
0,0,0,15980,21882,22709,37230,32832,0
0,0,0,15996,21882,22621,37152,32899,0
0,0,0,15996,21818,22665,37230,32799,0
0,0,0,15964,21882,22621,37075,32765,0
0,0,0,15837,21818,22687,37075,32765,0
0,0,0,15726,21839,22665,37230,32765,0
0,0,0,15584,21796,22687,37191,32732,0
0,0,0,15335,21775,22621,37152,32765,0
0,0,0,15242,21754,22665,37308,32699,0
0,0,0,15119,21860,22843,37741,32799,0
0,0,0,15119,22053,23022,37781,33645,0
0,0,0,15104,22183,23157,37701,34235,0
0,0,0,15135,22357,23294,37622,35272,0
0,0,0,15165,22488,23431,37622,36959,0
0,0,0,15211,22687,23522,37781,38341,0
0,0,0,15242,22887,23615,37583,39077,0
0,0,0,15288,22977,23569,37543,39494,0
0,0,0,15335,23022,23615,37426,39621,0
0,0,0,15397,23022,23569,37269,39536,0
0,0,0,15397,23022,23569,37308,39327,0
0,0,0,15397,23022,23569,37230,39160,0
0,0,0,15443,22887,23522,37191,38830,0
0,0,0,15459,22843,23477,37075,38382,0
0,0,0,15553,22754,23362,37075,38220,0
0,0,0,15663,22709,23294,36998,37701,0
0,0,0,15964,22665,23157,36767,37426,0
0,0,0,16368,22665,23135,36690,37269,0
0,0,0,16966,22754,23112,36690,37114,0
0,0,0,17084,22955,23044,36690,36998,0
0,0,0,17050,23022,23022,36614,36767,0
0,0,0,17118,23112,22977,36462,36767,0
0,0,0,17220,23225,22932,36348,36614,0
0,0,0,17220,23431,22910,36348,36538,0
0,0,0,17016,23522,22843,36197,36462,0
0,0,0,16915,23546,22865,36235,36462,0
0,0,0,16915,23546,22843,36197,36160,0
0,0,0,16532,23522,22798,36010,36235,0
0,0,0,16483,23546,22709,35972,36160,0
0,0,0,16483,23569,22687,36010,36010,0
0,0,0,16681,23707,22665,35935,36010,0
0,0,0,16815,23800,22576,35861,35861,0
0,0,0,16865,23894,22576,35787,35787,0
0,0,0,16748,23987,22510,35787,35712,0
0,0,0,16781,24034,22554,35712,35676,0
0,0,0,16848,24081,22488,35712,35639,0
0,0,0,16831,24081,22488,35676,35528,0
0,0,0,16949,24271,22488,35712,35492,0
0,0,0,17101,24606,22444,35565,35492,0
0,0,0,16781,24678,22444,35565,35455,0
0,0,0,16450,24606,22444,35565,35309,0
0,0,0,16254,24534,22401,35492,35309,0
0,0,0,16287,24486,22401,35528,35163,0
0,0,0,16434,24438,22444,35492,35163,0
0,0,0,16698,24414,22401,35455,35163,0
0,0,0,16949,24318,22401,35455,35199,0
0,0,0,17220,24271,22401,35455,35163,0
0,0,0,17357,24152,22401,35492,35199,0
0,0,0,17495,24081,22401,35455,35127,0
0,0,0,17634,24176,22401,35418,35163,0
0,0,0,17739,24129,22401,35528,35127,0
0,0,0,17809,24034,22466,35418,35272,0
0,0,0,17880,23800,22423,35492,35492,0
