GyroX,GyroY,GyroZ,Thumb,Index,Middle,Ring,Pinky,Gesture
0,0,0,15837,10209,26099,40346,37781,2
0,0,0,15789,10232,26099,40432,37701,2
0,0,0,15837,10278,26073,40389,37820,2
0,0,0,15916,10278,26487,41176,38341,2
0,0,0,15980,10278,26566,41577,38503,2
0,0,0,15980,10301,26882,42395,38503,2
0,0,0,16060,10336,27041,42906,38503,2
0,0,0,16028,10325,26961,43377,38341,2
0,0,0,16012,10301,26882,43807,38140,2
0,0,0,16093,10325,26749,44000,38707,2
0,0,0,16157,10301,26829,44683,39452,2
0,0,0,16206,10301,26882,44981,39494,2
0,0,0,16222,10278,26749,44782,39160,2
0,0,0,16206,10301,26723,44634,38995,2
0,0,0,16222,10301,26566,44487,39036,2
0,0,0,16157,10267,26513,44291,39244,2
0,0,0,15964,10278,26513,44193,41399,2
0,0,0,15773,10301,26513,43711,44832,2
0,0,0,15615,10301,26513,43807,45281,2
0,0,0,15521,10301,26513,43855,44438,2
0,0,0,15412,10301,26566,43855,44000,2
0,0,0,15350,10301,26566,43855,43282,2
0,0,0,15288,10325,26566,43711,42859,2
0,0,0,15273,10325,26566,43951,42859,2
0,0,0,15196,10301,26618,44096,42766,2
0,0,0,15104,10313,26670,44096,42673,2
0,0,0,15074,10313,26802,44291,42673,2
0,0,0,15028,10325,26855,44487,42626,2
0,0,0,15043,10325,26882,44634,42395,2
0,0,0,15089,10313,26935,44585,42488,2
0,0,0,15058,10301,26935,44634,42304,2
0,0,0,15089,10301,26988,44683,42258,2
0,0,0,15104,10267,26961,44634,42120,2
0,0,0,15119,10255,26961,44634,42029,2
0,0,0,15089,10278,26935,44389,41488,2
0,0,0,15074,10290,26829,44048,40955,2
0,0,0,15058,10301,26802,43903,40780,2
0,0,0,14967,10325,26882,43855,40389,2
0,0,0,14816,10348,26855,43519,40259,2
0,0,0,14726,10348,26829,43329,40131,2
0,0,0,14607,10371,26935,43329,39874,2
0,0,0,14547,10394,26961,43472,39578,2
0,0,0,14518,10453,26908,43519,39244,2
0,0,0,14518,10523,26855,43711,38707,2
0,0,0,14518,10558,26829,43519,38544,2
0,0,0,14488,10535,26723,43424,38180,2
0,0,0,14503,10488,26644,43140,38100,2
0,0,0,14488,10464,26566,43140,38019,2
0,0,0,14444,10488,26566,42859,37940,2
0,0,0,14488,10488,26357,42719,37701,2
0,0,0,14458,10523,26228,42304,37426,2
0,0,0,14488,10546,26202,41938,36998,2
0,0,0,14399,10605,26022,41399,36920,2
0,0,0,14253,10629,25971,41354,36690,2
0,0,0,14166,10629,25894,41088,36576,2
0,0,0,14079,10629,25843,41176,36499,2
0,0,0,13978,10605,25818,41044,36499,2
0,0,0,13921,10582,25793,41088,36462,2
0,0,0,13849,10594,25843,41176,36538,2
0,0,0,13863,10570,25894,41176,36462,2
0,0,0,13906,10582,25920,41221,36386,2
0,0,0,13964,10582,25894,41044,36310,2
0,0,0,14036,10582,25894,40955,36462,2
0,0,0,14209,10605,25894,40955,36462,2
0,0,0,14385,10605,25869,40868,36462,2
0,0,0,14666,10594,25793,40780,36462,2
0,0,0,14846,10605,25869,40868,36576,2
0,0,0,14846,10605,25894,40912,36920,2
0,0,0,14861,10629,25945,40955,37036,2
0,0,0,14997,10594,25920,41044,37230,2
0,0,0,15288,10605,25818,40868,37269,2
0,0,0,15459,10605,25818,40868,37308,2
0,0,0,15773,10558,25717,40824,37386,2
0,0,0,15726,10605,25945,41221,38422,2
0,0,0,16060,10629,25894,41443,39077,2
0,0,0,16417,10582,26022,41667,39327,2
0,0,0,16681,10546,26047,41848,39452,2
0,0,0,16831,10546,26047,41848,39536,2
0,0,0,16831,10511,26047,42120,39578,2
0,0,0,16781,10535,26099,42258,39790,2
0,0,0,16748,10535,26228,42212,39663,2
0,0,0,16615,10546,26305,42304,39411,2
0,0,0,16549,10546,26409,42166,39369,2
0,0,0,16648,10558,26461,42120,38871,2
0,0,0,16615,10535,26461,41938,38707,2
0,0,0,16748,10546,26409,41757,38544,2
0,0,0,16815,10488,26357,41443,38422,2
0,0,0,16781,10348,26279,41221,37940,2
0,0,0,16648,10232,26305,41176,37860,2
0,0,0,16549,10163,26305,41044,37741,2
0,0,0,16417,10163,26253,41088,37741,2
0,0,0,16352,10163,26228,40868,37781,2
0,0,0,16303,10163,26124,40868,37701,2
0,0,0,16254,10129,26176,40868,37543,2
0,0,0,16173,10129,26150,40912,37543,2
0,0,0,16060,10129,26150,40824,37465,2
0,0,0,15964,10140,26124,40605,37465,2
0,0,0,15773,10140,26150,40605,37386,2
0,0,0,15726,10140,26099,40519,37230,2
0,0,0,15615,10129,26124,40346,37230,2
0,0,0,15521,10140,26099,40346,37152,2
0,0,0,15366,10129,26150,40302,36998,2
0,0,0,15211,10163,26150,40216,36959,2
0,0,0,15119,10129,26202,40173,36767,2
0,0,0,14967,10140,26150,40173,36652,2
0,0,0,14876,10140,26202,40173,36462,2
0,0,0,14741,10152,26202,40131,36235,2
0,0,0,14518,10140,26253,40002,36010,2
0,0,0,14429,10163,26253,39917,36010,2
0,0,0,14311,10163,26202,39874,35824,2
0,0,0,14224,10163,26176,39874,35712,2
0,0,0,14195,10186,26253,39832,35345,2
0,0,0,14151,10186,26176,39917,35345,2
0,0,0,14108,10186,26150,39705,35272,2
0,0,0,14093,10174,26099,39705,34910,2
0,0,0,14079,10174,26099,39747,34874,2
0,0,0,14108,10163,26124,40045,34660,2
0,0,0,14224,10186,26305,40346,34482,2
0,0,0,14562,10163,26487,40346,34341,2
0,0,0,14937,10186,26461,40173,34306,2
0,0,0,15211,10186,26383,39874,34235,2
0,0,0,15335,10209,26357,39874,34130,2
0,0,0,15366,10209,26228,39790,34026,2
0,0,0,15335,10209,26124,39578,33956,2
0,0,0,15273,10232,26099,39369,34026,2
0,0,0,15150,10232,26047,39411,33921,2
0,0,0,15089,10267,26099,39327,34130,2
0,0,0,15043,10301,26124,39327,34200,2
0,0,0,15028,10313,26202,39327,34200,2
0,0,0,15058,10348,26202,39160,34341,2
0,0,0,15089,10313,26099,39202,34696,2
0,0,0,15089,10348,26022,39244,34910,2
0,0,0,15150,10313,25894,39327,35163,2
0,0,0,15211,10348,25894,39494,35236,2
0,0,0,15273,10348,25996,39960,35602,2
0,0,0,15242,10371,26073,40131,35935,2
0,0,0,15288,10441,26073,39663,36085,2
0,0,0,15428,10535,25742,39285,35787,2
0,0,0,15459,10629,25767,39160,35676,2
0,0,0,15475,10724,25666,38871,35455,2
0,0,0,15288,10831,25591,38912,35345,2
0,0,0,15273,10867,25540,38871,35455,2
0,0,0,15211,10867,25540,38830,35345,2
0,0,0,15211,10915,25440,38912,35272,2
0,0,0,15150,10891,25440,38995,35199,2
0,0,0,15150,10927,25390,39036,35127,2
0,0,0,15242,10963,25291,39077,35091,2
0,0,0,15304,10963,25291,39077,34874,2
0,0,0,15273,10939,25291,39244,34767,2
0,0,0,15242,10963,25192,39160,34696,2
0,0,0,15211,10963,25241,39452,34839,2
0,0,0,15242,10963,25291,39832,35018,2
0,0,0,15242,10939,25241,40173,35639,2
0,0,0,15242,10963,25316,40216,35712,2
0,0,0,15242,10939,25390,40824,36160,2
0,0,0,15211,10915,25742,41667,36348,2
0,0,0,15273,10927,26124,42212,36959,2
0,0,0,15273,10927,26253,42906,37583,2
0,0,0,15335,10987,26305,43046,38100,2
0,0,0,15366,10963,26331,42766,37622,2
0,0,0,15335,10963,26331,42626,37308,2
0,0,0,15366,10963,26305,42349,36767,2
0,0,0,15335,10963,26279,42120,36690,2
0,0,0,15335,10963,26305,42029,36576,2
0,0,0,15304,10963,26305,42029,36462,2
0,0,0,15335,10987,26305,41938,36499,2
0,0,0,15319,10963,26305,41803,36386,2
0,0,0,15288,10987,26305,41803,36386,2
0,0,0,15366,11024,26305,41848,36310,2
0,0,0,15397,11024,26305,41803,36462,2
0,0,0,15459,11036,26305,41667,36348,2
0,0,0,15584,11060,26305,41757,36499,2
0,0,0,15710,11109,26357,41848,36462,2
0,0,0,16093,11109,26487,42029,36690,2
0,0,0,16565,11084,26644,42304,36843,2
0,0,0,16983,11072,26749,42580,36959,2
0,0,0,17289,11072,26776,42766,37230,2
0,0,0,17547,11072,26829,43140,37347,2
0,0,0,17669,11109,26776,43235,37465,2
0,0,0,17669,11072,26829,43235,37504,2
0,0,0,17704,11109,26829,43329,37543,2
0,0,0,17774,11109,26829,43140,37504,2
0,0,0,17739,11121,26829,43140,37347,2
0,0,0,17774,11121,26829,42953,37152,2
0,0,0,17915,11133,26829,43093,37386,2
0,0,0,17933,11133,26829,43235,37386,2
0,0,0,17862,11133,26855,43140,37152,2
0,0,0,17739,11157,26776,43046,37230,2
0,0,0,17652,11133,26776,42953,37114,2
0,0,0,17600,11133,26776,42859,37036,2
0,0,0,17582,11109,26749,42906,36843,2
0,0,0,17530,11133,26749,42766,36920,2
0,0,0,17582,11133,26749,42395,36959,2
0,0,0,17792,11133,26670,42258,36998,2
0,0,0,17704,11157,26618,42120,37075,2
0,0,0,17565,11157,26566,41757,36998,2
0,0,0,17220,11157,26461,41488,36920,2
0,0,0,17033,11170,26435,41265,37386,2
0,0,0,16765,11206,26435,41488,37940,2
0,0,0,16368,11280,26513,41577,38871,2
0,0,0,16189,11280,26618,41848,39578,2
0,0,0,15964,11304,26723,42212,39705,2
0,0,0,15789,11354,26829,42395,39663,2
0,0,0,15710,11366,26855,42304,39832,2
0,0,0,15663,11354,26882,42534,39578,2
0,0,0,15600,11354,26829,42212,39036,2
0,0,0,15521,11354,26776,42029,38666,2
0,0,0,15475,11292,26618,41399,38260,2
0,0,0,15381,11255,26513,41399,38019,2
0,0,0,15288,11255,26357,40955,37152,2
0,0,0,15150,11206,26228,40346,36160,2
0,0,0,15058,11182,26022,40002,35455,2
0,0,0,14967,11157,25869,39578,35018,2
0,0,0,14907,11157,25717,39244,34553,2
0,0,0,14922,11133,25616,38953,34130,2
0,0,0,14876,11109,25565,38707,34026,2
0,0,0,14846,11109,25540,38707,33991,2
0,0,0,14846,11096,25490,38666,34060,2
0,0,0,14846,11084,25415,38585,34200,2
0,0,0,14922,11072,25390,38544,34165,2
0,0,0,15119,11084,25316,38544,34412,2
0,0,0,15335,11060,25316,38748,35272,2
0,0,0,15490,11024,25291,39621,37504,2
0,0,0,15553,11012,25291,40002,38871,2
0,0,0,15584,10963,25241,39790,38666,2
0,0,0,15615,10963,25093,39369,38260,2
0,0,0,15678,10963,24897,38953,37741,2
0,0,0,15789,10987,24702,38707,37465,2
0,0,0,15916,10999,24606,38830,37386,2
0,0,0,16060,10987,24654,39452,38220,2
0,0,0,15996,10987,24751,39663,38301,2
0,0,0,16060,10987,24799,39917,38260,2
0,0,0,16157,10987,24654,39917,37980,2
0,0,0,16417,10927,24318,39369,36843,2
0,0,0,16715,10867,24129,39244,36462,2
0,0,0,16882,10819,24034,39327,35935,2
0,0,0,17033,10831,23870,38995,35309,2
0,0,0,17118,10819,23661,38422,34412,2
0,0,0,17169,10867,23294,37465,33371,2
0,0,0,17357,10915,23022,36690,32699,2
0,0,0,17513,10927,22621,36235,31978,2
0,0,0,17652,10975,22401,35749,31276,2
0,0,0,17757,10999,22096,35199,30591,2
0,0,0,17915,11060,21839,35639,30408,2
0,0,0,18129,11084,21711,35309,30165,2
0,0,0,18147,11133,21648,34982,30135,2
0,0,0,18147,11157,21627,35018,30015,2
0,0,0,18129,11157,21627,35055,30165,2
0,0,0,18129,11182,21627,34839,30286,2
0,0,0,18022,11219,21648,34803,30286,2
0,0,0,18022,11231,21648,34839,30317,2
0,0,0,18111,11280,21669,34767,30347,2
0,0,0,18272,11304,21669,34767,30286,2
0,0,0,18344,11354,21648,34624,30105,2
0,0,0,18399,11416,21796,34589,29805,2
0,0,0,18236,11453,21669,34200,29509,2
0,0,0,18308,11478,21648,34200,29421,2
0,0,0,18236,11503,21627,33991,29421,2
0,0,0,18380,11503,21648,34026,29421,2
0,0,0,18453,11503,21627,33921,29391,2
0,0,0,18417,11490,21606,33887,29391,2
0,0,0,18326,11565,21584,33714,29304,2
0,0,0,18308,11603,21458,33439,29129,2
0,0,0,18272,11615,21458,33371,29100,2
0,0,0,18290,11653,21395,33337,29042,2
0,0,0,18272,11678,21395,33303,28927,2
0,0,0,18308,11678,21395,33303,28927,2
0,0,0,18380,11703,21416,33202,28869,2
0,0,0,18362,11754,21458,33033,28812,2
0,0,0,18380,11855,21479,33033,28697,2
0,0,0,18635,11830,21584,32999,28812,2
0,0,0,18599,11804,21563,32966,28754,2
0,0,0,18489,11779,21542,32899,28640,2
0,0,0,18399,11804,21627,32899,28726,2
0,0,0,18326,11804,21627,32899,28754,2
0,0,0,18380,11792,22010,32633,28869,2
0,0,0,18562,11983,22401,33100,29187,2
0,0,0,18453,11996,22843,34060,29984,2
0,0,0,18200,11957,23022,34271,30256,2
0,0,0,17986,11957,23022,34165,30347,2
0,0,0,17757,11932,23022,34271,30591,2
0,0,0,17495,11932,23044,34447,30715,2
0,0,0,17289,11932,23294,35163,31150,2
0,0,0,17016,11881,23248,35091,31150,2
0,0,0,16882,11881,23248,35127,31087,2
0,0,0,16715,11842,23294,35055,31087,2
0,0,0,16632,11804,23248,35055,30994,2
0,0,0,16615,11804,23203,34982,30931,2
0,0,0,16549,11779,23248,34839,30838,2
0,0,0,16516,11678,23225,34839,30838,2
0,0,0,16450,11665,23203,34696,30715,2
0,0,0,16417,11653,23203,34589,30715,2
0,0,0,16319,11653,23157,34624,30838,2
0,0,0,16238,11628,23294,34589,31244,2
0,0,0,16060,11653,23385,34767,32010,2
0,0,0,15789,11628,23431,34696,32599,2
0,0,0,15521,11615,23316,34482,33168,2
0,0,0,15273,11653,23385,34589,33439,2
0,0,0,15058,11691,23339,34518,33439,2
0,0,0,14907,11678,23339,34447,33576,2
0,0,0,14786,11665,23316,34447,33645,2
0,0,0,14666,11665,23316,34341,33611,2
0,0,0,14547,11653,23294,34271,33679,2
0,0,0,14370,11628,23339,34341,33611,2
0,0,0,14224,11628,23294,34165,33508,2
0,0,0,14137,11603,23431,34130,33645,2
0,0,0,13992,11603,23431,34341,33852,2
0,0,0,13863,11603,23477,34235,33887,2
0,0,0,13693,11603,23592,34412,34341,2
0,0,0,13454,11603,23638,34447,34200,2
0,0,0,13343,11603,23661,34412,34130,2
0,0,0,13177,11603,23684,34482,34200,2
0,0,0,13027,11603,23847,34696,34235,2
0,0,0,13013,11603,23824,34982,34130,2
0,0,0,13013,11603,23847,35199,34165,2
0,0,0,13013,11565,23800,34982,33991,2
0,0,0,12972,11615,23847,34696,34060,2
0,0,0,12959,11653,23754,34624,33956,2
0,0,0,12959,11628,23754,34553,33714,2
0,0,0,12972,11665,23754,34553,33852,2
0,0,0,12932,11653,23894,34767,33439,2
0,0,0,12932,11653,23847,34767,33269,2
0,0,0,12905,11615,23870,34624,33100,2
0,0,0,12905,11628,23870,34553,32799,2
0,0,0,12864,11628,23800,34518,32666,2
0,0,0,12851,11603,23777,34482,32566,2
0,0,0,12864,11603,23800,34412,32467,2
0,0,0,12851,11603,23707,34341,32402,2
0,0,0,12864,11615,23754,34271,32369,2
0,0,0,12864,11603,23754,34271,32336,2
0,0,0,12824,11615,23684,34235,32303,2
0,0,0,12824,11615,23661,34060,32500,2
0,0,0,12864,11628,23684,34130,32369,2
0,0,0,12905,11653,23615,34026,32467,2
0,0,0,12932,11628,23592,34130,32369,2
0,0,0,12932,11653,23615,34060,32336,2
0,0,0,12972,11615,23569,34060,32435,2
0,0,0,12959,11653,23546,33991,32500,2
0,0,0,12972,11628,23592,33956,32435,2
0,0,0,12972,11628,23569,34060,32435,2
0,0,0,13013,11678,23546,33991,32402,2
0,0,0,12999,11653,23522,33991,32435,2
0,0,0,12972,11653,23546,33991,32402,2
0,0,0,13013,11653,23522,33991,32303,2
0,0,0,13040,11628,23522,34026,32435,2
0,0,0,13040,11665,23522,33921,32369,2
0,0,0,13095,11628,23477,33921,32402,2
0,0,0,13122,11615,23477,33991,32303,2
0,0,0,13287,11653,23454,33852,32500,2
0,0,0,13454,11615,23431,33852,32633,2
0,0,0,13538,11615,23408,33956,32699,2
0,0,0,13566,11603,23385,33921,32799,2
0,0,0,13679,11578,23362,33991,32999,2
0,0,0,13964,11515,23294,34095,33439,2
0,0,0,14238,11490,23294,34482,34095,2
0,0,0,14268,11478,23248,34767,34341,2
0,0,0,14195,11428,23385,35127,34412,2
0,0,0,14108,11453,23431,35199,34447,2
0,0,0,14079,11453,23431,35455,34482,2
0,0,0,14021,11453,23385,35345,34482,2
0,0,0,13935,11403,23431,35639,34624,2
0,0,0,13849,11428,23431,35676,34910,2
0,0,0,13821,11453,23569,36010,35091,2
0,0,0,13906,11428,23730,36576,35455,2
0,0,0,13906,11453,23940,37075,35935,2
0,0,0,13935,11503,24058,37465,36160,2
0,0,0,13992,11478,24414,38260,36386,2
0,0,0,14079,11515,24366,38220,36386,2
0,0,0,14166,11528,24034,37543,35898,2
0,0,0,14488,11603,23362,36538,34982,2
0,0,0,14967,11590,22843,35272,33783,2
0,0,0,15366,11603,22401,34341,32303,2
0,0,0,15615,11703,22053,33611,30653,2
0,0,0,15900,11716,21648,33817,29158,2
0,0,0,16157,11754,21395,33508,28726,2
0,0,0,16287,11804,21208,33067,28357,2
0,0,0,16368,11817,21084,32899,28133,2
0,0,0,16417,11855,20961,32633,27966,2
0,0,0,16385,11855,20879,32500,27828,2
0,0,0,16532,11855,20879,32435,27718,2
0,0,0,16499,11855,20879,32369,27800,2
0,0,0,16815,11855,20899,32402,27745,2
0,0,0,17084,11855,20961,32666,27828,2
0,0,0,16815,11906,20981,32633,27800,2
0,0,0,16549,11906,21002,32566,27691,2
0,0,0,16499,11932,21125,32666,27527,2
0,0,0,16516,11932,21125,32699,27527,2
0,0,0,16615,11919,21167,32633,27527,2
0,0,0,16648,11919,21208,32633,27418,2
0,0,0,16882,11906,21291,32566,27364,2
0,0,0,17220,11906,21333,32500,27418,2
0,0,0,17669,11906,21416,32303,27310,2
0,0,0,18022,11906,21627,32369,27310,2
0,0,0,18272,11932,21669,32402,27256,2
0,0,0,18200,11957,21669,32303,27256,2
0,0,0,17933,11932,21648,32303,27310,2
0,0,0,17845,11957,21627,32271,27256,2
0,0,0,17774,11932,21584,32336,27256,2
0,0,0,17669,11932,21563,32369,27283,2
0,0,0,17582,11957,21542,32435,27418,2
0,0,0,17495,11983,21542,32303,27527,2
0,0,0,17323,11983,21542,32435,27636,2
0,0,0,17306,12021,21542,32435,27691,2
0,0,0,17323,12009,21500,32369,27800,2
0,0,0,17254,12021,21563,32336,27800,2
0,0,0,17289,12009,21584,32271,27691,2
0,0,0,17289,11983,21584,32238,27745,2
0,0,0,17357,12009,21648,32303,27636,2
0,0,0,17478,12034,21669,32369,27800,2
0,0,0,17495,11983,21669,32402,27828,2
0,0,0,17478,11983,21669,32369,27911,2
0,0,0,17582,11957,21711,32435,28022,2
0,0,0,17600,11970,21796,32402,28077,2
0,0,0,17600,11906,21882,32500,28301,2
0,0,0,17634,11868,21882,32467,28301,2
0,0,0,17704,11855,21882,32435,28357,2
0,0,0,17774,11817,21924,32369,28470,2
0,0,0,17704,11817,22010,31849,28697,2
0,0,0,17530,11779,22010,32010,28726,2
0,0,0,17443,11754,22010,31785,28697,2
0,0,0,17289,11754,21903,32205,28697,2
0,0,0,17101,11703,21882,32238,28754,2
0,0,0,16915,11665,22010,31817,29158,2
0,0,0,16549,11628,22140,32369,30165,2
0,0,0,16271,11603,22313,32666,30561,2
0,0,0,16028,11590,22466,33134,31056,2
0,0,0,15900,11553,22576,33371,31529,2
0,0,0,15789,11528,22665,33611,31656,2
0,0,0,15741,11453,22665,33714,31720,2
0,0,0,15678,11403,22643,33645,31593,2
0,0,0,15710,11379,22576,33576,31561,2
0,0,0,15710,11341,22576,33611,31434,2
0,0,0,15647,11304,22576,33542,31370,2
0,0,0,15678,11292,22665,33576,31624,2
0,0,0,15584,11304,22798,34130,32108,2
0,0,0,15412,11255,23135,34589,32866,2
0,0,0,15089,11255,23522,35272,33991,2
0,0,0,14666,11255,24081,36499,35163,2
0,0,0,14370,11255,24799,38503,36767,2
0,0,0,14195,11206,25316,39917,37701,2
0,0,0,14137,11219,25742,41399,38585,2
0,0,0,14021,11206,26099,42258,38341,2
0,0,0,13906,11121,26305,42719,38220,2
0,0,0,13792,10915,26305,42673,37940,2
0,0,0,13622,10558,26047,42120,37701,2
0,0,0,13594,10301,25843,41533,37386,2
0,0,0,13510,10209,25691,41176,37152,2
0,0,0,13454,10186,25515,40780,36690,2
0,0,0,13357,10163,25465,40346,36235,2
0,0,0,13232,10163,25415,40002,36010,2
0,0,0,13191,10140,25440,39832,35749,2
0,0,0,13095,10117,25440,39663,35455,2
0,0,0,12972,10117,25341,39452,35199,2
0,0,0,12797,10117,25192,39244,34553,2
0,0,0,12716,10117,25044,38666,33852,2
0,0,0,12649,10117,25019,38341,33474,2
0,0,0,12583,10117,24946,38341,33405,2
0,0,0,12583,10094,24946,38180,33303,2
0,0,0,12543,10117,24921,38019,33303,2
0,0,0,12530,10117,24848,38019,33168,2
0,0,0,12517,10117,24799,37940,33168,2
0,0,0,12530,10117,24751,37781,33134,2
0,0,0,12477,10106,24751,37741,33067,2
0,0,0,12530,10071,24678,37662,33033,2
0,0,0,12623,10083,24654,37308,32765,2
0,0,0,12649,10083,24390,36843,32271,2
0,0,0,12636,10071,24271,36499,32010,2
0,0,0,12663,10117,24223,36462,32010,2
0,0,0,12770,10117,24223,36386,32010,2
0,0,0,12959,10117,24223,36348,32140,2
0,0,0,13232,10117,24081,36235,32205,2
0,0,0,13343,10117,24129,36197,32369,2
0,0,0,13566,10094,24081,36160,32500,2
0,0,0,14137,10083,24129,36197,32303,2
0,0,0,14458,10117,24034,36160,32303,2
0,0,0,14592,10094,24081,36122,32533,2
0,0,0,14621,10117,24129,36272,32666,2
0,0,0,14607,10140,24129,36272,33033,2
0,0,0,14562,10174,24129,36462,33303,2
0,0,0,14458,10197,24129,36614,33439,2
0,0,0,14399,10244,24129,36998,33991,2
0,0,0,14370,10255,24318,37504,34553,2
0,0,0,14282,10313,24510,38019,34946,2
0,0,0,14195,10348,24654,38220,35199,2
0,0,0,14137,10394,24751,38341,35309,2
0,0,0,14050,10394,24799,38382,35272,2
0,0,0,13964,10418,24921,38544,35345,2
0,0,0,13806,10464,25118,38830,35418,2
0,0,0,13679,10488,25291,38830,35272,2
0,0,0,13608,10488,25316,38830,35309,2
0,0,0,13524,10488,25415,39119,35236,2
0,0,0,13412,10499,25565,39452,35272,2
0,0,0,13398,10511,25691,39747,35565,2
0,0,0,13343,10488,25742,40346,35492,2
0,0,0,13287,10488,25818,40519,35712,2
0,0,0,13232,10488,25843,40868,35861,2
0,0,0,13232,10488,25894,41132,36010,2
0,0,0,13218,10488,25894,41533,35972,2
0,0,0,13246,10488,26022,41848,36310,2
0,0,0,13218,10546,25945,41803,36348,2
0,0,0,13260,10594,25869,42120,36386,2
0,0,0,13343,10676,25793,42766,35935,2
0,0,0,13398,10724,25616,42488,35492,2
0,0,0,13510,10771,25591,42580,35199,2
0,0,0,13454,10771,25415,42673,35055,2
0,0,0,13482,10771,25390,42626,34910,2
0,0,0,13538,10795,25341,42349,34767,2
0,0,0,13566,10771,25316,42212,34482,2
0,0,0,13524,10759,25316,42120,34553,2
0,0,0,13510,10748,25241,42304,34447,2
0,0,0,13510,10771,25142,42212,34482,2
0,0,0,13580,10771,25118,42212,34271,2
0,0,0,13735,10795,25093,42166,34341,2
0,0,0,13978,10819,24799,41938,34235,2
0,0,0,14079,10879,24510,41533,33887,2
0,0,0,14050,10963,24414,41132,33714,2
0,0,0,14108,11012,24318,41044,33714,2
0,0,0,14195,11012,24318,41088,33852,2
0,0,0,14253,11012,24582,41533,34482,2
0,0,0,14399,11012,24897,42029,35309,2
0,0,0,14370,11024,24970,42442,35749,2
0,0,0,14547,11036,25316,42719,36235,2
0,0,0,14607,11012,25591,42953,36767,2
0,0,0,14547,11012,25691,42953,36805,2
0,0,0,14224,10963,25843,43046,36998,2
0,0,0,13849,10927,25894,42812,37269,2
0,0,0,13566,10831,25945,42534,37308,2
0,0,0,13329,10771,25894,42395,37386,2
0,0,0,13177,10700,25793,42304,37583,2
0,0,0,13068,10676,25742,42075,37426,2
0,0,0,13068,10653,25691,41938,37308,2
0,0,0,13040,10629,25616,41667,37269,2
0,0,0,12932,10535,25490,41399,37269,2
0,0,0,12797,10464,25465,41354,37114,2
0,0,0,12636,10394,25515,41176,37308,2
0,0,0,12610,10371,25616,41044,37386,2
0,0,0,12610,10301,25793,41044,37622,2
0,0,0,12716,10290,25894,41044,37426,2
0,0,0,12824,10278,26047,41044,37152,2
0,0,0,13122,10255,26202,40868,36920,2
0,0,0,13398,10221,26409,41132,36920,2
0,0,0,13538,10209,26776,41221,36767,2
0,0,0,13636,10140,27068,41399,37075,2
0,0,0,13863,10071,27391,41667,36959,2
0,0,0,14151,10037,27472,42166,36998,2
0,0,0,14311,10026,27609,42442,36690,2
0,0,0,14473,10026,27911,43235,36538,2
0,0,0,14607,10037,28217,43855,36462,2
0,0,0,14907,10049,28697,44438,36348,2
0,0,0,15089,10071,29042,45181,36424,2
0,0,0,15273,10094,29391,45281,36424,2
0,0,0,15459,10117,29597,45231,36386,2
0,0,0,15868,10174,29775,45432,36424,2
0,0,0,16173,10278,30105,45382,36462,2
0,0,0,16401,10371,30165,45131,36310,2
0,0,0,16549,10418,30165,44931,36160,2
0,0,0,16681,10441,30045,44832,36047,2
0,0,0,16765,10441,29865,44487,36010,2
0,0,0,16781,10394,29509,44242,35861,2
0,0,0,16781,10359,29274,43807,35676,2
0,0,0,16815,10301,29042,43519,35272,2
0,0,0,16815,10267,28726,42906,34341,2
0,0,0,16882,10267,28583,42488,34165,2
0,0,0,16915,10290,28527,42395,34095,2
0,0,0,16915,10301,28414,42304,34095,2
0,0,0,16915,10313,28414,42304,33991,2
0,0,0,16949,10325,28357,42120,34095,2
0,0,0,16898,10325,28357,42212,33991,2
0,0,0,16932,10325,28301,42029,34060,2
0,0,0,16949,10348,28301,41848,34130,2
0,0,0,16932,10348,28245,41893,33991,2
0,0,0,16949,10348,28217,41803,34060,2
0,0,0,16915,10371,28189,41667,34095,2
0,0,0,16932,10371,28133,41667,34026,2
0,0,0,16831,10359,28077,41622,33887,2
0,0,0,16882,10359,28133,41577,33921,2
0,0,0,16831,10394,28105,41577,33921,2
0,0,0,16815,10371,28049,41577,33852,2
0,0,0,16831,10359,28022,41399,33714,2
0,0,0,16798,10394,27966,41354,33852,2
0,0,0,16898,10394,27856,41309,33921,2
0,0,0,16966,10406,27911,41309,34026,2
0,0,0,16983,10394,27828,41221,33991,2
0,0,0,16983,10406,27800,41176,33852,2
0,0,0,16966,10441,27745,41221,33991,2
0,0,0,16966,10441,27745,41132,33921,2
0,0,0,17016,10453,27745,41044,33783,2
0,0,0,17033,10464,27745,41132,33852,2
0,0,0,17152,10488,27745,41176,33748,2
0,0,0,17272,10511,27554,41044,33887,2
0,0,0,17461,10535,27364,40868,33956,2
0,0,0,17600,10535,27310,40868,33852,2
0,0,0,17792,10523,27283,40693,33921,2
0,0,0,17774,10535,27256,40736,33852,2
0,0,0,17774,10499,27148,40605,33852,2
0,0,0,17722,10488,27148,40605,33921,2
0,0,0,17530,10453,27122,40562,33852,2
0,0,0,17306,10453,27095,40519,34026,2
0,0,0,16966,10441,27068,40432,33921,2
0,0,0,16781,10441,27095,40519,34130,2
0,0,0,16549,10441,27095,40519,34553,2
0,0,0,16287,10441,27095,40736,34874,2
0,0,0,16109,10441,27041,40868,35055,2
0,0,0,16060,10441,26961,40955,35199,2
0,0,0,16093,10418,26961,41132,35418,2
0,0,0,16157,10371,26908,41132,35345,2
0,0,0,16222,10313,26723,41176,35565,2
0,0,0,16352,10278,26776,41265,35712,2
0,0,0,16368,10267,26618,41399,35898,2
0,0,0,16303,10267,26461,41221,35972,2
0,0,0,16287,10267,26202,40868,35861,2
0,0,0,16222,10290,25996,40605,35712,2
0,0,0,16206,10301,25843,40173,35528,2
0,0,0,16093,10313,25691,39663,35272,2
0,0,0,16028,10348,25591,39411,35018,2
0,0,0,15996,10371,25490,39285,34982,2
0,0,0,15964,10371,25490,39244,35055,2
0,0,0,16012,10371,25415,39202,35127,2
0,0,0,16028,10371,25390,39202,34982,2
0,0,0,16012,10394,25390,39244,34839,2
0,0,0,15900,10418,25316,39244,34982,2
0,0,0,15805,10429,25390,39244,34910,2
0,0,0,15773,10488,25440,39369,34839,2
0,0,0,15726,10558,25540,39494,34731,2
0,0,0,15710,10629,25515,39452,34553,2
0,0,0,15568,10700,25591,39621,34447,2
0,0,0,15521,10748,25616,39452,34341,2
0,0,0,15412,10771,25641,39327,34200,2
0,0,0,15443,10795,25591,39285,34165,2
0,0,0,15397,10831,25591,39285,34060,2
0,0,0,15350,10879,25565,39036,33921,2
0,0,0,15211,11060,25465,38707,33714,2
0,0,0,15150,11170,25341,38625,33542,2
0,0,0,15150,11206,25192,38422,33542,2
0,0,0,15074,11170,25142,38382,33439,2
0,0,0,15028,11157,25068,38341,33236,2
0,0,0,14907,11109,25044,38341,33033,2
0,0,0,14801,11060,25044,38341,32932,2
0,0,0,14846,10963,24824,38220,32633,2
0,0,0,14967,10891,24462,38100,32500,2
0,0,0,14861,10879,24011,37583,32108,2
0,0,0,14786,10891,23754,37465,31849,2
0,0,0,14547,10915,23592,37114,31529,2
0,0,0,14488,10891,23638,37075,31497,2
0,0,0,14937,10891,24654,38260,32238,2
0,0,0,15335,10867,25415,38995,32999,2
0,0,0,16060,10831,25390,39411,33439,2
0,0,0,16565,10867,25167,39285,33236,2
0,0,0,17357,10891,24897,38789,33100,2
0,0,0,17845,10867,24654,38585,32932,2
0,0,0,18417,10975,24606,38220,32599,2
0,0,0,18471,11024,24606,38019,32666,2
0,0,0,18508,11012,24630,37900,32699,2
0,0,0,18654,11012,24995,38422,33371,2
0,0,0,18709,11024,25316,38830,33405,2
0,0,0,18912,11012,25390,39036,33611,2
0,0,0,19231,10963,25490,39369,33714,2
0,0,0,19306,10951,25793,40173,35018,2
0,0,0,19843,10879,25996,40693,37426,2
0,0,0,20676,10819,26047,41132,37860,2
0,0,0,20636,10819,25996,41265,37701,2
0,0,0,20415,10795,25996,41265,37543,2
0,0,0,20315,10819,25945,41176,37075,2
0,0,0,20315,10843,25945,40912,36920,2
0,0,0,20275,10855,25920,41088,36805,2
0,0,0,20275,10867,25945,41265,36767,2
0,0,0,20196,10891,25894,41399,36920,2
0,0,0,20176,10915,25920,41354,36882,2
0,0,0,20098,10915,25971,41354,36767,2
0,0,0,20019,10915,25996,41309,36767,2
0,0,0,19921,10963,25996,41309,36843,2
0,0,0,19843,10963,26047,41221,36690,2
0,0,0,19708,10987,26099,41221,36690,2
0,0,0,19708,11012,26124,41176,36767,2
0,0,0,19727,11109,26099,41132,36843,2
0,0,0,19746,11121,26022,41132,36805,2
0,0,0,19708,11121,26022,41088,36767,2
0,0,0,19612,11121,26047,41132,36652,2
0,0,0,19535,11109,25971,41088,36614,2
0,0,0,19612,11084,25945,41044,36538,2
0,0,0,19766,11084,25945,41044,36690,2
0,0,0,19708,11109,25920,41044,36614,2
0,0,0,19766,11109,25920,41044,36690,2
0,0,0,19863,11109,25869,41044,36767,2
0,0,0,19863,11109,25793,41044,37426,2
0,0,0,19805,11109,25767,40955,37308,2
0,0,0,19805,11109,25742,40868,37269,2
0,0,0,19805,11157,25742,41000,37230,2
0,0,0,19727,11157,25691,40780,36998,2
0,0,0,19843,11182,25767,40955,36920,2
0,0,0,19960,11182,25793,41088,36998,2
0,0,0,20039,11182,25793,41088,36998,2
0,0,0,20176,11206,25793,41132,37114,2
0,0,0,20275,11182,25818,41265,37075,2
0,0,0,20415,11170,25793,41221,37075,2
0,0,0,20315,11170,25793,41132,36959,2
0,0,0,20275,11206,25793,41044,36882,2
0,0,0,20236,11182,25717,40912,36843,2
0,0,0,20256,11182,25742,41044,36843,2
0,0,0,20196,11219,25717,41088,36805,2
0,0,0,20415,11206,25616,41132,36843,2
0,0,0,20275,11170,25591,41044,36920,2
0,0,0,20275,11206,25591,41044,36920,2
0,0,0,20275,11206,25591,41044,36805,2
0,0,0,20078,11182,25565,41000,36538,2
0,0,0,19902,11157,25565,40780,36235,2
0,0,0,19785,11145,25490,40519,36160,2
0,0,0,19766,11084,25440,40562,36160,2
0,0,0,19727,11084,25390,40562,36010,2
0,0,0,19650,11109,25440,40519,35898,2
0,0,0,19650,11182,25390,40432,35898,2
0,0,0,19592,11182,25316,40088,36122,2
0,0,0,19573,11206,25192,39790,36499,2
0,0,0,19477,11157,25192,39663,36235,2
0,0,0,19458,11182,25291,39705,35861,2
0,0,0,19382,11231,25341,39663,35861,2
0,0,0,19382,11255,25591,39917,35712,2
0,0,0,19382,11317,25717,40045,35787,2
0,0,0,19420,11354,25742,40088,35787,2
0,0,0,19458,11379,25641,40259,35787,2
0,0,0,19420,11403,25591,40346,35861,2
0,0,0,19420,11403,25591,40605,35639,2
0,0,0,19344,11453,25540,40346,35639,2
0,0,0,19344,11478,25515,40389,35935,2
0,0,0,19401,11515,25341,40432,35861,2
0,0,0,19420,11515,25390,40432,35861,2
0,0,0,19382,11528,25565,40519,35787,2
0,0,0,19382,11665,25591,40649,35055,2
0,0,0,19344,11716,25641,40605,34910,2
0,0,0,19306,11703,25616,40605,34624,2
0,0,0,19268,11728,25616,40780,34767,2
0,0,0,19231,11754,25540,40693,35712,2
0,0,0,19231,11703,25415,40216,37114,2
0,0,0,19155,11703,25291,39747,36843,2
0,0,0,19099,11678,25192,39327,36614,2
0,0,0,19080,11703,25266,39411,36160,2
0,0,0,19024,11691,25291,39494,36235,2
0,0,0,19024,11716,25415,39790,36386,2
0,0,0,19024,11779,25540,40173,36499,2
0,0,0,19099,11868,25641,40519,35565,2
0,0,0,19099,11842,25641,40693,35127,2
0,0,0,19080,11855,25565,40519,35345,2
0,0,0,19061,11817,25490,40432,36576,2
0,0,0,19061,11830,25390,40002,37191,2
0,0,0,19061,11792,25316,39494,36998,2
0,0,0,18968,11804,25316,39327,36538,2
0,0,0,18931,11792,25291,39494,36348,2
0,0,0,18949,11855,25390,39705,36959,2
0,0,0,18931,11817,25490,40045,37036,2
0,0,0,18857,11842,25515,40173,35712,2
0,0,0,18857,11868,25515,40259,35199,2
0,0,0,18875,11868,25440,40173,35127,2
0,0,0,18931,11855,25465,40173,36160,2
0,0,0,18987,11855,25341,39832,37386,2
0,0,0,18949,11804,25241,39411,37152,2
0,0,0,18931,11804,25192,39327,36959,2
0,0,0,18949,11766,25192,39327,36576,2
0,0,0,19043,11804,25216,39327,36424,2
0,0,0,19249,11804,25316,39327,36348,2
0,0,0,19268,11804,25390,39369,36310,2
0,0,0,19363,11728,25316,39369,36499,2
0,0,0,19401,11653,25241,39494,36386,2
0,0,0,19420,11628,25216,39494,36386,2
0,0,0,19382,11615,25142,39494,36348,2
0,0,0,19325,11628,25142,39494,36310,2
0,0,0,19306,11628,25192,39494,36386,2
0,0,0,19174,11603,25142,39327,36538,2
0,0,0,19080,11578,25142,39411,36386,2
0,0,0,18635,11578,25192,39327,36538,2
0,0,0,18272,11528,25216,39369,36160,2
0,0,0,18022,11478,25241,39327,36085,2
0,0,0,17739,11453,25291,39202,36010,2
0,0,0,17461,11440,25390,39411,36614,2
0,0,0,17323,11453,25440,39536,36614,2
0,0,0,17306,11416,25440,39494,36690,2
0,0,0,17237,11453,25465,39621,36614,2
0,0,0,17289,11478,25390,39917,36690,2
0,0,0,17289,11553,25316,40259,36920,2
0,0,0,17357,11754,25440,40912,36998,2
0,0,0,17357,11830,25440,41265,35639,2
0,0,0,17357,11932,25540,41443,35602,2
0,0,0,17357,11932,25465,41399,35018,2
0,0,0,17357,11932,25440,41399,34767,2
0,0,0,17426,11906,25365,41221,36010,2
0,0,0,17392,11906,25316,41000,38220,2
0,0,0,17426,11868,25216,40259,38585,2
0,0,0,17426,11906,25192,40173,38220,2
0,0,0,17374,11881,25266,40346,37820,2
0,0,0,17426,11957,25341,40780,38180,2
0,0,0,17426,11957,25291,41044,38019,2
0,0,0,17478,11957,25316,41399,37701,2
0,0,0,17461,11983,25341,41577,37622,2
0,0,0,17443,12047,25390,41757,37504,2
0,0,0,17426,12060,25341,41757,36920,2
0,0,0,17443,12060,25341,41667,36538,2
0,0,0,17565,12021,25291,41622,36728,2
0,0,0,17600,11983,25192,41309,38260,2
0,0,0,17582,12009,25093,40868,39244,2
0,0,0,17495,12060,25044,40693,39077,2
0,0,0,17582,12086,25044,40562,38871,2
0,0,0,17565,12112,25167,40605,38707,2
0,0,0,17704,12176,25390,41309,38707,2
0,0,0,17739,12254,25440,41938,37465,2
0,0,0,17704,12267,25465,42120,36386,2
0,0,0,17774,12267,25465,42120,36047,2
0,0,0,17880,12267,25291,41803,37269,2
0,0,0,17845,12215,25192,41265,39160,2
0,0,0,17845,12228,25142,40693,39747,2
0,0,0,17792,12267,25093,40346,39077,2
0,0,0,17739,12293,25192,40736,38666,2
0,0,0,17774,12346,25341,41221,39244,2
0,0,0,17739,12346,25490,41577,39327,2
0,0,0,17704,12372,25540,42258,37741,2
0,0,0,17704,12424,25591,42304,36197,2
0,0,0,17809,12438,25440,42212,37152,2
0,0,0,17739,12385,25341,41712,39077,2
0,0,0,17774,12385,25216,40868,39874,2
0,0,0,17739,12398,25167,40475,39494,2
0,0,0,17739,12424,25142,40432,39202,2
0,0,0,17827,12451,25192,40259,39244,2
0,0,0,17739,12517,25192,40045,39119,2
0,0,0,17704,12530,25216,40045,38830,2
0,0,0,17704,12438,25241,40173,38666,2
0,0,0,17898,12346,25241,40259,38789,2
0,0,0,18272,12267,25192,40562,38995,2
0,0,0,18344,12176,25241,40780,39119,2
0,0,0,18362,11868,25316,40780,39411,2
0,0,0,18380,11133,25490,40736,39202,2
0,0,0,18344,10771,25291,40475,38503,2
0,0,0,18182,10641,25093,39832,38180,2
0,0,0,17809,10594,24995,39832,37781,2
0,0,0,17169,10558,24995,39832,37980,2
0,0,0,16450,10511,24995,39917,38220,2
0,0,0,15837,10453,25044,40088,38830,2
0,0,0,15227,10418,25241,40868,40173,2
0,0,0,14801,10359,25540,42673,40605,2
0,0,0,14562,10301,25767,43424,39621,2
0,0,0,14326,10267,25843,44145,39369,2
0,0,0,14079,10255,25894,43615,41938,2
0,0,0,13849,10255,25996,42766,43093,2
0,0,0,13906,10255,26331,42953,42258,2
0,0,0,14137,10301,26723,43855,41938,2
0,0,0,14458,10301,26802,43903,41309,2
0,0,0,14666,10301,26935,44193,40736,2
0,0,0,14891,10301,26961,44000,40868,2
0,0,0,14967,10336,26961,43807,40605,2
0,0,0,15028,10348,26882,43759,40562,2
0,0,0,14982,10348,26776,43711,40389,2
0,0,0,14907,10371,26829,43424,40131,2
0,0,0,14846,10348,26644,43093,39917,2
0,0,0,14801,10394,26618,43140,39917,2
0,0,0,14846,10394,26592,42953,40216,2
0,0,0,14846,10394,26566,42859,39874,2
0,0,0,14876,10418,26566,42906,39790,2
0,0,0,14891,10441,26618,42953,39790,2
0,0,0,14907,10406,26592,42859,39705,2
0,0,0,14937,10441,26566,42859,39705,2
0,0,0,15028,10488,26566,42859,39747,2
0,0,0,14997,10453,26566,42859,39578,2
0,0,0,15043,10464,26513,42766,39747,2
0,0,0,15043,10488,26566,42859,40002,2
0,0,0,15058,10488,26435,42719,40002,2
0,0,0,15089,10488,26513,42766,40088,2
0,0,0,15119,10511,26513,42766,40088,2
0,0,0,15181,10546,26461,42766,40173,2
0,0,0,15273,10546,26461,42766,40216,2
0,0,0,15366,10546,26461,42812,39917,2
0,0,0,15335,10535,26461,42580,39536,2
0,0,0,15288,10441,26409,42580,39494,2
0,0,0,15273,10371,26435,42580,39411,2
0,0,0,15211,10301,26357,42488,39578,2
0,0,0,15150,10255,26305,42395,39621,2
0,0,0,15119,10209,26228,42304,39663,2
0,0,0,15028,10174,26124,42395,39578,2
0,0,0,14937,10163,26047,42212,39747,2
0,0,0,14846,10186,25996,41984,39621,2
0,0,0,14771,10186,25894,41848,39202,2
0,0,0,14636,10163,25894,41488,39244,2
0,0,0,14518,10163,25717,41399,38995,2
0,0,0,14036,10117,25291,41000,38503,2
0,0,0,13835,10117,24946,40562,37622,2
0,0,0,13679,10117,24366,39917,36462,2
0,0,0,13343,10083,23546,38463,34341,2
0,0,0,13287,10071,23022,37191,32999,2
0,0,0,13205,10049,22335,36010,31465,2
0,0,0,13357,10026,22010,35492,30622,2
0,0,0,13679,10026,21924,35898,30165,2
0,0,0,13906,10037,22053,35199,30226,2
0,0,0,14238,10026,22423,35455,30994,2
0,0,0,14385,10049,22665,35712,31752,2
0,0,0,14666,10049,22643,35898,32633,2
0,0,0,14021,10049,22510,36047,33714,2
0,0,0,13580,10083,22401,36197,34412,2
0,0,0,13398,10071,22313,36047,34200,2
0,0,0,13287,10071,22226,35861,34341,2
0,0,0,13260,10037,22226,35787,34165,2
0,0,0,13357,10071,22226,35639,34130,2
0,0,0,13357,10071,22226,35712,34095,2
0,0,0,13301,10071,22270,35639,34130,2
0,0,0,13191,10071,22183,35639,34200,2
0,0,0,13013,10071,22161,35712,34165,2
0,0,0,12959,10106,22183,35861,34341,2
0,0,0,12878,10083,22335,36160,34982,2
0,0,0,12851,10117,22599,36998,36462,2
0,0,0,13013,10129,22977,38463,38100,2
0,0,0,13013,10163,23522,39705,39327,2
0,0,0,12959,10186,23987,40346,39536,2
0,0,0,12918,10209,24318,40955,39494,2
0,0,0,12918,10255,24727,41984,39960,2
0,0,0,12918,10301,24848,42859,40346,2
0,0,0,13013,10406,25192,44000,39917,2
0,0,0,12972,10441,25691,44096,39369,2
0,0,0,12959,10441,25666,44193,39036,2
0,0,0,12905,10441,25540,44193,38995,2
0,0,0,12864,10453,25440,44340,38871,2
0,0,0,12797,10441,25440,44242,38503,2
0,0,0,12797,10441,25341,44145,38544,2
0,0,0,12756,10453,25316,43903,38544,2
0,0,0,12770,10441,25316,43951,38341,2
0,0,0,12743,10441,25216,43807,38260,2
0,0,0,12690,10464,25266,43711,38301,2
0,0,0,12636,10453,25241,43711,38100,2
0,0,0,12583,10488,25142,43711,38100,2
0,0,0,12504,10488,25142,43663,38019,2
0,0,0,12504,10511,25142,43567,37860,2
0,0,0,12438,10488,25142,43519,37741,2
0,0,0,12504,10499,25142,43282,37820,2
0,0,0,13095,10535,25291,43282,37781,2
0,0,0,14326,10523,25415,43235,37860,2
0,0,0,15647,10535,25465,43188,37860,2
0,0,0,16417,10546,25440,43093,37701,2
0,0,0,16949,10605,25316,43046,37701,2
0,0,0,17582,10676,25341,43093,37230,2
0,0,0,18164,10748,25167,42906,36882,2
0,0,0,18129,10771,25093,42766,36690,2
0,0,0,17880,10819,25192,42719,36538,2
0,0,0,17722,10819,25241,42673,36462,2
0,0,0,17704,10879,25341,42673,36424,2
0,0,0,17739,10963,25616,42859,36348,2
0,0,0,17933,11060,25742,42953,36348,2
0,0,0,18004,11024,25767,42906,36272,2
0,0,0,17986,11036,25691,42766,36235,2
0,0,0,17792,10975,25591,42812,36047,2
0,0,0,17634,10963,25591,42673,36160,2
0,0,0,17186,10951,25440,42673,36310,2
0,0,0,16765,10915,25490,42766,36614,2
0,0,0,16271,10867,25591,42859,36843,2
0,0,0,15789,10819,25793,43093,36998,2
0,0,0,15615,10771,26099,43046,37504,2
0,0,0,15428,10748,26409,43235,37860,2
0,0,0,15366,10676,26566,43235,38544,2
0,0,0,15211,10629,26829,43519,39160,2
0,0,0,15028,10535,26882,43424,39160,2
0,0,0,14786,10441,26776,42766,39160,2
0,0,0,14666,10394,26802,42212,38707,2
0,0,0,14503,10348,26723,41577,37860,2
0,0,0,14473,10313,26566,41132,37269,2
0,0,0,14370,10301,26513,41000,37114,2
0,0,0,14326,10278,26566,40912,37075,2
0,0,0,14607,10301,26776,41044,37152,2
0,0,0,14982,10278,27175,41309,37269,2
0,0,0,15135,10290,27364,41533,37191,2
0,0,0,15242,10278,27418,41443,37308,2
0,0,0,15397,10278,27581,41757,37465,2
0,0,0,15600,10301,27745,42212,38019,2
0,0,0,15980,10348,28470,43093,38912,2
0,0,0,17050,10488,29391,44291,39494,2
0,0,0,17862,10605,29775,44782,39578,2
0,0,0,18129,10641,29746,44585,39327,2
0,0,0,18075,10676,29686,44438,39077,2
0,0,0,18200,10676,29775,44242,39160,2
0,0,0,18308,10676,29746,44291,38789,2
0,0,0,18326,10629,29509,43807,38585,2
0,0,0,18272,10535,29333,43615,38422,2
0,0,0,18272,10406,29158,43472,38260,2
0,0,0,18200,10232,28812,43046,38100,2
0,0,0,18022,10106,28357,42673,37860,2
0,0,0,17986,10071,28133,42304,37940,2
0,0,0,17915,10049,27939,42166,37781,2
0,0,0,17915,10071,27911,42212,37820,2
0,0,0,17880,10071,27828,42120,37860,2
0,0,0,17862,10071,27828,42120,37781,2
0,0,0,17880,10083,27828,42120,37781,2
0,0,0,18022,10140,27966,42120,37860,2
0,0,0,18308,10174,27994,42029,37820,2
0,0,0,18508,10209,28077,41938,37543,2
0,0,0,18562,10163,28049,41848,37543,2
0,0,0,18508,10163,28105,41622,37465,2
0,0,0,18489,10163,28049,41399,37230,2
0,0,0,18508,10163,27966,41221,37075,2
0,0,0,18471,10174,27856,40955,36920,2
0,0,0,18453,10186,27856,40605,36614,2
0,0,0,18654,10174,27911,40088,36348,2
0,0,0,18399,10174,27966,39494,35602,2
0,0,0,18164,10186,27966,39077,35345,2
0,0,0,18057,10209,27883,39077,35309,2
0,0,0,17986,10221,27883,39036,35272,2
0,0,0,17880,10255,27828,38995,35236,2
0,0,0,17827,10255,27800,38995,35272,2
0,0,0,17792,10278,27691,39077,35272,2
0,0,0,17722,10301,27663,38995,35309,2
0,0,0,17722,10313,27527,38871,35309,2
0,0,0,17704,10348,27527,38995,35455,2
0,0,0,17652,10359,27499,38912,35418,2
0,0,0,17634,10348,27445,38830,35455,2
0,0,0,17617,10371,27418,38830,35565,2
0,0,0,17565,10348,27445,38830,35565,2
0,0,0,17495,10348,27364,38748,35492,2
0,0,0,17357,10313,27418,38748,35492,2
0,0,0,17237,10301,27691,39077,35787,2
0,0,0,17220,10301,27911,38995,36767,2
0,0,0,17186,10301,27966,39160,36690,2
0,0,0,17289,10325,28189,39494,36920,2
0,0,0,17426,10371,28583,40432,37701,2
0,0,0,17426,10441,29158,41667,39119,2
0,0,0,17530,10441,29421,42395,39621,2
0,0,0,17426,10464,29568,42580,39832,2
0,0,0,17357,10488,29627,43046,39747,2
0,0,0,17118,10511,29509,43235,39705,2
0,0,0,16467,10511,28927,42812,39327,2
0,0,0,16028,10488,28697,42395,38830,2
0,0,0,15584,10499,28414,42395,38871,2
0,0,0,15211,10535,28301,42304,38585,2
0,0,0,14876,10535,28077,42212,38544,2
0,0,0,14726,10582,27939,42120,38585,2
0,0,0,14503,10605,27828,42029,38666,2
0,0,0,14370,10641,27800,42075,38625,2
0,0,0,14282,10676,27800,42120,38585,2
