GyroX,GyroY,GyroZ,Thumb,Index,Middle,Ring,Pinky,Gesture
0,0,0,20798,10582,9856,10795,36998,4
0,0,0,20981,10582,9845,10819,36272,4
0,0,0,21125,10629,9811,10867,35861,4
0,0,0,21084,10629,9811,10879,35602,4
0,0,0,20961,10676,9777,10867,35199,4
0,0,0,20981,10700,9744,10831,34910,4
0,0,0,20961,10712,9677,10819,34482,4
0,0,0,20940,10688,9643,10819,34271,4
0,0,0,21084,10688,9621,10783,34482,4
0,0,0,21125,10676,9599,10771,34341,4
0,0,0,21312,10676,9577,10771,34589,4
0,0,0,21627,10653,9544,10748,35127,4
0,0,0,21542,10676,9522,10748,35382,4
0,0,0,21627,10629,9511,10748,33921,4
0,0,0,21648,10653,9511,10724,31913,4
0,0,0,21584,10605,9500,10748,30226,4
0,0,0,21648,10629,9511,10759,29686,4
0,0,0,21754,10629,9533,10795,29042,4
0,0,0,21648,10629,9533,10819,28357,4
0,0,0,21627,10629,9511,10843,28357,4
0,0,0,21479,10629,9500,10867,28105,4
0,0,0,21375,10629,9511,10915,27581,4
0,0,0,21250,10676,9511,10915,26908,4
0,0,0,20961,10700,9511,10927,26697,4
0,0,0,20475,10700,9511,10927,25767,4
0,0,0,19980,10676,9533,10975,25415,4
0,0,0,19650,10641,9511,11060,25093,4
0,0,0,19554,10641,9511,11109,24946,4
0,0,0,19401,10605,9500,11133,24897,4
0,0,0,19174,10535,9533,11121,25167,4
0,0,0,18783,10453,9511,11109,24897,4
0,0,0,18508,10441,9511,11012,24223,4
0,0,0,18399,10453,9511,10975,23592,4
0,0,0,18417,10488,9511,10963,23294,4
0,0,0,18562,10499,9511,10915,23225,4
0,0,0,18581,10511,9511,10915,23135,4
0,0,0,18562,10488,9522,10879,23022,4
0,0,0,18599,10464,9511,10867,23022,4
0,0,0,18581,10453,9533,10843,22977,4
0,0,0,18581,10453,9511,10855,22932,4
0,0,0,18562,10441,9511,10843,22932,4
0,0,0,18562,10441,9511,10843,22887,4
0,0,0,18489,10441,9500,10843,22843,4
0,0,0,18417,10418,9511,10831,22843,4
0,0,0,18417,10418,9533,10843,22754,4
0,0,0,18344,10418,9511,10843,22754,4
0,0,0,18272,10406,9500,10867,22776,4
0,0,0,18272,10406,9511,10867,22798,4
0,0,0,18236,10418,9511,10867,22932,4
0,0,0,18200,10418,9511,10867,22910,4
0,0,0,18200,10441,9511,10891,22798,4
0,0,0,18200,10441,9511,10867,22709,4
0,0,0,18164,10441,9522,10879,22887,4
0,0,0,18200,10441,9511,10915,22798,4
0,0,0,18129,10441,9488,10915,22887,4
0,0,0,18129,10441,9511,10903,22798,4
0,0,0,18057,10441,9500,10915,22709,4
0,0,0,18182,10441,9522,10879,22754,4
0,0,0,18182,10441,9511,10843,22932,4
0,0,0,18218,10441,9533,10819,23203,4
0,0,0,18164,10441,9500,10771,23316,4
0,0,0,18164,10441,9533,10783,23339,4
0,0,0,18308,10488,9533,10795,23339,4
0,0,0,18508,10499,9588,10783,23569,4
0,0,0,18709,10488,9755,10759,23684,4
0,0,0,18857,10488,9733,10700,23661,4
0,0,0,18857,10488,9710,10688,23707,4
0,0,0,18857,10499,9755,10676,23870,4
0,0,0,18857,10499,9733,10653,23777,4
0,0,0,18820,10488,9710,10653,23847,4
0,0,0,18783,10511,9688,10641,23824,4
0,0,0,18783,10488,9688,10641,23754,4
0,0,0,18783,10488,9699,10653,23777,4
0,0,0,18746,10499,9710,10641,23800,4
0,0,0,18746,10488,9710,10641,23917,4
0,0,0,18727,10499,9710,10629,23940,4
0,0,0,18764,10488,9710,10653,23894,4
0,0,0,18727,10488,9733,10629,23940,4
0,0,0,18709,10488,9710,10653,23894,4
0,0,0,18709,10499,9710,10629,23894,4
0,0,0,18709,10488,9710,10653,23964,4
0,0,0,18709,10476,9710,10653,24034,4
0,0,0,18727,10488,9721,10641,24294,4
0,0,0,18746,10499,9710,10676,24606,4
0,0,0,18764,10488,9699,10676,24921,4
0,0,0,18783,10488,9710,10676,25044,4
0,0,0,18635,10488,9721,10653,24897,4
0,0,0,18562,10488,9755,10653,24897,4
0,0,0,18435,10511,9721,10653,25019,4
0,0,0,18417,10511,9755,10664,25044,4
0,0,0,18489,10535,9744,10676,24946,4
0,0,0,18435,10546,9710,10676,24946,4
0,0,0,18453,10535,9755,10676,24946,4
0,0,0,18489,10535,9777,10676,24897,4
0,0,0,18562,10546,9800,10688,24946,4
0,0,0,18635,10582,9788,10700,25192,4
0,0,0,18672,10594,9811,10724,25316,4
0,0,0,18617,10629,9822,10724,25241,4
0,0,0,18417,10676,9845,10748,25142,4
0,0,0,18182,10712,9845,10748,24995,4
0,0,0,18200,10748,9822,10771,25093,4
0,0,0,18200,10748,9811,10771,24970,4
0,0,0,18417,10783,9845,10771,25142,4
0,0,0,18453,10819,9845,10795,25093,4
0,0,0,18489,10819,9845,10783,25093,4
0,0,0,18709,10819,9833,10783,25044,4
0,0,0,19420,10843,9822,10819,25591,4
0,0,0,19805,10867,9845,10819,25843,4
0,0,0,19941,10843,9856,10843,25869,4
0,0,0,20176,10867,9845,10819,25945,4
0,0,0,20256,10867,9890,10795,25920,4
0,0,0,20415,10867,9890,10795,25996,4
0,0,0,20455,10819,9890,10795,25945,4
0,0,0,20475,10783,9890,10783,25894,4
0,0,0,20395,10783,9890,10819,25742,4
0,0,0,20415,10795,9901,10819,25565,4
0,0,0,20475,10771,9890,10831,25591,4
0,0,0,20555,10748,9912,10819,25591,4
0,0,0,20475,10748,9890,10831,25591,4
0,0,0,20555,10748,9901,10819,25717,4
0,0,0,20475,10748,9924,10819,25691,4
0,0,0,20555,10748,9935,10819,25691,4
0,0,0,20455,10748,9935,10795,25666,4
0,0,0,20475,10748,9958,10831,25515,4
0,0,0,20435,10795,10003,10915,25515,4
0,0,0,20415,10795,10003,10915,25490,4
0,0,0,20475,10771,9867,10867,25641,4
0,0,0,20676,10771,9710,10807,25894,4
0,0,0,20716,10748,9677,10771,26022,4
0,0,0,20696,10748,9710,10748,26022,4
0,0,0,20676,10724,9755,10771,25996,4
0,0,0,20676,10724,9766,10748,25945,4
0,0,0,20676,10700,9800,10748,25894,4
0,0,0,20595,10700,9833,10748,25793,4
0,0,0,20555,10724,9822,10748,25691,4
0,0,0,20475,10700,9845,10748,25843,4
0,0,0,20475,10700,9811,10748,25996,4
0,0,0,20495,10724,9833,10771,26305,4
0,0,0,20475,10724,9867,10795,29216,4
0,0,0,20595,10676,9856,10819,31307,4
0,0,0,20737,10688,9811,10819,31213,4
0,0,0,20859,10688,9800,10831,30347,4
0,0,0,20879,10688,9777,10819,29216,4
0,0,0,21146,10688,9788,10867,28133,4
0,0,0,21458,10676,9777,10867,28022,4
0,0,0,21563,10676,9800,10867,27745,4
0,0,0,21796,10700,9800,10879,29042,4
0,0,0,22096,10771,9811,10927,30776,4
0,0,0,22226,10819,9800,10939,32633,4
0,0,0,22226,10795,9800,10927,33303,4
0,0,0,22313,10783,9777,10915,33236,4
0,0,0,22226,10783,9766,10915,32999,4
0,0,0,22010,10783,9755,10915,32832,4
0,0,0,21882,10795,9755,10963,32799,4
0,0,0,22096,10831,9733,10939,33134,4
0,0,0,22423,10819,9755,10963,33371,4
0,0,0,22444,10819,9733,10939,32633,4
0,0,0,22313,10867,9721,10939,31881,4
0,0,0,22140,10891,9755,10927,31339,4
0,0,0,22140,10891,9755,10903,31119,4
0,0,0,22140,10879,9755,10891,31087,4
0,0,0,22053,10879,9755,10891,31307,4
0,0,0,22096,10891,9811,10879,32467,4
0,0,0,22010,10879,9800,10891,32633,4
0,0,0,21924,10891,9811,10903,32303,4
0,0,0,21903,10891,9800,10879,31881,4
0,0,0,21882,10915,9845,10891,32043,4
0,0,0,21882,10891,9845,10891,31978,4
0,0,0,21882,10891,9845,10879,31624,4
0,0,0,21882,10915,9856,10879,31150,4
0,0,0,21818,10915,9856,10879,30994,4
0,0,0,21882,10915,9867,10879,31025,4
0,0,0,21860,10915,9867,10891,31056,4
0,0,0,21882,10915,9856,10903,31025,4
0,0,0,21839,10915,9890,10915,31276,4
0,0,0,21754,10915,9912,10963,31978,4
0,0,0,21627,10891,9912,11024,32899,4
0,0,0,21606,10891,9912,11060,32866,4
0,0,0,21711,10915,9912,11036,33405,4
0,0,0,21796,10915,9935,10975,34095,4
0,0,0,21796,10879,9924,10963,33679,4
0,0,0,21818,10915,9935,10939,33542,4
0,0,0,21903,10891,9935,10915,33679,4
0,0,0,21946,10891,9935,10915,33611,4
0,0,0,21839,10867,9924,10939,33748,4
0,0,0,21818,10879,9935,10927,34235,4
0,0,0,21796,10879,9935,10927,34271,4
0,0,0,21818,10867,9958,10915,34447,4
0,0,0,22010,10939,9935,10927,34412,4
0,0,0,22010,10927,9946,10915,34200,4
0,0,0,22053,10915,9935,10915,34200,4
0,0,0,22140,10915,9958,10915,34412,4
0,0,0,22270,10915,9935,10915,34696,4
0,0,0,22313,10915,9958,10915,34696,4
0,0,0,22313,10963,9958,10915,34839,4
0,0,0,22488,10987,9980,10891,35163,4
0,0,0,22798,11072,10003,10915,35565,4
0,0,0,22843,11084,10026,10915,35676,4
0,0,0,22754,11109,10026,10915,35418,4
0,0,0,22754,11109,10026,10915,35418,4
0,0,0,22754,11133,10026,10927,35565,4
0,0,0,22754,11109,10026,10939,35382,4
0,0,0,22621,11109,10037,10963,35163,4
0,0,0,22599,11157,10026,10963,35091,4
0,0,0,22510,11157,10026,10963,34982,4
0,0,0,22576,11157,10037,10963,35018,4
0,0,0,22532,11170,10037,10987,34946,4
0,0,0,22510,11182,10037,10963,34910,4
0,0,0,22423,11157,10049,11012,34624,4
0,0,0,22140,11109,10037,10987,34341,4
0,0,0,22010,11036,10026,11012,33679,4
0,0,0,21882,11036,10026,11012,33645,4
0,0,0,21882,11024,10026,11012,33645,4
0,0,0,21967,11024,10026,11012,33714,4
0,0,0,22010,11024,10003,11036,33921,4
0,0,0,22010,11036,10003,11036,33817,4
0,0,0,22010,10987,9980,11060,33474,4
0,0,0,22010,10963,9946,11024,33371,4
0,0,0,22053,10963,9935,11012,33269,4
0,0,0,22010,10963,9935,10999,33168,4
0,0,0,21839,10915,9935,11012,33134,4
0,0,0,21542,10915,9935,10987,32899,4
0,0,0,21312,10927,9901,10975,32633,4
0,0,0,21146,10963,9890,10975,32533,4
0,0,0,20961,10915,9890,10963,32271,4
0,0,0,20899,10927,9890,10963,32010,4
0,0,0,20879,10963,9867,10987,31881,4
0,0,0,20798,10915,9878,10963,31529,4
0,0,0,20716,10867,9890,10915,31529,4
0,0,0,20676,10831,9867,10891,31529,4
0,0,0,20676,10819,9890,10891,31593,4
0,0,0,20676,10843,9924,10879,31752,4
0,0,0,20716,10867,9935,10915,31720,4
0,0,0,20676,10879,9912,10915,31849,4
0,0,0,20716,10879,9901,10915,31849,4
0,0,0,20798,10867,9845,10903,31849,4
0,0,0,20838,10819,9800,10867,31849,4
0,0,0,20818,10795,9755,10867,31978,4
0,0,0,20757,10748,9721,10867,31849,4
0,0,0,20757,10724,9755,10891,31785,4
0,0,0,20798,10688,9755,10867,31688,4
0,0,0,20961,10748,9755,10891,31978,4
0,0,0,20961,10724,9800,10963,32238,4
0,0,0,20818,10748,9833,10987,32533,4
0,0,0,20879,10759,9845,11024,32369,4
0,0,0,20838,10748,9845,11036,32205,4
0,0,0,20879,10771,9811,11012,32173,4
0,0,0,20818,10819,9845,11012,32303,4
0,0,0,20838,10819,9811,10987,32238,4
0,0,0,20838,10831,9822,11012,32205,4
0,0,0,20818,10843,9845,11024,32010,4
0,0,0,20777,10867,9755,11012,31624,4
0,0,0,20676,10831,9621,10963,31465,4
0,0,0,20757,10855,9577,10879,31119,4
0,0,0,20757,10831,9577,10867,31150,4
0,0,0,20818,10915,9577,10831,31339,4
0,0,0,20818,10879,9599,10867,31370,4
0,0,0,20716,10879,9621,10891,31402,4
0,0,0,20737,10867,9643,10903,31276,4
0,0,0,20696,10867,9677,10915,31244,4
0,0,0,20716,10867,9710,10891,31150,4
0,0,0,20757,10867,9755,10891,31244,4
0,0,0,20961,10867,9800,10891,31720,4
0,0,0,20961,10879,9845,10879,31624,4
0,0,0,20920,10867,9845,10879,31529,4
0,0,0,20940,10867,9845,10879,31465,4
0,0,0,20899,10867,9845,10891,31946,4
0,0,0,20961,10915,9867,10891,31849,4
0,0,0,21043,10879,9867,10891,31720,4
0,0,0,21043,10891,9856,10879,31752,4
0,0,0,20961,10891,9867,10891,31688,4
0,0,0,20981,10891,9867,10891,31720,4
0,0,0,21146,11012,9856,10915,32010,4
0,0,0,21250,11084,9856,10915,32043,4
0,0,0,21043,11109,9856,10915,31624,4
0,0,0,20798,11121,9867,10915,31339,4
0,0,0,20716,11060,9867,10915,31150,4
0,0,0,20798,11072,9867,10891,31307,4
0,0,0,20798,11060,9867,10915,31656,4
0,0,0,20879,11060,9856,10915,31785,4
0,0,0,20981,11060,9890,10915,32173,4
0,0,0,20920,11036,9901,10915,32140,4
0,0,0,20879,11036,9901,10915,32010,4
0,0,0,20879,11060,9890,10915,31978,4
0,0,0,20879,11060,9901,10915,32010,4
0,0,0,20899,11060,9901,10915,31849,4
0,0,0,20899,11060,9912,10915,31913,4
0,0,0,20961,11084,9901,10915,31720,4
0,0,0,20920,11048,9935,10915,31913,4
0,0,0,20899,11060,9935,10915,31881,4
0,0,0,20899,11060,9912,10891,32010,4
0,0,0,20920,11060,9901,10915,32108,4
0,0,0,20961,11036,9935,10903,32043,4
0,0,0,20981,11060,9912,10903,32108,4
0,0,0,21002,11060,9935,10891,32108,4
0,0,0,20981,11024,9935,10891,32108,4
0,0,0,20981,11060,9935,10891,32108,4
0,0,0,20981,11060,9935,10879,32043,4
0,0,0,20981,11060,9946,10891,32075,4
0,0,0,20981,11060,9935,10915,32271,4
0,0,0,20981,11060,9924,10963,32303,4
0,0,0,21043,11012,9912,10939,32205,4
0,0,0,20961,10963,9890,10927,32238,4
0,0,0,20961,10915,9845,10915,32303,4
0,0,0,20961,10843,9845,10891,32238,4
0,0,0,20879,10783,9811,10867,32303,4
0,0,0,20798,10748,9800,10867,32435,4
0,0,0,20838,10724,9800,10867,32173,4
0,0,0,20798,10688,9800,10855,32369,4
0,0,0,20757,10641,9766,10831,32140,4
0,0,0,20757,10582,9766,10843,32140,4
0,0,0,20737,10546,9755,10819,31978,4
0,0,0,20716,10511,9599,10795,31529,4
0,0,0,20757,10499,9533,10771,31497,4
0,0,0,20716,10511,9533,10771,31370,4
0,0,0,20716,10511,9533,10748,31307,4
0,0,0,20676,10488,9533,10771,31370,4
0,0,0,20716,10499,9544,10748,31370,4
0,0,0,20737,10464,9544,10748,31402,4
0,0,0,20716,10464,9544,10748,31529,4
0,0,0,20716,10418,9544,10771,31624,4
0,0,0,20716,10394,9555,10748,31593,4
0,0,0,20737,10394,9544,10759,31465,4
0,0,0,20676,10418,9544,10771,31434,4
0,0,0,20615,10406,9555,10783,31339,4
0,0,0,20555,10429,9577,10795,31056,4
0,0,0,20535,10441,9577,10748,30838,4
0,0,0,20555,10441,9577,10771,30776,4
0,0,0,20555,10499,9654,10819,30994,4
0,0,0,20515,10499,9666,10867,31276,4
0,0,0,20515,10488,9643,10915,31307,4
0,0,0,20555,10488,9643,10867,31213,4
0,0,0,20515,10488,9643,10867,31025,4
0,0,0,20575,10511,9643,10855,31276,4
0,0,0,20515,10499,9643,10867,31529,4
0,0,0,20555,10535,9643,10915,31849,4
0,0,0,20515,10511,9643,10939,31785,4
0,0,0,20555,10511,9632,10939,31785,4
0,0,0,20475,10499,9632,10963,31561,4
0,0,0,20495,10418,9621,10879,31561,4
0,0,0,20555,10394,9577,10843,31881,4
0,0,0,20515,10394,9555,10831,31978,4
0,0,0,20435,10406,9555,10819,31881,4
0,0,0,20495,10441,9588,10819,31978,4
0,0,0,20495,10476,9599,10843,31849,4
0,0,0,20475,10511,9643,10819,31656,4
0,0,0,20475,10570,9654,10843,31593,4
0,0,0,20475,10594,9677,10843,31624,4
0,0,0,20475,10617,9710,10867,31624,4
0,0,0,20475,10629,9710,10867,31785,4
0,0,0,20475,10605,9710,10891,31817,4
0,0,0,20475,10629,9755,10891,31656,4
0,0,0,20435,10605,9766,10915,31339,4
0,0,0,20395,10629,9766,10963,31213,4
0,0,0,20435,10605,9721,10939,31213,4
0,0,0,20435,10558,9688,10927,31307,4
0,0,0,20475,10511,9621,10891,31785,4
0,0,0,20435,10499,9577,10879,31785,4
0,0,0,20395,10535,9599,10867,31656,4
0,0,0,20355,10582,9588,10843,31119,4
0,0,0,20256,10605,9599,10879,30745,4
0,0,0,20196,10629,9666,10879,30622,4
0,0,0,20196,10629,9688,10879,30684,4
0,0,0,20236,10653,9766,10915,30838,4
0,0,0,20196,10676,9766,10891,30931,4
0,0,0,20256,10676,9766,10867,30962,4
0,0,0,20275,10688,9755,10867,30962,4
0,0,0,20256,10688,9766,10867,31119,4
0,0,0,20256,10688,9777,10831,31119,4
0,0,0,20236,10676,9777,10819,31056,4
0,0,0,20236,10688,9800,10843,31150,4
0,0,0,20176,10700,9788,10819,31339,4
0,0,0,20176,10700,9788,10831,31402,4
0,0,0,20157,10700,9800,10843,31339,4
0,0,0,20157,10724,9800,10831,31276,4
0,0,0,20196,10724,9800,10843,31276,4
0,0,0,20157,10724,9800,10831,31087,4
0,0,0,20157,10748,9811,10819,31213,4
0,0,0,20176,10771,9845,10819,31276,4
0,0,0,20196,10759,9845,10843,31276,4
0,0,0,20117,10748,9811,10867,31339,4
0,0,0,20117,10748,9833,10867,31276,4
0,0,0,20137,10771,9822,10879,31181,4
0,0,0,20098,10748,9811,10867,31087,4
0,0,0,20117,10676,9733,10831,30994,4
0,0,0,20078,10676,9677,10843,30900,4
0,0,0,20078,10688,9666,10843,30962,4
0,0,0,20117,10688,9688,10831,31087,4
0,0,0,20098,10700,9755,10891,31529,4
0,0,0,20098,10724,9777,10867,31339,4
0,0,0,20098,10700,9766,10867,31752,4
0,0,0,20078,10724,9755,10879,31465,4
0,0,0,20019,10724,9755,10879,31624,4
0,0,0,20039,10724,9755,10891,31497,4
0,0,0,20039,10724,9733,10915,31402,4
0,0,0,20058,10748,9710,10963,31465,4
0,0,0,20078,10664,9621,10915,31434,4
0,0,0,20098,10558,9533,10843,31656,4
0,0,0,20098,10511,9511,10795,31150,4
0,0,0,20078,10488,9533,10771,30994,4
0,0,0,20098,10453,9511,10771,30838,4
0,0,0,20117,10441,9500,10771,30776,4
0,0,0,20039,10488,9511,10771,30807,4
0,0,0,20078,10523,9533,10795,30994,4
0,0,0,20078,10558,9533,10831,31025,4
0,0,0,20078,10582,9577,10819,31213,4
0,0,0,20176,10605,9577,10831,31593,4
0,0,0,20435,10676,9577,10819,32566,4
0,0,0,20757,10748,9577,10819,33303,4
0,0,0,21167,10795,9577,10831,34165,4
0,0,0,21648,11012,9621,10819,34982,4
0,0,0,22096,11109,9677,10819,34982,4
0,0,0,22140,11121,9666,10819,34482,4
0,0,0,22226,11219,9666,10819,34200,4
0,0,0,22183,11219,9788,10843,33887,4
0,0,0,21924,11231,9800,10867,33474,4
0,0,0,21839,11219,9788,10867,33168,4
0,0,0,21775,11255,9811,10927,32899,4
0,0,0,21669,11255,9800,10915,32799,4
0,0,0,21648,11206,9845,10915,32765,4
0,0,0,21648,11231,9845,10915,32599,4
0,0,0,21627,11255,9833,10915,32699,4
0,0,0,21627,11255,9811,10915,32832,4
0,0,0,21584,11231,9811,10927,32699,4
0,0,0,21458,11231,9845,10963,32666,4
0,0,0,21291,11219,9811,10963,32402,4
0,0,0,21270,11206,9766,10915,32075,4
0,0,0,21167,11182,9777,10891,32238,4
0,0,0,21002,11219,9733,10867,32369,4
0,0,0,20920,11255,9710,10867,32799,4
0,0,0,20676,11231,9688,10867,33100,4
0,0,0,20415,11255,9721,10879,32336,4
0,0,0,20335,11255,9710,10879,32271,4
0,0,0,20355,11255,9721,10891,32566,4
0,0,0,20355,11219,9755,10927,32633,4
0,0,0,20117,11060,9721,10939,32303,4
0,0,0,19960,10963,9688,10927,32108,4
0,0,0,19980,10963,9710,10939,32402,4
0,0,0,20176,10963,9677,10915,32799,4
0,0,0,20196,10987,9688,10915,32932,4
0,0,0,20256,11024,9677,10879,32765,4
0,0,0,20275,11012,9710,10867,32899,4
0,0,0,20256,10987,9677,10879,32799,4
0,0,0,20275,10915,9666,10891,32899,4
0,0,0,20176,10795,9544,10843,32765,4
0,0,0,20196,10748,9544,10819,32699,4
0,0,0,20157,10748,9544,10819,32633,4
0,0,0,20137,10748,9533,10807,32533,4
0,0,0,20157,10759,9533,10783,32369,4
0,0,0,20157,10771,9533,10771,32303,4
0,0,0,20137,10771,9533,10771,32140,4
0,0,0,20236,10748,9533,10771,32108,4
0,0,0,20275,10771,9533,10795,32173,4
0,0,0,20256,10748,9533,10819,32271,4
0,0,0,20256,10748,9511,10819,32173,4
0,0,0,20196,10748,9533,10795,32173,4
0,0,0,20176,10700,9533,10771,32108,4
0,0,0,20157,10688,9500,10771,31881,4
0,0,0,20157,10676,9511,10748,32140,4
0,0,0,20157,10629,9511,10724,32173,4
0,0,0,20078,10594,9522,10700,31785,4
0,0,0,20019,10570,9533,10771,32108,4
0,0,0,19843,10511,9588,10879,31593,4
0,0,0,19824,10476,9766,10963,31370,4
0,0,0,19766,10441,10094,11012,31339,4
0,0,0,19727,10453,10301,11012,31307,4
0,0,0,19708,10406,10348,11060,30869,4
0,0,0,19689,10418,10348,11072,30776,4
0,0,0,19689,10453,10301,11060,30653,4
0,0,0,19650,10441,10221,11036,30591,4
0,0,0,19612,10441,10163,11048,30469,4
0,0,0,19650,10418,10117,11060,30286,4
0,0,0,19573,10453,10117,11060,29895,4
0,0,0,19420,10582,10186,11060,28669,4
0,0,0,19401,10594,10221,11084,27800,4
0,0,0,19382,10594,10209,11060,27636,4
0,0,0,19382,10582,10197,11060,27636,4
0,0,0,19382,10535,10186,11060,27636,4
0,0,0,19401,10511,10174,11048,27828,4
0,0,0,19401,10488,10163,11036,27939,4
0,0,0,19458,10488,10174,11024,28133,4
0,0,0,19535,10535,10174,11012,28301,4
0,0,0,19708,10511,10163,10987,29071,4
0,0,0,19785,10511,10163,10987,29391,4
0,0,0,19863,10546,10174,11012,29042,4
0,0,0,19843,10546,10197,11012,28812,4
0,0,0,19785,10570,10174,10999,28812,4
0,0,0,19805,10605,10174,11012,28754,4
0,0,0,19708,10629,10174,11012,28612,4
0,0,0,19727,10676,10174,11048,28470,4
0,0,0,19805,10688,10140,11109,28640,4
0,0,0,19766,10771,10140,11182,28161,4
0,0,0,19631,10759,10117,11206,27636,4
0,0,0,19099,10712,10094,11206,26988,4
0,0,0,18453,10688,10071,11219,26644,4
0,0,0,18129,10676,10071,11243,26723,4
0,0,0,17933,10676,10071,11280,26644,4
0,0,0,17220,10724,10060,11379,26618,4
0,0,0,15900,10748,10083,11403,25490,4
0,0,0,16125,10795,10071,11553,25241,4
0,0,0,16189,10795,10071,12009,25044,4
0,0,0,16238,10771,10071,12556,24727,4
0,0,0,16222,10771,10071,13027,24606,4
0,0,0,16319,10748,10026,13177,24678,4
0,0,0,16949,10795,10071,12905,25616,4
0,0,0,17565,10783,10117,12150,26618,4
0,0,0,18057,10819,10094,11615,27202,4
0,0,0,18764,10819,10117,11403,28329,4
0,0,0,19155,10807,10094,11366,28869,4
0,0,0,19249,10819,10071,11341,28984,4
0,0,0,19325,10819,10071,11354,29450,4
0,0,0,19516,10795,10083,11366,29686,4
0,0,0,19516,10783,10071,11379,29984,4
0,0,0,19268,10795,10049,11428,30776,4
0,0,0,18931,10783,10049,11453,32043,4
0,0,0,19118,10807,10049,11453,33508,4
0,0,0,19174,10771,10071,11403,33991,4
0,0,0,19193,10795,10071,11304,33852,4
0,0,0,19306,10771,10071,11194,34060,4
0,0,0,19306,10807,10071,11096,34200,4
0,0,0,19306,10771,10071,11072,34553,4
0,0,0,19193,10759,10094,11036,34660,4
0,0,0,19080,10771,10094,10939,34271,4
0,0,0,19080,10771,10083,10915,34200,4
0,0,0,19174,10748,10083,10915,34341,4
0,0,0,19099,10748,10049,10915,34306,4
0,0,0,19099,10724,10071,10879,34130,4
0,0,0,19099,10748,10071,10891,34026,4
0,0,0,19155,10748,10049,10891,34200,4
0,0,0,19344,10748,10060,10915,34624,4
0,0,0,19458,10748,10037,10987,35091,4
0,0,0,19401,10771,10049,11084,34982,4
0,0,0,19401,10771,10026,11133,34839,4
0,0,0,19477,10748,10003,11157,34839,4
0,0,0,19554,10771,10026,11109,34767,4
0,0,0,19573,10759,10003,11109,34696,4
0,0,0,19554,10748,10026,11072,34731,4
0,0,0,19535,10771,10049,11084,34839,4
0,0,0,19516,10771,10060,11109,34696,4
0,0,0,19535,10795,10071,11157,34589,4
0,0,0,19535,10795,10071,11206,34553,4
0,0,0,19535,10855,10071,11231,34589,4
0,0,0,19727,10927,10083,11255,34696,4
0,0,0,19921,10915,10094,11280,35091,4
0,0,0,19980,10963,10094,11280,35528,4
0,0,0,19746,11012,10117,11268,35418,4
0,0,0,19344,11012,10117,11354,34165,4
0,0,0,19136,10975,10094,11354,33067,4
0,0,0,18820,10963,10083,11354,31849,4
0,0,0,18526,10939,10060,11366,30776,4
0,0,0,18362,10939,10026,11379,30622,4
0,0,0,18075,10927,9980,11379,30286,4
0,0,0,17739,10879,9980,11317,30105,4
0,0,0,17495,10867,9992,11255,30105,4
0,0,0,17357,10831,9935,11219,30226,4
0,0,0,17220,10819,9935,11157,30045,4
0,0,0,17443,10819,9935,11157,30286,4
0,0,0,17792,10795,9935,11157,30438,4
0,0,0,18022,10819,9912,11121,28840,4
0,0,0,18380,10819,9912,11170,28583,4
0,0,0,18599,10819,9890,11219,28984,4
0,0,0,18801,10831,9856,11206,28955,4
0,0,0,19005,10867,9845,11231,27911,4
0,0,0,19099,10879,9845,11379,27745,4
0,0,0,19174,10867,9811,11453,27691,4
0,0,0,19174,10867,9811,11428,27581,4
0,0,0,18968,10867,9822,11453,27581,4
0,0,0,18672,10843,9777,11628,27966,4
0,0,0,18672,10819,9800,11615,28583,4
0,0,0,18746,10819,9800,11503,28869,4
0,0,0,19005,10819,9811,11453,29627,4
0,0,0,19212,10819,9811,11304,30045,4
0,0,0,19306,10819,9811,11182,29984,4
0,0,0,19325,10867,9811,11109,29865,4
0,0,0,19287,10867,9811,11084,29865,4
0,0,0,18987,10843,9878,11157,29865,4
0,0,0,18709,10831,9912,11219,28583,4
0,0,0,18508,10819,9935,11255,27994,4
0,0,0,18417,10819,9980,11255,27911,4
0,0,0,18308,10843,10003,11317,27581,4
0,0,0,18075,10831,10003,11354,27364,4
0,0,0,18075,10867,10026,11354,27445,4
0,0,0,18111,10855,10026,11391,27391,4
0,0,0,18164,10867,10071,11403,27283,4
0,0,0,18129,10867,10083,11354,27310,4
0,0,0,18057,10879,10117,11403,27068,4
0,0,0,18022,10891,10129,11453,27041,4
0,0,0,18129,10915,10152,11503,27202,4
0,0,0,18654,10939,10163,11553,27691,4
0,0,0,19193,11036,10174,11653,28414,4
0,0,0,19382,11133,10174,11766,28385,4
0,0,0,19535,11157,10174,11830,28161,4
0,0,0,19689,11182,10174,11703,28385,4
0,0,0,19960,11182,10174,11553,29129,4
0,0,0,20395,11170,10163,11416,30165,4
0,0,0,20899,11170,10163,11354,31656,4
0,0,0,21105,11157,10163,11231,32173,4
0,0,0,21125,11206,10140,11157,32010,4
0,0,0,21125,11182,10152,11096,31656,4
0,0,0,21043,11170,10140,11060,31465,4
0,0,0,20961,11157,10140,11060,31434,4
0,0,0,20676,11109,10140,11084,30869,4
0,0,0,20315,11060,10174,11109,30045,4
0,0,0,20098,11084,10163,11109,29805,4
0,0,0,19921,11060,10163,11109,29568,4
0,0,0,19882,11072,10163,11096,29538,4
0,0,0,20117,11109,10174,11072,30165,4
0,0,0,20315,11194,10163,11036,30226,4
0,0,0,20335,11206,10163,11024,30408,4
0,0,0,20236,11206,10163,11024,30347,4
0,0,0,20157,11206,10163,11024,30165,4
0,0,0,20078,11182,10163,11024,30045,4
0,0,0,19999,11206,10140,11036,30015,4
0,0,0,19999,11206,10163,11024,30015,4
0,0,0,19960,11182,10163,11024,29865,4
0,0,0,19921,11157,10163,11060,29805,4
0,0,0,19708,11109,10174,11060,29716,4
0,0,0,19458,11060,10163,11060,29274,4
0,0,0,19306,11036,10209,11060,29158,4
0,0,0,19249,11060,10209,11060,29100,4
0,0,0,19401,11084,10209,11060,29304,4
0,0,0,19497,11036,10186,11012,29568,4
0,0,0,19516,11060,10186,11012,29746,4
0,0,0,19535,11060,10209,10987,29657,4
0,0,0,19535,11024,10209,11012,29509,4
0,0,0,19477,11036,10209,10987,29568,4
0,0,0,19458,11036,10209,10999,29509,4
0,0,0,19477,11036,10209,10963,29686,4
0,0,0,19631,11060,10197,10915,30226,4
0,0,0,19689,11060,10174,10903,30347,4
0,0,0,19689,11060,10186,10915,30286,4
0,0,0,19708,11084,10186,10915,30105,4
0,0,0,19766,11084,10186,10915,30105,4
0,0,0,19746,11060,10174,10891,30015,4
0,0,0,19766,11072,10209,10915,30075,4
0,0,0,19805,11084,10209,10915,29984,4
0,0,0,19785,11072,10209,10915,29835,4
0,0,0,19843,11084,10209,10915,29865,4
0,0,0,19766,11084,10197,10915,29805,4
0,0,0,19689,11109,10209,10915,29865,4
0,0,0,19708,11084,10209,10915,29925,4
0,0,0,19708,11096,10197,10915,29746,4
0,0,0,19785,11084,10209,10915,29984,4
0,0,0,20078,11109,10209,10915,30591,4
0,0,0,20395,11231,10209,10915,31465,4
0,0,0,20475,11304,10209,10915,31276,4
0,0,0,20295,11268,10221,10915,31025,4
0,0,0,20236,11304,10209,10915,30900,4
0,0,0,20176,11280,10209,10879,30745,4
0,0,0,20117,11255,10209,10939,30994,4
0,0,0,20236,11255,10209,10915,31785,4
0,0,0,20157,11219,10221,10915,32010,4
0,0,0,20117,11170,10186,10915,31465,4
0,0,0,20117,11012,10209,10891,31402,4
0,0,0,20078,10879,10174,10903,31434,4
0,0,0,20019,10819,10117,10867,31465,4
0,0,0,20019,10771,10083,10843,31720,4
0,0,0,20078,10771,10071,10819,31978,4
0,0,0,20078,10783,10071,10819,31978,4
0,0,0,20078,10795,10083,10819,31817,4
0,0,0,20039,10819,10071,10819,31881,4
0,0,0,20019,10795,10094,10807,31593,4
0,0,0,20078,10807,10071,10819,31978,4
0,0,0,20078,10819,10071,10843,32303,4
0,0,0,20078,10819,10083,10843,32369,4
0,0,0,20039,10819,10106,10831,32271,4
0,0,0,19999,10831,10094,10855,32108,4
0,0,0,19999,10819,10083,10819,31656,4
0,0,0,20019,10819,10071,10831,31656,4
0,0,0,20157,10867,10037,10819,31593,4
0,0,0,20395,10891,10026,10867,31402,4
0,0,0,20335,10927,10026,10867,30684,4
0,0,0,20395,10915,10026,10891,30591,4
0,0,0,20395,10951,10003,10891,30530,4
0,0,0,20475,10915,9980,10915,30653,4
0,0,0,20395,10927,9980,10891,30377,4
0,0,0,20236,10939,10026,10939,30347,4
0,0,0,20117,10963,10049,10987,30438,4
0,0,0,20117,10975,10071,10975,30591,4
0,0,0,20078,10975,10117,10987,30838,4
0,0,0,20078,10963,10083,10987,30838,4
0,0,0,20078,10987,10117,11012,30776,4
0,0,0,20078,10987,10117,10987,30838,4
0,0,0,20117,10987,10106,11012,31087,4
0,0,0,20335,11109,10094,11012,31339,4
0,0,0,20716,11403,10117,11036,32043,4
0,0,0,20676,11403,10106,11060,32043,4
0,0,0,20555,11354,10117,11036,32173,4
0,0,0,20475,11329,10117,11048,31946,4
0,0,0,20475,11317,10117,11012,31849,4
0,0,0,20495,11440,10083,10999,31913,4
0,0,0,20515,11453,10083,11012,31849,4
0,0,0,20495,11416,10094,11012,31656,4
0,0,0,20515,11453,10117,11012,31624,4
0,0,0,20515,11453,10140,11024,31752,4
0,0,0,20495,11440,10117,11012,31593,4
0,0,0,20455,11428,10140,11024,31849,4
0,0,0,20475,11478,10129,11012,32303,4
0,0,0,20435,11478,10129,11084,32173,4
0,0,0,20435,11503,10140,11109,32108,4
0,0,0,20475,11478,10163,11133,32108,4
0,0,0,20475,11478,10174,11133,31881,4
0,0,0,20335,11478,10163,11109,31849,4
0,0,0,20315,11465,10152,11109,31849,4
0,0,0,20355,11453,10163,11109,32010,4
0,0,0,20315,11465,10163,11096,31881,4
0,0,0,20275,11428,10163,11084,31720,4
0,0,0,20256,11453,10174,11084,31785,4
0,0,0,20275,11453,10174,11121,31785,4
0,0,0,20256,11453,10221,11109,31720,4
0,0,0,20275,11453,10209,11133,31656,4
0,0,0,20256,11453,10221,11157,31752,4
0,0,0,20275,11478,10221,11133,31785,4
0,0,0,20315,11453,10221,11133,31849,4
0,0,0,20275,11453,10232,11133,31752,4
0,0,0,20335,11465,10232,11121,31720,4
0,0,0,20315,11428,10255,11133,31720,4
0,0,0,20275,11453,10232,11133,31720,4
0,0,0,20275,11465,10232,11133,31656,4
0,0,0,20315,11453,10255,11109,31720,4
0,0,0,20295,11453,10232,11133,31752,4
0,0,0,20315,11453,10244,11121,31785,4
0,0,0,20295,11478,10244,11133,31817,4
0,0,0,20295,11453,10232,11157,31849,4
0,0,0,20295,11453,10255,11121,31785,4
0,0,0,20315,11453,10244,11121,31752,4
0,0,0,20315,11453,10244,11121,31817,4
0,0,0,20335,11478,10255,11109,31785,4
0,0,0,20335,11478,10244,11121,31849,4
0,0,0,20335,11465,10232,11133,31978,4
0,0,0,20395,11503,10221,11109,31849,4
0,0,0,20395,11453,10232,11133,31881,4
0,0,0,20315,11453,10255,11109,31913,4
0,0,0,20335,11453,10232,11121,31785,4
0,0,0,20335,11478,10209,11133,31849,4
0,0,0,20335,11478,10244,11121,31849,4
0,0,0,20435,11465,10232,11157,32173,4
0,0,0,20455,11503,10232,11157,31881,4
0,0,0,20495,11490,10209,11157,32108,4
0,0,0,20555,11453,10209,11157,31978,4
0,0,0,20475,11503,10209,11157,32108,4
0,0,0,20555,11465,10174,11170,32108,4
0,0,0,20676,11453,10163,11182,31849,4
0,0,0,20636,11416,10163,11206,31624,4
0,0,0,20555,11379,10140,11206,31434,4
0,0,0,20275,11354,10129,11182,31087,4
0,0,0,20117,11317,10140,11182,30776,4
0,0,0,20078,11354,10140,11194,30347,4
0,0,0,20117,11292,10117,11182,29509,4
0,0,0,20196,11255,10117,11206,29304,4
0,0,0,20098,11255,10117,11157,29216,4
0,0,0,20078,11243,10117,11182,29304,4
0,0,0,19960,11255,10129,11157,29627,4
0,0,0,19921,11206,10117,11133,29627,4
0,0,0,19941,11219,10117,11109,29568,4
0,0,0,19960,11206,10117,11084,30105,4
0,0,0,20019,11206,10174,11109,30286,4
0,0,0,19960,11182,10163,11084,30469,4
0,0,0,19999,11182,10163,11096,30591,4
0,0,0,19999,11194,10163,11060,30591,4
0,0,0,19999,11206,10163,11072,30776,4
0,0,0,20019,11206,10174,11060,30869,4
0,0,0,20078,11206,10163,11036,31181,4
0,0,0,20019,11206,10174,11060,31370,4
0,0,0,20039,11206,10174,11060,31339,4
0,0,0,19999,11182,10174,11060,31339,4
0,0,0,20039,11219,10163,11036,31307,4
0,0,0,20019,11206,10197,11024,31244,4
0,0,0,20078,11219,10174,11024,31150,4
0,0,0,20117,11206,10186,11060,31529,4
0,0,0,20098,11219,10163,11109,31529,4
0,0,0,20117,11206,10129,11182,30962,4
0,0,0,20196,11157,10140,11182,30962,4
0,0,0,19999,11157,10129,11157,30838,4
0,0,0,19863,11109,10140,11133,30653,4
0,0,0,19727,11109,10140,11109,30653,4
0,0,0,19612,11109,10140,11084,30715,4
0,0,0,19554,11109,10140,11084,30622,4
0,0,0,19554,11109,10163,11060,30653,4
0,0,0,19612,11109,10174,11036,30715,4
0,0,0,19612,11109,10163,11012,30869,4
0,0,0,19612,11121,10174,11012,30962,4
0,0,0,19631,11109,10163,11012,30962,4
0,0,0,19650,11145,10163,10987,31087,4
0,0,0,19689,11133,10197,10987,31213,4
0,0,0,19612,11133,10174,10999,31181,4
0,0,0,19612,11157,10186,11012,31087,4
0,0,0,19612,11157,10209,10987,31056,4
0,0,0,19631,11157,10174,10963,31119,4
0,0,0,19612,11157,10174,10999,31150,4
0,0,0,19554,11157,10209,10987,30994,4
0,0,0,19612,11133,10209,10987,30962,4
0,0,0,19612,11157,10209,10987,30994,4
0,0,0,19631,11157,10209,10987,31056,4
0,0,0,19612,11157,10221,10975,31025,4
0,0,0,19612,11157,10255,10975,31056,4
0,0,0,19631,11157,10232,10987,31150,4
0,0,0,19650,11157,10244,10963,31150,4
0,0,0,19612,11157,10221,10963,31181,4
0,0,0,19612,11157,10221,10975,31150,4
0,0,0,19612,11182,10221,10963,31244,4
0,0,0,19612,11206,10221,10963,31244,4
0,0,0,19592,11206,10232,10975,31213,4
0,0,0,19650,11206,10221,10987,31339,4
0,0,0,20039,11206,10209,11060,31561,4
0,0,0,20196,11170,10163,11109,31276,4
0,0,0,20275,11219,10152,11084,31213,4
0,0,0,20335,11206,10117,11109,31339,4
0,0,0,20236,11206,10117,11109,31119,4
0,0,0,19960,11157,10117,11157,30869,4
0,0,0,19785,11109,10117,11133,30286,4
0,0,0,19785,11084,10094,11084,29925,4
0,0,0,20039,11012,10071,11060,29746,4
0,0,0,20236,10963,10014,11024,30408,4
0,0,0,20236,10927,9980,11012,30962,4
0,0,0,19805,10939,9969,10987,31656,4
0,0,0,19155,10915,9980,11012,32467,4
0,0,0,18526,10915,9980,11012,34553,4
0,0,0,18562,10915,9980,10999,34095,4
0,0,0,18489,10915,9980,11012,33474,4
0,0,0,18581,10915,9980,11012,33033,4
0,0,0,18526,10939,10003,11036,32435,4
0,0,0,18417,10915,10003,11012,31656,4
0,0,0,18362,10915,9980,10987,31087,4
0,0,0,18489,10915,10003,11012,31213,4
0,0,0,18931,10939,10003,10939,32303,4
0,0,0,19287,10963,10026,10927,32832,4
0,0,0,19592,10987,10003,10915,33508,4
0,0,0,19727,11012,10026,10891,33817,4
0,0,0,19766,11012,10003,10891,33991,4
0,0,0,19843,11024,10003,10867,34341,4
0,0,0,19805,11072,10026,10879,34553,4
0,0,0,19824,11060,10026,10867,34589,4
0,0,0,19902,11060,10049,10831,34767,4
0,0,0,19863,11060,10037,10867,34839,4
0,0,0,19843,11072,10049,10867,34839,4
0,0,0,19863,11084,10049,10855,34839,4
0,0,0,19843,11096,10071,10867,34767,4
0,0,0,19843,11084,10071,10867,34767,4
0,0,0,19843,11084,10083,10867,34839,4
0,0,0,19843,11072,10117,10867,34982,4
0,0,0,19882,11084,10117,10867,34910,4
0,0,0,19843,11096,10117,10891,34910,4
0,0,0,19863,11109,10117,10879,34946,4
0,0,0,19843,11109,10129,10867,34982,4
0,0,0,19805,11109,10129,10867,34982,4
0,0,0,19805,11133,10140,10879,35018,4
0,0,0,19843,11133,10152,10867,34982,4
0,0,0,19805,11157,10140,10879,34946,4
0,0,0,19863,11121,10140,10903,34910,4
0,0,0,19843,11133,10140,10891,34982,4
0,0,0,19805,11157,10163,10879,35163,4
0,0,0,19766,11157,10163,10891,35091,4
0,0,0,19785,11133,10163,10879,35091,4
0,0,0,19766,11133,10163,10891,34910,4
0,0,0,19766,11157,10174,10879,35091,4
0,0,0,19921,11182,10163,10915,35272,4
0,0,0,19921,11157,10174,10879,35199,4
0,0,0,19882,11170,10174,10879,35127,4
0,0,0,19882,11170,10174,10879,35018,4
0,0,0,19843,11194,10186,10867,35199,4
0,0,0,19863,11231,10197,10915,35127,4
0,0,0,19863,11280,10209,10915,35163,4
0,0,0,19863,11280,10209,10891,35272,4
0,0,0,19843,11304,10221,10915,35163,4
0,0,0,19805,11304,10232,10915,35309,4
0,0,0,19727,11317,10232,10915,35345,4
0,0,0,19727,11329,10255,10915,35272,4
0,0,0,19708,11354,10244,10915,35055,4
0,0,0,19689,11354,10255,10915,34982,4
0,0,0,19669,11379,10255,10915,34839,4
0,0,0,19689,11354,10255,10951,34946,4
0,0,0,19766,11354,10255,10915,34874,4
0,0,0,19766,11354,10255,10915,34910,4
0,0,0,19805,11366,10232,11012,34696,4
0,0,0,19805,11354,10209,11012,34874,4
0,0,0,19921,11317,10174,11012,35163,4
0,0,0,19921,11304,10163,11012,34874,4
0,0,0,19843,11060,10140,10963,34731,4
0,0,0,19650,11012,10129,10939,34306,4
0,0,0,19554,10963,10129,10891,33921,4
0,0,0,19573,10987,10117,10891,33748,4
0,0,0,19420,10963,10094,10879,33508,4
0,0,0,19306,10975,10094,10879,33303,4
0,0,0,19155,11012,10071,10879,33303,4
0,0,0,19155,11012,10071,10867,33508,4
0,0,0,19043,11060,10071,10867,32765,4
0,0,0,19231,11109,10026,10855,32108,4
0,0,0,19477,11157,10003,10867,31978,4
0,0,0,19592,11157,9980,10831,31785,4
0,0,0,19592,11072,9946,10843,31978,4
0,0,0,19497,11012,9935,10843,31785,4
0,0,0,19535,10987,9935,10867,31978,4
0,0,0,20335,11012,9935,10831,32336,4
0,0,0,20636,11012,9935,10843,32599,4
0,0,0,20818,11024,9935,10831,32765,4
0,0,0,20961,11024,9912,10831,32799,4
0,0,0,21146,11060,9935,10831,32932,4
0,0,0,21291,11109,9958,10819,33033,4
0,0,0,21208,11121,9980,10831,33067,4
0,0,0,21167,11157,9980,10843,33033,4
0,0,0,21043,11157,9980,10819,33168,4
0,0,0,20981,11206,9980,10819,33134,4
0,0,0,20920,11219,10003,10843,33100,4
0,0,0,20838,11206,10003,10843,32966,4
0,0,0,20798,11231,10003,10867,32999,4
0,0,0,20737,11255,10003,10819,32932,4
0,0,0,20757,11243,10026,10831,32866,4
0,0,0,20716,11255,10026,10843,32899,4
0,0,0,20716,11255,10049,10843,32899,4
0,0,0,20716,11255,10049,10867,32932,4
0,0,0,20696,11280,10026,10867,32932,4
0,0,0,20716,11255,10049,10867,32966,4
0,0,0,20676,11219,10049,10867,33033,4
0,0,0,20636,11231,10037,10891,32899,4
0,0,0,20676,11231,10049,10867,32932,4
0,0,0,20716,11219,10071,10867,33134,4
0,0,0,20737,11219,10049,10891,33033,4
0,0,0,20737,11219,10049,10891,33033,4
0,0,0,20757,11206,10071,10867,32932,4
0,0,0,20757,11219,10071,10879,33067,4
0,0,0,20716,11231,10071,10879,33474,4
0,0,0,20676,11206,10106,10963,33576,4
0,0,0,20676,11182,10071,11012,33611,4
0,0,0,20615,11157,10060,11012,33852,4
0,0,0,20636,11084,10014,10987,33852,4
0,0,0,20615,10987,10003,10975,33748,4
0,0,0,20575,10987,10026,11012,33168,4
0,0,0,20475,10975,10049,11012,32899,4
0,0,0,20435,11012,10037,11012,33439,4
0,0,0,20435,11024,10049,10999,33033,4
0,0,0,20555,11060,10026,10987,32899,4
0,0,0,20777,11109,10026,10963,33236,4
0,0,0,20838,11157,10003,10927,33303,4
0,0,0,20859,11157,10003,10939,33236,4
0,0,0,20798,11182,10003,10915,33033,4
0,0,0,20475,11170,9980,10891,32566,4
0,0,0,20078,11170,9946,10891,31150,4
0,0,0,19766,11170,9935,10879,30900,4
0,0,0,19689,11157,9935,10879,30622,4
0,0,0,19420,11157,9935,10867,30408,4
0,0,0,19249,11157,9912,10843,30530,4
0,0,0,19382,11157,9924,10819,30561,4
0,0,0,20019,11182,9912,10819,30715,4
0,0,0,20575,11157,9958,10819,30994,4
0,0,0,20961,11072,9958,10819,32075,4
0,0,0,21333,11072,9980,10819,32336,4
0,0,0,21542,11036,10003,10807,32500,4
0,0,0,21754,11060,10026,10819,32899,4
0,0,0,21733,11084,10037,10831,32765,4
0,0,0,21627,11109,10071,10831,32666,4
0,0,0,21542,11170,10083,10819,32765,4
0,0,0,21500,11206,10117,10843,32899,4
0,0,0,21437,11206,10117,10867,32533,4
0,0,0,21416,11219,10117,10843,32566,4
0,0,0,21354,11255,10117,10831,32633,4
0,0,0,21291,11219,10129,10843,32765,4
0,0,0,21375,11255,10140,10843,33852,4
0,0,0,21270,11243,10140,10867,33474,4
0,0,0,21291,11219,10140,10867,33371,4
0,0,0,21291,11219,10140,10867,33236,4
0,0,0,21291,11255,10163,10843,33269,4
0,0,0,21333,11219,10163,10867,33303,4
0,0,0,21291,11255,10163,10843,33100,4
0,0,0,21291,11255,10140,10867,33100,4
0,0,0,21229,11255,10140,10843,33100,4
0,0,0,21250,11231,10174,10855,33033,4
0,0,0,21250,11231,10163,10867,32932,4
0,0,0,21250,11255,10163,10855,32866,4
0,0,0,21208,11231,10163,10867,34130,4
0,0,0,21208,11243,10163,10867,33817,4
0,0,0,21146,11231,10174,10867,33611,4
0,0,0,21125,11206,10163,10867,33576,4
0,0,0,21125,11206,10163,10867,33576,4
0,0,0,21125,11206,10163,10843,33337,4
0,0,0,21125,11206,10209,10867,33168,4
0,0,0,21043,11206,10209,10867,33100,4
0,0,0,21043,11206,10221,10867,33100,4
0,0,0,21043,11182,10209,10843,33100,4
0,0,0,21043,11182,10209,10843,33100,4
0,0,0,21002,11206,10209,10867,33168,4
0,0,0,21043,11182,10209,10867,33100,4
0,0,0,21043,11157,10209,10867,33067,4
0,0,0,20981,11170,10209,10867,32932,4
0,0,0,20981,11157,10209,10867,32966,4
0,0,0,20981,11157,10209,10867,32832,4
0,0,0,20981,11182,10209,10843,32832,4
0,0,0,20981,11157,10209,10867,32832,4
0,0,0,20981,11182,10209,10867,32866,4
0,0,0,20961,11157,10209,10867,32699,4
0,0,0,20961,11170,10209,10867,32699,4
0,0,0,20981,11157,10209,10867,32799,4
0,0,0,20961,11157,10209,10867,32932,4
0,0,0,20920,11157,10209,10867,32899,4
0,0,0,20899,11157,10209,10867,32966,4
0,0,0,20920,11157,10209,10867,32765,4
0,0,0,20920,11157,10209,10891,32966,4
0,0,0,20920,11182,10209,10891,32899,4
0,0,0,20899,11157,10163,10891,32633,4
0,0,0,20879,11157,10163,10915,32633,4
0,0,0,20818,11170,10129,10915,32566,4
0,0,0,20676,11157,10094,10939,32173,4
0,0,0,20475,11157,10083,10975,31785,4
0,0,0,20157,11157,10117,11036,30994,4
0,0,0,19766,11157,10117,11109,30165,4
0,0,0,19554,11133,10117,11157,29716,4
0,0,0,19573,11157,10117,11206,29333,4
0,0,0,19516,11133,10129,11255,29216,4
0,0,0,19497,11109,10140,11255,29129,4
0,0,0,19516,11109,10129,11280,29479,4
0,0,0,19458,11109,10117,11304,30165,4
0,0,0,19458,11096,10117,11341,30286,4
0,0,0,19306,11084,10117,11329,30499,4
0,0,0,19174,11109,10117,11304,30653,4
0,0,0,18931,11072,10117,11354,30838,4
0,0,0,18783,11072,10117,11379,31244,4
0,0,0,18635,11109,10140,11416,31307,4
0,0,0,18617,11096,10163,11503,30684,4
0,0,0,18654,11109,10163,11603,29805,4
0,0,0,18709,11109,10163,11578,29158,4
0,0,0,18691,11145,10174,11553,29274,4
0,0,0,18709,11133,10163,11528,29274,4
0,0,0,18783,11157,10129,11503,29042,4
0,0,0,19005,11157,10129,11515,29042,4
0,0,0,19231,11157,10083,11628,29362,4
0,0,0,19344,11109,10071,11703,29274,4
0,0,0,19306,11133,10071,11804,29391,4
0,0,0,19382,11121,10071,11919,29627,4
0,0,0,19458,11157,10071,12112,29627,4
0,0,0,19458,11121,10071,12267,29568,4
0,0,0,19344,11121,10071,12280,29686,4
0,0,0,19249,11109,10071,12280,29686,4
0,0,0,19231,11109,10049,12267,29627,4
0,0,0,19268,11109,10049,12228,29627,4
0,0,0,19516,11109,10049,12112,30045,4
0,0,0,19805,11109,10071,11932,30438,4
0,0,0,19863,11109,10049,11804,30469,4
0,0,0,19708,11084,10049,11766,30286,4
0,0,0,19458,11109,10037,11754,30105,4
0,0,0,19382,11084,10026,11804,29775,4
0,0,0,20275,11157,10026,11957,30591,4
0,0,0,20961,11304,10049,12112,31881,4
0,0,0,21291,11280,10071,12228,33100,4
0,0,0,21250,11317,10071,12320,33371,4
0,0,0,21250,11317,10071,12504,33783,4
0,0,0,21229,11403,10071,12530,34130,4
0,0,0,21395,11465,10049,12543,34767,4
0,0,0,21563,11503,10071,12583,35272,4
0,0,0,21542,11565,10071,12636,35492,4
0,0,0,21479,11528,10071,12636,35565,4
0,0,0,21479,11515,10071,12756,35528,4
0,0,0,21333,11503,10071,12972,35492,4
0,0,0,21208,11465,10071,13315,35418,4
0,0,0,21229,11453,10071,13636,35676,4
0,0,0,21208,11465,10083,13707,35602,4
0,0,0,21250,11478,10049,13468,35602,4
0,0,0,21291,11503,10071,12743,35565,4
0,0,0,21250,11515,10071,12280,35418,4
0,0,0,21208,11528,10094,12189,35345,4
0,0,0,21187,11528,10094,12112,35127,4
0,0,0,21146,11515,10094,12073,35091,4
0,0,0,21084,11478,10117,12009,35127,4
0,0,0,21064,11453,10117,12009,34839,4
0,0,0,21043,11403,10094,12060,34910,4
0,0,0,21043,11416,10117,12060,34696,4
0,0,0,20981,11416,10117,12060,34553,4
0,0,0,20981,11403,10094,12189,34553,4
0,0,0,20981,11403,10117,12267,34731,4
0,0,0,21043,11403,10129,12530,34874,4
0,0,0,20961,11403,10140,12543,34946,4
0,0,0,20961,11403,10140,12556,34839,4
0,0,0,20961,11379,10163,12530,34767,4
0,0,0,20961,11403,10163,12372,34767,4
0,0,0,20961,11416,10163,12267,34767,4
0,0,0,20961,11403,10163,12228,34767,4
0,0,0,20981,11403,10152,12215,34767,4
0,0,0,20920,11416,10140,12163,34624,4
0,0,0,20920,11403,10163,12163,34553,4
0,0,0,20920,11403,10163,12163,34660,4
0,0,0,20899,11379,10163,12163,34447,4
0,0,0,20879,11403,10163,12163,34447,4
0,0,0,20879,11379,10163,12163,34341,4
0,0,0,20879,11366,10140,12124,34341,4
0,0,0,20818,11391,10163,12137,34271,4
0,0,0,20859,11379,10129,12124,34412,4
0,0,0,21043,11379,10140,12150,34910,4
0,0,0,20899,11379,10117,12504,34839,4
0,0,0,20798,11366,10129,14726,34341,4
0,0,0,20737,11366,10129,15964,33508,4
0,0,0,20595,11354,10117,16450,32467,4
0,0,0,20555,11280,10117,16125,31913,4
0,0,0,20535,11280,10117,15335,31849,4
0,0,0,20495,11280,10117,14681,31913,4
0,0,0,20395,11304,10117,14399,34026,4
0,0,0,20315,11304,10129,14108,36197,4
0,0,0,20236,11317,10140,13524,35935,4
0,0,0,20176,11304,10140,13191,34910,4
0,0,0,20157,11304,10117,13027,34553,4
0,0,0,20117,11304,10140,12716,34341,4
0,0,0,20078,11329,10117,12451,34271,4
0,0,0,20078,11317,10117,12215,34306,4
0,0,0,20039,11354,10117,12112,34200,4
0,0,0,20039,11329,10117,12060,34130,4
0,0,0,19960,11354,10117,12021,33921,4
0,0,0,19843,11329,10117,11970,33852,4
0,0,0,19785,11304,10117,11932,33714,4
0,0,0,19843,11280,10117,11957,33508,4
0,0,0,19960,11280,10071,12073,32966,4
0,0,0,19708,11255,10094,12009,33033,4
0,0,0,19477,11280,10083,11868,33303,4
0,0,0,19439,11268,10094,11881,33303,4
0,0,0,19382,11231,10071,11855,33474,4
0,0,0,19344,11255,10083,11881,33303,4
0,0,0,19363,11255,10071,11906,33371,4
0,0,0,19382,11255,10094,11906,33033,4
0,0,0,19325,11243,10083,11868,33100,4
0,0,0,19249,11255,10071,11842,33100,4
0,0,0,19401,11182,10117,11906,33100,4
0,0,0,19458,11157,10117,11868,33100,4
0,0,0,19458,11157,10117,11855,33033,4
0,0,0,19458,11182,10129,11817,33067,4
0,0,0,19420,11157,10117,11804,33100,4
0,0,0,19458,11182,10117,11766,33645,4
0,0,0,19573,11194,10117,11703,33956,4
0,0,0,19535,11255,10117,11628,34341,4
0,0,0,19382,11219,10117,11590,33576,4
0,0,0,19306,11231,10117,11553,33852,4
0,0,0,19268,11219,10117,11553,33202,4
0,0,0,19231,11219,10117,11565,33202,4
0,0,0,19306,11243,10117,11578,33168,4
0,0,0,19174,11255,10117,11553,32799,4
0,0,0,19155,11206,10129,11503,32500,4
0,0,0,19080,11219,10117,11503,32238,4
0,0,0,19005,11219,10094,11503,31529,4
0,0,0,19005,11219,10117,11553,31150,4
0,0,0,19061,11206,10117,11603,31244,4
0,0,0,19099,11219,10106,11665,31465,4
0,0,0,19118,11206,10106,11665,31465,4
0,0,0,19231,11219,10117,11728,31465,4
0,0,0,19382,11243,10117,11804,31849,4
0,0,0,19727,11354,10083,11881,32369,4
0,0,0,19882,11453,10117,11944,32402,4
0,0,0,19941,11428,10117,12034,32402,4
0,0,0,19843,11416,10117,12112,32173,4
0,0,0,19708,11416,10117,12073,31913,4
0,0,0,19650,11453,10140,12086,31339,4
0,0,0,19631,11453,10163,12530,30838,4
0,0,0,19669,11453,10163,12743,30838,4
0,0,0,19650,11428,10163,12783,31025,4
0,0,0,19612,11403,10163,12878,31025,4
0,0,0,19650,11403,10163,12905,30838,4
0,0,0,19612,11403,10163,12864,31087,4
0,0,0,19650,11416,10186,12690,31276,4
0,0,0,19689,11416,10209,12530,31465,4
0,0,0,19727,11403,10174,12424,31529,4
0,0,0,19689,11403,10174,12320,31593,4
0,0,0,19708,11428,10186,12241,31465,4
0,0,0,19708,11391,10197,12215,31465,4
0,0,0,19689,11403,10221,12215,31402,4
0,0,0,19708,11416,10209,12124,31402,4
0,0,0,19650,11403,10209,11983,31339,4
0,0,0,19650,11403,10209,11855,31529,4
0,0,0,19650,11379,10209,11804,31465,4
0,0,0,19650,11403,10209,11728,31339,4
0,0,0,19650,11366,10209,11703,31213,4
0,0,0,19554,11292,10209,11665,31150,4
0,0,0,19554,11304,10186,11628,31119,4
0,0,0,19554,11304,10209,11615,31056,4
0,0,0,19554,11304,10209,11628,31087,4
0,0,0,19535,11280,10186,11628,31056,4
0,0,0,19573,11280,10209,11590,31087,4
0,0,0,19612,11304,10197,11603,31087,4
0,0,0,19554,11304,10209,11603,31025,4
0,0,0,19535,11268,10209,11628,31087,4
0,0,0,19573,11280,10209,11615,30962,4
0,0,0,19535,11268,10209,11628,31025,4
0,0,0,19535,11280,10186,11628,31025,4
0,0,0,19554,11304,10174,11628,30962,4
0,0,0,19535,11304,10209,11628,30838,4
0,0,0,19535,11280,10209,11653,30838,4
0,0,0,19554,11304,10209,11603,30900,4
0,0,0,19535,11304,10209,11565,30900,4
0,0,0,19497,11317,10209,11578,30776,4
0,0,0,19516,11317,10209,11553,30745,4
0,0,0,19535,11280,10209,11553,30807,4
0,0,0,19497,11304,10209,11528,30838,4
0,0,0,19554,11304,10209,11528,30900,4
0,0,0,19573,11304,10209,11528,30900,4
0,0,0,19535,11304,10209,11528,30900,4
0,0,0,19554,11304,10209,11528,30962,4
0,0,0,19535,11304,10209,11515,31025,4
0,0,0,19554,11304,10221,11528,31150,4
0,0,0,19535,11304,10209,11528,31087,4
0,0,0,19573,11304,10209,11528,30838,4
0,0,0,19554,11304,10209,11503,30994,4
0,0,0,19497,11304,10209,11490,30900,4
0,0,0,19497,11255,10209,11503,30994,4
0,0,0,19516,11268,10221,11503,30962,4
0,0,0,19535,11304,10209,11515,30931,4
0,0,0,19497,11304,10221,11528,31025,4
0,0,0,19516,11304,10209,11515,30869,4
0,0,0,19535,11304,10209,11528,30962,4
0,0,0,19554,11268,10209,11528,31119,4
0,0,0,19554,11280,10209,11528,31025,4
0,0,0,19535,11268,10209,11553,31025,4
0,0,0,19554,11292,10221,11578,31087,4
0,0,0,19573,11304,10209,11603,30994,4
0,0,0,19554,11292,10209,11565,30931,4
0,0,0,19573,11304,10209,11603,30994,4
0,0,0,19554,11304,10221,11603,30994,4
0,0,0,19573,11304,10232,11578,30962,4
0,0,0,19535,11304,10209,11578,31087,4
0,0,0,19573,11304,10232,11603,31087,4
0,0,0,19535,11304,10209,11603,31025,4
0,0,0,19535,11317,10232,11603,30994,4
0,0,0,19554,11329,10232,11603,30994,4
0,0,0,19535,11354,10255,11603,30994,4
0,0,0,19573,11341,10255,11578,30962,4
0,0,0,19573,11354,10267,11578,31087,4
0,0,0,19516,11354,10278,11603,31025,4
0,0,0,19535,11379,10301,11603,30994,4
0,0,0,19535,11354,10301,11603,31056,4
0,0,0,19535,11354,10278,11590,31087,4
0,0,0,19535,11354,10301,11590,31119,4
0,0,0,19535,11354,10301,11603,30994,4
0,0,0,19535,11354,10301,11615,30962,4
0,0,0,19612,11366,10301,11603,30962,4
0,0,0,19497,11366,10290,11578,30962,4
0,0,0,19554,11391,10301,11603,30962,4
0,0,0,19535,11379,10301,11578,30962,4
0,0,0,19516,11354,10278,11603,30931,4
0,0,0,19535,11379,10301,11603,30869,4
0,0,0,19573,11366,10290,11578,30962,4
0,0,0,19554,11354,10301,11578,30931,4
0,0,0,19554,11379,10301,11603,31119,4
0,0,0,19573,11379,10301,11603,30962,4
0,0,0,19573,11354,10290,11603,30962,4
0,0,0,19554,11366,10301,11603,31150,4
0,0,0,19535,11354,10301,11603,31025,4
0,0,0,19535,11354,10301,11590,30838,4
0,0,0,19554,11366,10301,11603,30838,4
0,0,0,19612,11366,10301,11603,31244,4
0,0,0,19612,11403,10301,11615,31276,4
0,0,0,19554,11403,10313,11603,31276,4
0,0,0,19650,11403,10313,11603,31244,4
0,0,0,19573,11403,10301,11603,31056,4
0,0,0,19554,11379,10313,11578,31025,4
0,0,0,19554,11403,10301,11565,30962,4
0,0,0,19573,11416,10301,11578,30962,4
0,0,0,19554,11416,10301,11578,30838,4
0,0,0,19573,11379,10325,11603,30994,4
0,0,0,19535,11403,10301,11653,30994,4
0,0,0,19497,11366,10313,11703,30715,4
0,0,0,19497,11366,10301,11703,30776,4
0,0,0,19535,11329,10301,11703,30962,4
0,0,0,19612,11354,10301,11565,31497,4
0,0,0,19535,11329,10301,11515,31025,4
0,0,0,19497,11317,10301,11453,30869,4
0,0,0,19535,11354,10255,11440,30962,4
0,0,0,19535,11354,10255,11379,31150,4
0,0,0,19573,11354,10232,11354,31025,4
0,0,0,19612,11403,10221,11354,31150,4
0,0,0,19612,11403,10221,11379,31276,4
0,0,0,19612,11440,10209,11403,31276,4
0,0,0,19573,11465,10186,11403,31150,4
0,0,0,19573,11503,10174,11416,31119,4
0,0,0,19573,11503,10186,11416,30994,4
0,0,0,19535,11503,10209,11403,30994,4
0,0,0,19535,11490,10209,11453,31025,4
0,0,0,19573,11465,10232,11503,30962,4
0,0,0,19554,11453,10221,11528,30962,4
0,0,0,19535,11453,10255,11528,30869,4
0,0,0,19535,11453,10255,11528,31119,4
0,0,0,19554,11453,10278,11553,31025,4
0,0,0,19497,11528,10301,11553,31025,4
0,0,0,19554,11565,10301,11553,30962,4
0,0,0,19631,11665,10301,11553,30900,4
0,0,0,19612,11741,10325,11528,30591,4
0,0,0,19612,11779,10325,11528,30286,4
0,0,0,19650,11779,10313,11515,30045,4
0,0,0,19708,11830,10348,11503,29925,4
0,0,0,19805,11919,10348,11478,29865,4
0,0,0,19882,11944,10348,11428,29805,4
0,0,0,19921,11932,10371,11416,29865,4
0,0,0,19960,11842,10348,11416,29895,4
0,0,0,19999,11804,10348,11416,30045,4
0,0,0,19960,11804,10348,11403,30226,4
0,0,0,19960,11804,10325,11354,30226,4
0,0,0,19863,11779,10348,11292,30286,4
0,0,0,19805,11754,10348,11231,30347,4
0,0,0,19766,11804,10348,11231,30408,4
0,0,0,19766,11804,10325,11206,30469,4
0,0,0,19766,11830,10371,11206,30469,4
0,0,0,19766,11804,10348,11182,30226,4
0,0,0,19766,11855,10394,11182,30165,4
0,0,0,19727,11830,10418,11182,30286,4
0,0,0,19727,11855,10429,11182,30408,4
0,0,0,19708,11830,10441,11182,30591,4
0,0,0,19727,11817,10441,11182,30715,4
0,0,0,19805,11830,10464,11206,30900,4
0,0,0,19882,11817,10464,11206,30962,4
0,0,0,19921,11804,10441,11170,30962,4
0,0,0,19921,11779,10441,11157,30962,4
0,0,0,19921,11716,10418,11157,30962,4
0,0,0,19999,11678,10418,11157,30962,4
0,0,0,19960,11603,10406,11109,30776,4
0,0,0,19999,11528,10394,11121,30715,4
0,0,0,19999,11515,10371,11109,30591,4
0,0,0,20019,11478,10359,11109,30469,4
0,0,0,19999,11465,10371,11109,30286,4
0,0,0,19863,11453,10371,11133,30165,4
0,0,0,19554,11453,10348,11109,30045,4
0,0,0,19249,11403,10313,11133,29984,4
0,0,0,18894,11304,10348,11157,30226,4
0,0,0,18672,11304,10301,11157,30286,4
0,0,0,18508,11280,10301,11157,30226,4
0,0,0,18435,11255,10278,11133,30286,4
0,0,0,18635,11255,10301,11121,30165,4
0,0,0,19005,11268,10301,11133,30165,4
0,0,0,19155,11280,10301,11133,30165,4
0,0,0,19231,11255,10325,11157,30256,4
0,0,0,19306,11280,10301,11157,30105,4
0,0,0,19249,11268,10313,11157,30075,4
0,0,0,19325,11304,10325,11145,30165,4
0,0,0,19554,11280,10325,11145,30165,4
0,0,0,19689,11304,10325,11133,30226,4
0,0,0,19592,11304,10325,11133,30165,4
0,0,0,19535,11304,10301,11133,30105,4
0,0,0,19497,11317,10348,11109,30045,4
0,0,0,19554,11329,10325,11121,30075,4
0,0,0,19535,11329,10325,11109,30015,4
0,0,0,19554,11329,10313,11109,30045,4
0,0,0,19554,11329,10325,11133,29984,4
0,0,0,19612,11354,10313,11121,30015,4
0,0,0,19612,11366,10348,11109,30075,4
0,0,0,19650,11403,10348,11133,29984,4
0,0,0,19689,11354,10348,11109,30045,4
0,0,0,19650,11366,10325,11109,30105,4
0,0,0,19689,11366,10348,11121,30105,4
0,0,0,19669,11379,10336,11109,30045,4
0,0,0,19689,11366,10313,11133,30015,4
0,0,0,19650,11403,10348,11121,29925,4
0,0,0,19708,11354,10348,11133,29984,4
0,0,0,19727,11379,10348,11133,29984,4
0,0,0,19689,11366,10348,11121,30015,4
0,0,0,19708,11379,10325,11109,30045,4
0,0,0,19689,11391,10348,11109,29895,4
0,0,0,19727,11354,10348,11133,29865,4
0,0,0,19766,11329,10371,11157,29835,4
0,0,0,19805,11317,10371,11133,29865,4
0,0,0,19785,11354,10371,11121,29805,4
0,0,0,19785,11329,10348,11133,29925,4
0,0,0,19785,11317,10348,11121,29805,4
0,0,0,19766,11304,10348,11133,29865,4
0,0,0,19766,11304,10348,11157,29925,4
0,0,0,19766,11304,10348,11157,29805,4
0,0,0,19766,11317,10348,11157,29865,4
0,0,0,19766,11317,10348,11157,29865,4
0,0,0,19708,11304,10348,11182,29865,4
0,0,0,19766,11329,10371,11170,29746,4
0,0,0,19785,11317,10371,11157,29835,4
0,0,0,19805,11317,10371,11157,29746,4
0,0,0,19766,11317,10394,11182,29865,4
0,0,0,19785,11329,10406,11206,29805,4
0,0,0,19785,11366,10406,11182,29865,4
0,0,0,19766,11403,10418,11206,29835,4
0,0,0,19766,11391,10418,11206,29865,4
0,0,0,19766,11379,10418,11206,29865,4
0,0,0,19766,11379,10441,11194,29835,4
0,0,0,19785,11403,10453,11182,29805,4
0,0,0,19805,11403,10441,11206,29865,4
0,0,0,19727,11428,10453,11206,29865,4
0,0,0,19805,11465,10441,11182,29925,4
0,0,0,19766,11453,10441,11206,29925,4
0,0,0,19805,11478,10441,11206,29925,4
0,0,0,19766,11478,10464,11206,29865,4
0,0,0,19766,11503,10464,11206,29865,4
0,0,0,19766,11490,10464,11219,29805,4
0,0,0,19766,11503,10476,11206,29805,4
0,0,0,19766,11478,10499,11182,29775,4
0,0,0,19766,11503,10476,11182,29805,4
0,0,0,19727,11503,10488,11182,29746,4
0,0,0,19766,11465,10488,11206,29865,4
0,0,0,19766,11503,10464,11182,29984,4
0,0,0,19843,11453,10453,11231,29895,4
0,0,0,19843,11465,10488,11255,29746,4
0,0,0,19766,11453,10476,11255,29627,4
0,0,0,19420,11465,10511,11268,29657,4
0,0,0,19231,11528,10535,11280,29746,4
0,0,0,19231,11528,10546,11304,29775,4
0,0,0,19249,11603,10546,11304,29716,4
0,0,0,19306,11754,10582,11292,29568,4
0,0,0,19325,11817,10582,11268,29421,4
0,0,0,19325,11855,10582,11280,29421,4
0,0,0,19306,11855,10582,11268,29509,4
0,0,0,19249,11855,10605,11268,29333,4
0,0,0,19231,11817,10605,11268,29274,4
0,0,0,19174,11817,10629,11280,29216,4
0,0,0,19231,11817,10617,11255,29274,4
0,0,0,19174,11766,10605,11255,29391,4
0,0,0,19231,11703,10629,11231,29538,4
0,0,0,19231,11653,10535,11206,29895,4
0,0,0,19306,11603,10488,11206,29925,4
0,0,0,19249,11578,10488,11157,29746,4
0,0,0,19231,11590,10488,11157,29835,4
0,0,0,19212,11578,10488,11133,29805,4
0,0,0,19249,11428,10453,11133,29775,4
0,0,0,19193,11109,10394,11121,29865,4
0,0,0,19193,10987,10301,11133,29984,4
0,0,0,19231,10939,10267,11157,30105,4
0,0,0,19268,10915,10255,11182,30469,4
0,0,0,19401,10987,10232,11206,30838,4
0,0,0,19420,11060,10221,11182,31276,4
0,0,0,19363,11109,10232,11206,31087,4
0,0,0,19344,11157,10232,11255,30994,4
0,0,0,19363,11170,10221,11304,30715,4
0,0,0,19458,11206,10232,11354,30745,4
0,0,0,19458,11255,10232,11403,30962,4
0,0,0,19382,11317,10255,11465,30653,4
0,0,0,19344,11354,10255,11478,30226,4
0,0,0,19306,11354,10255,11503,30105,4
0,0,0,19325,11366,10255,11503,30105,4
0,0,0,19325,11366,10244,11503,30045,4
0,0,0,19382,11403,10255,11503,30165,4
0,0,0,19535,11354,10255,11478,30653,4
0,0,0,19785,11366,10232,11465,29775,4
0,0,0,19805,11354,10221,11478,29686,4
0,0,0,19785,11304,10209,11478,29509,4
0,0,0,19727,11317,10232,11453,29509,4
0,0,0,19689,11304,10209,11453,29450,4
0,0,0,19631,11280,10209,11478,29450,4
0,0,0,19669,11280,10221,11478,29421,4
0,0,0,19573,11255,10232,11503,29450,4
0,0,0,19535,11255,10232,11503,29627,4
0,0,0,19535,11255,10232,11503,29746,4
0,0,0,19535,11255,10209,11503,29746,4
0,0,0,19535,11255,10221,11503,29686,4
0,0,0,19535,11255,10232,11503,29538,4
0,0,0,19535,11255,10232,11503,29538,4
0,0,0,19477,11255,10232,11528,29421,4
0,0,0,19497,11268,10221,11503,29421,4
0,0,0,19477,11280,10209,11528,29333,4
0,0,0,19477,11292,10232,11528,29304,4
0,0,0,19497,11304,10232,11528,29333,4
0,0,0,19458,11304,10232,11553,29391,4
0,0,0,19497,11304,10232,11553,29274,4
0,0,0,19458,11304,10232,11553,29333,4
0,0,0,19477,11304,10232,11553,29216,4
0,0,0,19401,11304,10232,11578,29421,4
0,0,0,19420,11304,10221,11578,29216,4
0,0,0,19420,11304,10232,11603,29274,4
0,0,0,19439,11304,10232,11603,29274,4
0,0,0,19401,11304,10221,11603,29274,4
0,0,0,19382,11317,10221,11603,29216,4
0,0,0,19382,11304,10244,11615,29333,4
0,0,0,19344,11280,10232,11615,29627,4
0,0,0,19382,11304,10209,11603,29627,4
0,0,0,19401,11304,10232,11603,29479,4
0,0,0,19344,11280,10232,11603,29538,4
0,0,0,19344,11280,10209,11603,29568,4
0,0,0,19344,11157,10221,11528,29895,4
0,0,0,19306,11012,10209,11416,29746,4
0,0,0,19249,10963,10174,11403,29568,4
0,0,0,19231,10915,10163,11379,29450,4
0,0,0,19155,10879,10174,11391,29129,4
0,0,0,19080,10891,10209,11379,29129,4
0,0,0,19099,10915,10232,11379,29129,4
0,0,0,19080,11036,10301,11379,28927,4
0,0,0,19043,11109,10301,11391,28840,4
0,0,0,18968,11084,10301,11379,28927,4
0,0,0,18968,11206,10301,11453,28869,4
0,0,0,19005,11206,10359,11528,28812,4
0,0,0,18931,11255,10511,11553,28869,4
0,0,0,18931,11565,10724,11653,28783,4
0,0,0,18838,11944,11012,11779,28927,4
0,0,0,18801,12372,11379,11817,28869,4
0,0,0,18875,12905,11653,12009,28984,4
0,0,0,18931,13287,11728,12112,29100,4
0,0,0,18968,13510,11804,12280,29042,4
0,0,0,18931,13384,11653,12372,29013,4
0,0,0,18931,13205,11603,12477,29042,4
0,0,0,18820,13013,11503,12451,29042,4
0,0,0,18746,12878,11379,12438,28984,4
0,0,0,18691,12824,11354,12372,29100,4
0,0,0,18654,12770,11280,12346,28812,4
0,0,0,18599,12743,11231,12346,28812,4
0,0,0,18635,12716,11219,12359,28640,4
0,0,0,18581,12690,11219,12346,28697,4
0,0,0,18581,12596,11206,12372,28697,4
0,0,0,18635,12543,11206,12346,28812,4
0,0,0,18599,12504,11206,12372,28812,4
0,0,0,18635,12517,11206,12346,28697,4
0,0,0,18562,12504,11206,12372,28640,4
0,0,0,18562,12424,11206,12372,28669,4
0,0,0,18544,12424,11170,12320,28583,4
0,0,0,18599,12346,11157,12267,28583,4
0,0,0,18544,12320,11121,12280,28612,4
0,0,0,18581,12241,11084,12267,28583,4
0,0,0,18562,12163,11036,12280,28470,4
0,0,0,18599,12086,10987,12267,28498,4
0,0,0,18599,11970,10879,12228,28470,4
0,0,0,18544,11881,10831,12215,28301,4
0,0,0,18489,11855,10783,12267,28301,4
0,0,0,18489,11779,10771,12451,28527,4
0,0,0,18857,11754,10724,12649,30015,4
0,0,0,19420,11703,10700,12703,31150,4
0,0,0,19344,11678,10700,12716,30530,4
0,0,0,19268,11603,10653,12797,29805,4
0,0,0,19080,11503,10582,12770,29746,4
0,0,0,19080,11354,10535,12690,29746,4
0,0,0,19268,11317,10488,12636,31150,4
0,0,0,19708,11280,10441,12610,32173,4
0,0,0,20098,11255,10394,12530,32832,4
0,0,0,20375,11255,10394,12530,33168,4
0,0,0,20475,11255,10394,12583,33269,4
0,0,0,20595,11255,10383,12756,33542,4
0,0,0,20575,11317,10394,12959,33371,4
0,0,0,20575,11354,10394,13232,33202,4
0,0,0,20595,11354,10394,13287,33100,4
0,0,0,20636,11354,10394,13287,32899,4
0,0,0,20495,11354,10371,13566,32932,4
0,0,0,20475,11354,10394,13510,32866,4
0,0,0,20475,11341,10394,13177,32899,4
0,0,0,20475,11366,10359,12743,32832,4
0,0,0,20475,11354,10325,12477,32699,4
0,0,0,20395,11354,10301,12333,32699,4
0,0,0,20315,11528,10348,12241,32369,4
0,0,0,20335,11804,10488,12112,32271,4
0,0,0,20335,11983,10641,11983,32533,4
0,0,0,20335,12034,10831,11932,32533,4
0,0,0,20256,12060,10891,11906,32369,4
0,0,0,20196,11983,10927,11944,32238,4
0,0,0,20157,12060,11109,12073,32369,4
0,0,0,20039,12060,11121,12073,32140,4
0,0,0,19960,12034,11084,12163,32043,4
0,0,0,19960,12034,11084,12189,32108,4
0,0,0,19980,12021,11060,12293,31978,4
0,0,0,19980,11932,10975,12424,31881,4
0,0,0,19960,11957,10963,12451,32010,4
0,0,0,19960,11919,10915,12490,32075,4
0,0,0,19921,11855,10867,12556,32043,4
0,0,0,19941,11804,10831,12583,31978,4
0,0,0,19941,11792,10819,12636,32108,4
0,0,0,19921,11779,10795,12716,32108,4
0,0,0,19863,11804,10783,12770,32140,4
0,0,0,19843,11830,10771,12810,32205,4
0,0,0,19902,11817,10771,12810,32173,4
0,0,0,19882,11804,10771,12851,32173,4
0,0,0,19902,11804,10771,12878,32173,4
0,0,0,19882,11817,10771,12905,32108,4
0,0,0,19843,11804,10783,12905,32108,4
0,0,0,19882,11804,10771,13013,32435,4
0,0,0,19863,11804,10807,13054,32303,4
0,0,0,19843,11855,10819,13068,32238,4
0,0,0,19843,11804,10783,13068,32075,4
0,0,0,19882,11830,10807,13040,32467,4
0,0,0,19921,11804,10795,13013,32303,4
0,0,0,19902,11817,10783,12986,32205,4
0,0,0,19882,11855,10783,13027,32238,4
0,0,0,19843,11817,10795,13040,32303,4
0,0,0,19805,11817,10795,13081,32303,4
0,0,0,19843,11804,10783,13068,32173,4
0,0,0,19824,11804,10795,13068,32238,4
0,0,0,19824,11817,10771,13068,32108,4
0,0,0,19805,11817,10771,13068,32238,4
0,0,0,19843,11830,10771,13040,32108,4
0,0,0,19785,11830,10771,13068,32043,4
0,0,0,19805,11830,10759,13068,32108,4
0,0,0,19766,11817,10771,13068,32043,4
0,0,0,19805,11817,10771,13068,32043,4
0,0,0,19785,11804,10771,13068,31978,4
0,0,0,19843,11817,10771,13081,32075,4
0,0,0,19785,11817,10748,13081,32010,4
0,0,0,19727,11830,10748,13136,32010,4
0,0,0,19766,11855,10748,13136,31913,4
0,0,0,19805,11842,10748,13177,32043,4
0,0,0,19785,11817,10748,13177,32010,4
0,0,0,19766,11881,10771,13205,31978,4
0,0,0,19708,11868,10759,13218,31978,4
0,0,0,19766,11855,10771,13287,31849,4
0,0,0,19766,11868,10771,13315,31785,4
0,0,0,19708,11906,10771,13315,31849,4
0,0,0,19727,11932,10771,13301,31752,4
0,0,0,19689,11932,10771,13287,31849,4
0,0,0,19689,11932,10771,13315,31785,4
0,0,0,19766,11906,10783,13301,31752,4
0,0,0,19708,11919,10771,13301,31720,4
0,0,0,19708,11932,10771,13301,31720,4
0,0,0,19708,11932,10783,13287,31817,4
0,0,0,19766,11932,10771,13287,31817,4
0,0,0,19708,11919,10748,13287,31817,4
0,0,0,19708,11957,10748,13287,31752,4
0,0,0,19689,11957,10771,13301,31849,4
0,0,0,19727,11957,10748,13301,31785,4
0,0,0,19689,11957,10748,13315,31720,4
0,0,0,19708,12009,10748,13301,31656,4
0,0,0,19669,12021,10748,13343,31785,4
0,0,0,19689,12034,10748,13454,31752,4
0,0,0,19689,12060,10748,13524,31752,4
0,0,0,19669,12060,10748,13552,31785,4
0,0,0,19669,12073,10736,13412,31624,4
0,0,0,19650,12021,10724,13054,31465,4
0,0,0,19650,12009,10700,12918,31339,4
0,0,0,19631,11957,10653,12770,31370,4
0,0,0,19650,11881,10546,12610,31213,4
0,0,0,19708,11817,10535,12543,31213,4
0,0,0,19631,11528,10476,12451,31087,4
0,0,0,19689,11416,10441,12424,31119,4
0,0,0,19631,11453,10441,12424,31025,4
0,0,0,19650,11403,10418,12451,31150,4
0,0,0,19708,11453,10418,12451,31624,4
0,0,0,19689,11403,10406,12504,31339,4
0,0,0,19592,11428,10441,12583,31087,4
0,0,0,19497,11553,10418,12690,30499,4
0,0,0,19401,11703,10453,12878,30591,4
0,0,0,19231,11855,10453,12824,30438,4
0,0,0,19249,11996,10441,12797,30408,4
0,0,0,19401,12112,10453,12824,30408,4
0,0,0,19458,12163,10453,12716,29597,4
0,0,0,19573,12228,10441,12703,27966,4
0,0,0,19708,12163,10441,12716,27994,4
0,0,0,19669,12163,10429,12756,28049,4
0,0,0,19650,12034,10441,12716,27966,4
0,0,0,19573,11919,10418,12716,27828,4
0,0,0,19592,11779,10418,12583,28133,4
0,0,0,19689,11691,10371,12438,28301,4
0,0,0,19708,11578,10348,12346,28301,4
0,0,0,19689,11503,10348,12293,28357,4
0,0,0,19650,11465,10348,12280,28697,4
0,0,0,19650,11465,10348,12254,28840,4
0,0,0,19497,11453,10325,12241,28869,4
0,0,0,19497,11453,10325,12267,29333,4
