GyroX,GyroY,GyroZ,Thumb,Index,Middle,Ring,Pinky,Gesture
0,0,0,17495,9901,9958,40216,38748,3
0,0,0,17443,9901,9935,40346,38666,3
0,0,0,17392,9935,9912,40346,38503,3
0,0,0,17357,9935,9901,40824,38503,3
0,0,0,17374,9935,9856,40868,38422,3
0,0,0,17374,9935,9867,41044,38341,3
0,0,0,17323,9935,9845,40868,38220,3
0,0,0,17306,9924,9811,40955,38180,3
0,0,0,17323,9935,9811,41176,38100,3
0,0,0,17374,9935,9800,41132,37900,3
0,0,0,17565,9935,9777,41577,37741,3
0,0,0,18236,9980,9800,42953,37741,3
0,0,0,19401,10071,9777,45281,38100,3
0,0,0,20236,10163,9755,46666,37860,3
0,0,0,20595,10221,9800,47246,37701,3
0,0,0,20676,10221,9800,47087,37622,3
0,0,0,20879,10255,9811,47353,37269,3
0,0,0,21479,10418,9867,49670,36690,3
0,0,0,21860,10594,9935,51184,36197,3
0,0,0,21648,10582,9980,50303,35639,3
0,0,0,21584,10570,10209,49784,35455,3
0,0,0,21627,10558,10394,48881,35199,3
0,0,0,21479,10558,10336,48273,35055,3
0,0,0,21291,10511,10255,47567,34803,3
0,0,0,20981,10394,10026,46249,34696,3
0,0,0,20838,10278,9811,45382,34660,3
0,0,0,20737,10244,9766,44782,34482,3
0,0,0,20636,10221,9766,44585,34412,3
0,0,0,20475,10244,9733,44931,34130,3
0,0,0,20415,10221,9733,44881,34130,3
0,0,0,20335,10232,9710,45483,33921,3
0,0,0,20335,10255,9710,45281,33852,3
0,0,0,20275,10267,9788,45382,33783,3
0,0,0,20157,10255,9845,45432,33645,3
0,0,0,20098,10301,9811,45081,33611,3
0,0,0,20078,10301,9800,44881,33474,3
0,0,0,19999,10267,9811,44585,33100,3
0,0,0,19941,10301,9845,44291,33067,3
0,0,0,20019,10301,9811,44340,32832,3
0,0,0,20058,10313,9811,44193,32866,3
0,0,0,19902,10301,9811,43855,32966,3
0,0,0,19477,10232,9856,43046,32633,3
0,0,0,18857,10174,9845,42304,31624,3
0,0,0,18164,10152,9811,41533,30807,3
0,0,0,17565,10140,9777,40432,29657,3
0,0,0,17084,10117,9800,39411,29100,3
0,0,0,16815,10117,9800,38503,28984,3
0,0,0,16781,10117,9800,37860,28927,3
0,0,0,16765,10117,9800,37308,28955,3
0,0,0,16815,10117,9811,37075,29187,3
0,0,0,16815,10117,9811,36805,29129,3
0,0,0,16815,10117,9822,36959,29042,3
0,0,0,16781,10117,9890,36843,29158,3
0,0,0,16748,10083,9890,36959,29042,3
0,0,0,16781,10094,9935,37075,29158,3
0,0,0,16748,10094,9958,37075,29391,3
0,0,0,16781,10094,9969,37075,29333,3
0,0,0,16748,10094,9946,36959,29274,3
0,0,0,16715,10117,9935,36843,29274,3
0,0,0,16698,10083,9912,36920,29450,3
0,0,0,16681,10083,9935,37152,30105,3
0,0,0,16715,10094,9935,37622,30591,3
0,0,0,16865,10071,9980,38220,30962,3
0,0,0,16983,10071,9980,38422,31150,3
0,0,0,17323,10060,10049,39747,32108,3
0,0,0,17880,10071,10209,41893,33303,3
0,0,0,18489,10117,10278,42859,34447,3
0,0,0,19005,10186,10301,42953,35418,3
0,0,0,19554,10325,10278,42953,34982,3
0,0,0,19843,10441,10278,42488,34624,3
0,0,0,19843,10418,10278,42212,34341,3
0,0,0,19420,10394,10255,41757,34026,3
0,0,0,18672,10325,10290,41488,33783,3
0,0,0,18308,10267,10348,41309,33542,3
0,0,0,18093,10255,10441,41044,33303,3
0,0,0,17880,10209,10488,40824,33033,3
0,0,0,17582,10186,10383,40519,32599,3
0,0,0,17254,10140,10301,40173,32140,3
0,0,0,17084,10117,10301,39917,31720,3
0,0,0,16949,10094,10278,39832,31561,3
0,0,0,16882,10071,10290,39536,31465,3
0,0,0,16831,10071,10325,39411,31785,3
0,0,0,16831,10014,10140,38912,31849,3
0,0,0,16815,9969,9867,38260,31849,3
0,0,0,16831,9980,9890,37741,31720,3
0,0,0,16798,9980,9935,37701,31593,3
0,0,0,16848,9980,9901,37781,31497,3
0,0,0,16815,9980,9912,37701,31529,3
0,0,0,16831,9946,9845,37583,31402,3
0,0,0,16815,9958,9800,37543,31276,3
0,0,0,16882,9946,9777,37701,31402,3
0,0,0,16949,9958,9755,37583,31244,3
0,0,0,16999,9958,9733,37583,31213,3
0,0,0,16983,9946,9721,37622,31087,3
0,0,0,16949,9935,9721,37662,31119,3
0,0,0,16915,9935,9733,37543,31119,3
0,0,0,16882,9935,9721,37504,31025,3
0,0,0,16815,9912,9710,37465,31150,3
0,0,0,16815,9935,9666,37465,31087,3
0,0,0,16831,9935,9643,37386,31119,3
0,0,0,16815,9958,9632,37543,31087,3
0,0,0,16815,9935,9599,37465,31087,3
0,0,0,16781,9958,9544,37465,31119,3
0,0,0,16815,10003,9544,37543,31087,3
0,0,0,16882,10026,9533,37543,31150,3
0,0,0,16949,10209,9710,37781,31087,3
0,0,0,16983,10783,10129,37940,31056,3
0,0,0,17033,11109,10325,38019,31056,3
0,0,0,17084,11206,10394,38059,31056,3
0,0,0,17084,11206,10453,38059,30962,3
0,0,0,17135,11354,10605,38059,30962,3
0,0,0,17186,11465,10748,38059,30962,3
0,0,0,17118,11553,10617,37940,30994,3
0,0,0,17101,11528,10546,37940,31025,3
0,0,0,17169,11478,10558,38019,30962,3
0,0,0,17169,11366,10535,38019,31087,3
0,0,0,17186,11280,10535,37860,30962,3
0,0,0,17357,11206,10535,37583,31339,3
0,0,0,17495,11072,10535,37308,31529,3
0,0,0,17634,10915,10499,36998,31529,3
0,0,0,17669,10700,10535,36690,31244,3
0,0,0,18129,10629,10511,36538,31276,3
0,0,0,18236,10605,10535,36499,31339,3
0,0,0,18272,10582,10546,36499,31720,3
0,0,0,18236,10582,10488,36310,31593,3
0,0,0,18236,10535,10394,36348,31624,3
0,0,0,18164,10453,10371,36160,31624,3
0,0,0,18200,10464,10359,36160,31656,3
0,0,0,18129,10488,10371,36122,31624,3
0,0,0,18147,10488,10371,36197,31561,3
0,0,0,18272,10488,10394,36197,31593,3
0,0,0,18635,10488,10394,36160,31720,3
0,0,0,18599,10499,10394,36122,31752,3
0,0,0,18635,10499,10394,36235,31785,3
0,0,0,18635,10511,10394,36085,31785,3
0,0,0,18617,10488,10394,36197,31720,3
0,0,0,18672,10453,10371,36235,31656,3
0,0,0,18783,10488,10301,36160,31720,3
0,0,0,18857,10488,10301,36047,31785,3
0,0,0,18820,10499,10278,36160,31849,3
0,0,0,18875,10488,10301,36047,31849,3
0,0,0,18820,10511,10267,36085,31881,3
0,0,0,18857,10488,10278,36197,31913,3
0,0,0,18857,10511,10301,36047,31946,3
0,0,0,18949,10523,10278,36272,31913,3
0,0,0,18968,10535,10301,36310,31913,3
0,0,0,18949,10535,10301,36235,31881,3
0,0,0,18987,10523,10301,36197,31913,3
0,0,0,18894,10535,10301,36197,31913,3
0,0,0,18894,10535,10301,36160,31913,3
0,0,0,18931,10546,10301,36197,32108,3
0,0,0,18894,10546,10313,36235,32108,3
0,0,0,18894,10535,10301,36160,32010,3
0,0,0,18987,10558,10301,36160,32043,3
0,0,0,18968,10570,10301,36197,32043,3
0,0,0,18931,10546,10301,36235,32043,3
0,0,0,18894,10582,10301,36160,32108,3
0,0,0,19005,10594,10313,36085,32075,3
0,0,0,18931,10594,10313,36047,32108,3
0,0,0,18857,10582,10301,36047,32238,3
0,0,0,18801,10605,10313,36047,32173,3
0,0,0,18746,10605,10313,36047,32173,3
0,0,0,18709,10582,10313,35898,32173,3
0,0,0,18709,10582,10325,35935,32205,3
0,0,0,18617,10594,10313,35972,32500,3
0,0,0,18599,10605,10313,35861,32500,3
0,0,0,18581,10605,10325,35898,32435,3
0,0,0,18562,10594,10336,35861,32435,3
0,0,0,18308,10594,10359,35712,32369,3
0,0,0,17809,10535,10371,35712,32435,3
0,0,0,17118,10535,10394,35492,32435,3
0,0,0,16715,10511,10582,35345,32402,3
0,0,0,16499,10511,10653,35199,32238,3
0,0,0,16222,10488,10488,35272,32271,3
0,0,0,15868,10441,10464,35236,32173,3
0,0,0,15412,10406,10499,35127,31785,3
0,0,0,15181,10394,10546,34874,31593,3
0,0,0,15089,10394,10499,34696,31276,3
0,0,0,15058,10371,10394,34624,31307,3
0,0,0,15058,10348,10325,34839,31276,3
0,0,0,15089,10348,10325,34946,31213,3
0,0,0,15288,10348,10301,35749,31370,3
0,0,0,15663,10359,10313,36728,32010,3
0,0,0,15932,10359,10313,37543,32043,3
0,0,0,16173,10348,10313,37860,32173,3
0,0,0,16352,10348,10301,38019,32238,3
0,0,0,16417,10348,10313,38019,32238,3
0,0,0,16483,10371,10278,38100,32173,3
0,0,0,16615,10406,10209,38382,32369,3
0,0,0,16815,10418,10094,38912,33067,3
0,0,0,16915,10418,10026,38830,33269,3
0,0,0,16949,10406,10037,38830,33303,3
0,0,0,16966,10406,10037,38707,33168,3
0,0,0,16949,10394,10026,38666,33303,3
0,0,0,16949,10348,10003,38544,33100,3
0,0,0,16882,10313,9935,38544,33033,3
0,0,0,17016,10290,9845,38830,33134,3
0,0,0,17084,10267,9800,38995,33134,3
0,0,0,17169,10267,9766,38912,33236,3
0,0,0,17152,10278,9755,38871,33067,3
0,0,0,17220,10301,9733,38830,33067,3
0,0,0,17220,10301,9710,38748,33100,3
0,0,0,17323,10301,9688,38912,33100,3
0,0,0,17306,10301,9688,38789,33033,3
0,0,0,17289,10278,9710,38666,32966,3
0,0,0,17323,10278,9688,38503,32899,3
0,0,0,17340,10267,9688,38544,32832,3
0,0,0,17426,10278,9688,38544,32899,3
0,0,0,17357,10301,9710,38503,32799,3
0,0,0,17426,10313,9666,38382,32932,3
0,0,0,17530,10348,9688,38585,32966,3
0,0,0,17565,10371,9677,38585,32966,3
0,0,0,17565,10394,9699,38503,32932,3
0,0,0,17600,10394,9688,38382,32899,3
0,0,0,17582,10371,9666,38463,32832,3
0,0,0,17582,10371,9677,38422,32832,3
0,0,0,17634,10394,9666,38341,32799,3
0,0,0,17634,10394,9666,38463,32765,3
0,0,0,17582,10394,9677,38260,32832,3
0,0,0,17582,10394,9666,38341,32799,3
0,0,0,17652,10406,9666,38260,32832,3
0,0,0,17600,10406,9666,38341,32832,3
0,0,0,17652,10394,9666,38341,32699,3
0,0,0,17669,10394,9666,38301,32765,3
0,0,0,17634,10406,9666,38260,32599,3
0,0,0,17652,10418,9666,38180,32699,3
0,0,0,17669,10441,9666,38180,32633,3
0,0,0,17669,10394,9666,38220,32566,3
0,0,0,17704,10394,9677,38100,32500,3
0,0,0,17880,10394,9677,38180,32467,3
0,0,0,18075,10394,9733,37940,32303,3
0,0,0,18218,10394,9946,38180,32108,3
0,0,0,18236,10394,10071,38100,31881,3
0,0,0,18344,10394,10071,37940,31946,3
0,0,0,18471,10359,10071,37230,31849,3
0,0,0,18417,10359,10071,36538,31656,3
0,0,0,18453,10348,10049,36122,31881,3
0,0,0,18489,10371,9980,35565,32369,3
0,0,0,18581,10383,9901,35492,32303,3
0,0,0,18508,10441,9890,35492,32010,3
0,0,0,18471,10535,9890,35565,32173,3
0,0,0,18508,10511,9878,35787,32238,3
0,0,0,18453,10535,9890,35749,32500,3
0,0,0,18453,10535,9924,35861,32500,3
0,0,0,18435,10558,9935,35749,32336,3
0,0,0,18435,10558,9935,35712,32303,3
0,0,0,18453,10558,9946,35787,32369,3
0,0,0,18508,10546,9935,35861,32402,3
0,0,0,18435,10535,9958,35712,32303,3
0,0,0,18380,10558,9980,35565,32303,3
0,0,0,18290,10546,9980,35492,32303,3
0,0,0,18200,10582,10026,35492,32271,3
0,0,0,18129,10582,10037,35639,32435,3
0,0,0,18147,10582,10071,35565,32435,3
0,0,0,18129,10582,10049,35492,32271,3
0,0,0,18075,10558,10037,35455,32402,3
0,0,0,18147,10558,10003,35602,32435,3
0,0,0,18164,10546,10003,35639,32500,3
0,0,0,18200,10546,10003,35824,32500,3
0,0,0,18272,10582,10003,36160,32500,3
0,0,0,18236,10558,10026,36160,32500,3
0,0,0,18218,10582,10026,36197,32500,3
0,0,0,18200,10582,10003,36047,32500,3
0,0,0,18200,10582,10014,36085,32500,3
0,0,0,18129,10594,10049,36010,32566,3
0,0,0,18164,10605,10071,36085,32500,3
0,0,0,18129,10582,10094,35935,32566,3
0,0,0,18129,10594,10117,35972,32435,3
0,0,0,18129,10605,10140,35935,32435,3
0,0,0,18093,10629,10129,35935,32435,3
0,0,0,18093,10605,10117,36010,32435,3
0,0,0,18093,10605,10117,35898,32402,3
0,0,0,18111,10605,10083,36010,32336,3
0,0,0,18093,10582,10071,35861,32369,3
0,0,0,18093,10582,10083,35861,32369,3
0,0,0,18129,10582,10094,35861,32402,3
0,0,0,18075,10582,10094,35787,32500,3
0,0,0,18075,10582,10117,35861,32369,3
0,0,0,18129,10594,10094,35898,32402,3
0,0,0,18111,10582,10071,35898,32303,3
0,0,0,18236,10594,10083,36010,32435,3
0,0,0,18453,10605,10094,36462,32533,3
0,0,0,18562,10653,10094,36499,32533,3
0,0,0,18544,10653,10117,36272,32500,3
0,0,0,18599,10688,10140,35787,32402,3
0,0,0,18635,10676,10152,35676,32566,3
0,0,0,18857,10664,10163,35602,32699,3
0,0,0,19005,10629,10129,35676,32599,3
0,0,0,19024,10629,10094,35712,32633,3
0,0,0,18987,10629,10094,35712,32699,3
0,0,0,18931,10629,10071,35712,32699,3
0,0,0,18931,10629,10049,35639,32566,3
0,0,0,18931,10629,10026,35712,32533,3
0,0,0,18857,10605,10026,35676,32566,3
0,0,0,18857,10605,10026,35602,32566,3
0,0,0,18820,10594,10003,35712,32566,3
0,0,0,18820,10605,10026,35639,32566,3
0,0,0,18801,10594,10026,35565,32500,3
0,0,0,18764,10605,10026,35639,32467,3
0,0,0,18746,10605,10026,35565,32500,3
0,0,0,18783,10605,10026,35602,32500,3
0,0,0,18709,10605,10026,35602,32435,3
0,0,0,18746,10594,10003,35565,32533,3
0,0,0,18746,10594,10026,35602,32500,3
0,0,0,18691,10594,10026,35565,32467,3
0,0,0,18727,10605,10026,35639,32435,3
0,0,0,18672,10629,10026,35565,32500,3
0,0,0,18654,10605,10037,35492,32402,3
0,0,0,18654,10641,10049,35639,32500,3
0,0,0,18654,10629,10071,35492,32633,3
0,0,0,18599,10629,10071,35565,32566,3
0,0,0,18635,10629,10071,35528,32699,3
0,0,0,18635,10629,10071,35602,32566,3
0,0,0,18599,10641,10071,35565,32566,3
0,0,0,18654,10641,10071,35418,32500,3
0,0,0,18635,10653,10094,35418,32500,3
0,0,0,18599,10653,10117,35492,32533,3
0,0,0,18635,10676,10163,35492,32435,3
0,0,0,18635,10629,10163,35492,32271,3
0,0,0,18435,10488,10163,35127,32238,3
0,0,0,18164,10441,10197,35091,31978,3
0,0,0,17986,10418,10325,34910,31849,3
0,0,0,17687,10394,10394,35418,31656,3
0,0,0,16915,10371,10441,35712,31978,3
0,0,0,16483,10313,10511,35898,31946,3
0,0,0,16222,10255,10570,36010,31978,3
0,0,0,16141,10232,10546,36235,31465,3
0,0,0,16076,10209,10535,36160,31307,3
0,0,0,16028,10186,10511,36235,31119,3
0,0,0,15964,10163,10511,36160,30869,3
0,0,0,15900,10129,10511,36047,30684,3
0,0,0,15900,10117,10499,35935,30653,3
0,0,0,15980,10117,10535,36085,30776,3
0,0,0,16157,10106,10488,36386,30900,3
0,0,0,16303,10129,10394,36310,30994,3
0,0,0,16385,10094,10267,36197,30962,3
0,0,0,16417,10117,10174,36272,30994,3
0,0,0,16483,10129,10083,36462,31150,3
0,0,0,16516,10140,9969,36499,31213,3
0,0,0,16499,10117,9935,36499,31119,3
0,0,0,16598,10140,9935,36690,31087,3
0,0,0,16715,10129,9912,36959,31244,3
0,0,0,16915,10140,9912,37386,31465,3
0,0,0,16882,10140,9901,37465,31465,3
0,0,0,16865,10163,9912,37465,31465,3
0,0,0,16831,10163,9935,37465,31497,3
0,0,0,16831,10174,9935,37465,31465,3
0,0,0,16831,10163,9935,37269,31370,3
0,0,0,16831,10163,9935,37230,31370,3
0,0,0,16915,10174,9946,37269,31307,3
0,0,0,16898,10209,9935,37269,31402,3
0,0,0,16949,10186,9935,37308,31370,3
0,0,0,17016,10186,9935,37308,31181,3
0,0,0,16983,10209,9935,37269,31150,3
0,0,0,17050,10209,9946,37075,31150,3
0,0,0,17084,10209,9969,37152,31087,3
0,0,0,17118,10232,9980,37152,31213,3
0,0,0,17118,10209,9958,37230,31087,3
0,0,0,17050,10255,10003,37152,31087,3
0,0,0,17152,10221,10049,36998,31213,3
0,0,0,17565,10244,10026,36462,31244,3
0,0,0,18562,10348,10049,35565,31465,3
0,0,0,18709,10383,10026,35455,31402,3
0,0,0,18820,10394,10049,35639,31465,3
0,0,0,18801,10441,10049,35639,31370,3
0,0,0,18635,10511,10106,35639,31370,3
0,0,0,18562,10558,10152,35565,31402,3
0,0,0,18581,10546,10163,35639,31244,3
0,0,0,18672,10511,10163,35712,31339,3
0,0,0,18727,10535,10140,35712,31465,3
0,0,0,18727,10535,10140,35935,31656,3
0,0,0,18801,10511,10140,36160,31785,3
0,0,0,18894,10511,10129,36499,31849,3
0,0,0,19005,10453,10094,36805,31656,3
0,0,0,19080,10464,10117,36843,31785,3
0,0,0,19061,10464,10117,36767,31849,3
0,0,0,19024,10488,10129,36920,31849,3
0,0,0,19024,10488,10163,36843,31849,3
0,0,0,18987,10488,10174,36882,31913,3
0,0,0,19024,10535,10209,36959,31881,3
0,0,0,18968,10558,10209,36920,31913,3
0,0,0,19099,10582,10209,36805,31881,3
0,0,0,19099,10582,10221,36843,31978,3
0,0,0,19043,10605,10255,36767,32010,3
0,0,0,19043,10629,10267,36767,31978,3
0,0,0,19061,10641,10325,36843,31978,3
0,0,0,18987,10676,10371,36805,32010,3
0,0,0,18949,10688,10383,36805,31978,3
0,0,0,18968,10676,10371,36386,32108,3
0,0,0,19043,10641,10336,36235,32108,3
0,0,0,19043,10629,10313,36122,31978,3
0,0,0,19024,10605,10325,36160,32010,3
0,0,0,19005,10605,10313,36085,32043,3
0,0,0,18987,10629,10325,36047,32010,3
0,0,0,18987,10629,10348,36010,32075,3
0,0,0,18949,10629,10371,36010,32043,3
0,0,0,18912,10605,10394,36047,32075,3
0,0,0,18931,10605,10394,35972,32043,3
0,0,0,18931,10582,10359,35935,32010,3
0,0,0,18931,10582,10371,35972,32043,3
0,0,0,18912,10594,10371,35898,32108,3
0,0,0,18894,10605,10348,35898,32075,3
0,0,0,18931,10605,10371,35861,32108,3
0,0,0,18931,10594,10359,36010,32108,3
0,0,0,18912,10605,10359,35898,32043,3
0,0,0,18783,10582,10371,35712,31913,3
0,0,0,18709,10499,10582,35565,31656,3
0,0,0,18783,10464,10748,35639,31561,3
0,0,0,18857,10418,10488,35382,31370,3
0,0,0,18857,10301,10174,35199,31688,3
0,0,0,18783,10278,10083,34874,31849,3
0,0,0,18746,10290,10071,34696,32108,3
0,0,0,18727,10301,10094,34447,32238,3
0,0,0,18709,10348,10117,33337,29775,3
0,0,0,18838,10394,10152,32633,27856,3
0,0,0,18801,10394,10186,32500,27499,3
0,0,0,18931,10394,10255,32435,28022,3
0,0,0,18931,10441,10325,32566,29158,3
0,0,0,18931,10464,10441,32799,30347,3
0,0,0,19005,10511,10605,33542,30931,3
0,0,0,19043,10511,10605,34200,31497,3
0,0,0,19061,10546,10582,34553,31656,3
0,0,0,19155,10594,10653,35127,31978,3
0,0,0,19306,10629,10629,35712,31720,3
0,0,0,19344,10629,10582,35787,31978,3
0,0,0,19497,10629,10605,35712,31913,3
0,0,0,19497,10641,10629,35861,31913,3
0,0,0,19497,10676,10676,35898,31881,3
0,0,0,19592,10676,10771,35749,31881,3
0,0,0,19612,10629,10819,35199,31881,3
0,0,0,19382,10535,10915,35199,32173,3
0,0,0,18949,10453,10963,35418,32303,3
0,0,0,18857,10441,10987,35712,32402,3
0,0,0,18875,10441,11109,36160,32799,3
0,0,0,18894,10453,11540,36728,33303,3
0,0,0,18654,10453,11754,36386,32633,3
0,0,0,18508,10441,11653,36122,32369,3
0,0,0,18380,10418,11428,35712,31978,3
0,0,0,18236,10418,11060,35272,31656,3
0,0,0,18200,10371,10653,34696,31656,3
0,0,0,18111,10348,10535,34624,31497,3
0,0,0,18075,10325,10464,34553,31529,3
0,0,0,18075,10348,10348,34553,31402,3
0,0,0,18075,10313,10301,34553,31465,3
0,0,0,17739,10313,10301,34660,31529,3
0,0,0,17220,10325,10325,35345,31529,3
0,0,0,16983,10325,10348,35455,31402,3
0,0,0,16882,10313,10394,35712,31339,3
0,0,0,16765,10301,10441,35639,31339,3
0,0,0,16715,10313,10441,35639,31307,3
0,0,0,16765,10278,10441,35712,31150,3
0,0,0,16848,10301,10429,35602,31087,3
0,0,0,16882,10255,10418,35492,30994,3
0,0,0,16882,10255,10418,35418,30838,3
0,0,0,16882,10267,10371,35272,30776,3
0,0,0,16915,10255,10406,35712,30838,3
0,0,0,16882,10244,10795,36085,31181,3
0,0,0,16815,10255,10867,35861,31213,3
0,0,0,16731,10255,10867,35309,30962,3
0,0,0,16698,10255,11060,35199,30962,3
0,0,0,16815,10255,11072,35272,30962,3
0,0,0,16815,10267,11060,35272,30838,3
0,0,0,16949,10267,11060,35272,30869,3
0,0,0,16949,10267,11096,35309,30838,3
0,0,0,16966,10278,11133,35272,30931,3
0,0,0,16882,10301,11121,35199,30838,3
0,0,0,16848,10325,11133,35199,30715,3
0,0,0,16831,10313,11133,35272,30715,3
0,0,0,16831,10348,11121,35199,30715,3
0,0,0,16831,10348,11121,35127,30622,3
0,0,0,16848,10348,11133,35055,30745,3
0,0,0,16831,10359,11109,35127,30715,3
0,0,0,16882,10371,11072,35127,30684,3
0,0,0,16882,10371,11024,35018,30776,3
0,0,0,16831,10371,11012,35055,30715,3
0,0,0,16882,10383,11012,35018,30715,3
0,0,0,16865,10394,11012,34982,30684,3
0,0,0,16865,10406,11012,35055,30622,3
0,0,0,17050,10453,10987,35236,30715,3
0,0,0,17101,10488,10987,35345,30622,3
0,0,0,17101,10476,11012,35345,30591,3
0,0,0,17084,10488,10987,35236,30530,3
0,0,0,17101,10488,10963,35272,30591,3
0,0,0,17169,10535,10963,35749,30715,3
0,0,0,17289,10499,10963,35861,30715,3
0,0,0,17306,10523,10975,35787,30715,3
0,0,0,17323,10535,11012,35787,30776,3
0,0,0,17357,10511,11024,35861,30776,3
0,0,0,17426,10535,11036,35935,30900,3
0,0,0,17495,10546,11012,35861,30622,3
0,0,0,17426,10535,10963,35787,30438,3
0,0,0,17461,10546,10963,35492,30317,3
0,0,0,17426,10546,10963,35565,30377,3
0,0,0,17409,10535,10975,35602,30408,3
0,0,0,17443,10546,10987,35565,30469,3
0,0,0,17426,10546,10987,35418,30256,3
0,0,0,17426,10535,10987,35418,30226,3
0,0,0,17392,10535,10987,35455,30105,3
0,0,0,17495,10535,10987,35345,30165,3
0,0,0,17426,10546,10987,35492,30165,3
0,0,0,17461,10546,11012,35418,30165,3
0,0,0,17426,10535,11012,35418,30165,3
0,0,0,17461,10535,11012,35418,30165,3
0,0,0,17426,10535,10987,35418,30105,3
0,0,0,17426,10535,11012,35309,30105,3
0,0,0,17426,10535,10987,35455,30105,3
0,0,0,17495,10535,11012,35382,30226,3
0,0,0,17461,10546,10987,35418,30105,3
0,0,0,17426,10535,10963,35787,30286,3
0,0,0,17357,10511,10771,35712,29865,3
0,0,0,17289,10488,10546,35345,29391,3
0,0,0,17426,10453,10441,34060,29042,3
0,0,0,17565,10453,10453,33100,29013,3
0,0,0,17792,10429,10724,32765,29391,3
0,0,0,18164,10441,10999,33033,30045,3
0,0,0,18635,10441,11157,33645,30499,3
0,0,0,18931,10429,11109,34060,30776,3
0,0,0,19099,10453,11012,34130,30622,3
0,0,0,19155,10488,10819,34130,30653,3
0,0,0,19193,10523,10771,34306,30165,3
0,0,0,19249,10535,10748,34412,30165,3
0,0,0,19287,10546,10748,34553,29805,3
0,0,0,19420,10582,10819,34839,29805,3
0,0,0,19401,10582,10915,35127,29775,3
0,0,0,19497,10629,10963,35418,29865,3
0,0,0,19708,10700,10963,35824,29865,3
0,0,0,19689,10748,10963,36197,30015,3
0,0,0,19573,10724,10831,36424,29865,3
0,0,0,19497,10759,10748,36310,29805,3
0,0,0,19401,10748,10748,36235,29627,3
0,0,0,19344,10748,10748,36122,29657,3
0,0,0,19306,10724,10748,36160,29568,3
0,0,0,19306,10700,10724,36920,29568,3
0,0,0,19306,10676,10748,36959,29925,3
0,0,0,19249,10653,10748,36690,29865,3
0,0,0,19155,10676,10724,36576,29835,3
0,0,0,19080,10641,10748,36386,29865,3
0,0,0,19080,10641,10783,36499,29865,3
0,0,0,19005,10653,10819,36310,29925,3
0,0,0,19043,10676,10819,36310,29865,3
0,0,0,18968,10641,10819,36310,29805,3
0,0,0,18894,10629,10819,36348,29805,3
0,0,0,18857,10653,10843,36310,29865,3
0,0,0,18820,10641,10867,36235,29895,3
0,0,0,18801,10629,10891,36272,29925,3
0,0,0,18801,10641,10915,36160,29835,3
0,0,0,18783,10629,10915,36160,29895,3
0,0,0,18764,10617,10867,36160,29775,3
0,0,0,18783,10582,10783,35972,29627,3
0,0,0,18857,10511,10629,35935,30165,3
0,0,0,18894,10488,10535,35565,30347,3
0,0,0,18894,10511,10535,35455,30165,3
0,0,0,18931,10499,10546,35455,30226,3
0,0,0,18857,10464,10476,34910,30226,3
0,0,0,18894,10441,10336,34165,30226,3
0,0,0,18894,10394,10278,33542,30105,3
0,0,0,18857,10464,10301,32765,30075,3
0,0,0,18820,10535,10348,32435,30377,3
0,0,0,18838,10594,10441,31978,30286,3
0,0,0,18820,10605,10453,32043,30165,3
0,0,0,18857,10570,10453,32435,30286,3
0,0,0,18857,10582,10441,32832,30347,3
0,0,0,18746,10582,10441,33714,30286,3
0,0,0,18746,10594,10441,33714,30226,3
0,0,0,18635,10605,10464,33576,30226,3
0,0,0,18838,10605,10418,33576,30256,3
0,0,0,18912,10629,10371,33303,30226,3
0,0,0,18875,10676,10348,32666,30256,3
0,0,0,18894,10676,10371,32402,30377,3
0,0,0,19024,10700,10499,32765,31087,3
0,0,0,19043,10700,10783,32899,31276,3
0,0,0,19080,10676,10867,33439,30869,3
0,0,0,19193,10676,10535,32899,28470,3
0,0,0,19174,10676,10441,32500,27609,3
0,0,0,19231,10653,10441,32435,27310,3
0,0,0,19193,10664,10488,32303,27418,3
0,0,0,19231,10629,10488,32238,27527,3
0,0,0,19306,10629,10406,31978,27364,3
0,0,0,19344,10641,10301,31434,26749,3
0,0,0,19344,10724,10255,31276,26409,3
0,0,0,19306,10783,10186,31276,26279,3
0,0,0,19080,10771,10174,31593,26202,3
0,0,0,18764,10771,10152,31785,27337,3
0,0,0,18544,10771,10140,31978,28049,3
0,0,0,18435,10771,10140,31978,28301,3
0,0,0,18344,10795,10106,31881,28414,3
0,0,0,18236,10795,10094,31720,28414,3
0,0,0,18147,10783,10094,31656,28357,3
0,0,0,18111,10783,10083,31688,28301,3
0,0,0,18057,10771,10060,31720,28385,3
0,0,0,17739,10771,10083,31465,28583,3
0,0,0,17565,10771,10071,31276,28697,3
0,0,0,17530,10771,10037,31276,28812,3
0,0,0,17600,10783,10049,31402,29013,3
0,0,0,17600,10771,10049,31465,29071,3
0,0,0,17652,10771,10049,31529,29158,3
0,0,0,17669,10795,10071,31497,29129,3
0,0,0,17704,10748,10071,31497,29274,3
0,0,0,17845,10771,10071,31465,29216,3
0,0,0,17986,10771,10117,31465,29391,3
0,0,0,18129,10783,10140,31465,29391,3
0,0,0,18164,10795,10163,31465,29450,3
0,0,0,18417,10795,10174,31561,29421,3
0,0,0,18857,10795,10209,31434,29509,3
0,0,0,19249,10748,10232,31370,29538,3
0,0,0,19268,10676,10232,31688,29686,3
0,0,0,19080,10629,10267,32402,30286,3
0,0,0,19061,10582,10325,32899,30530,3
0,0,0,18931,10546,10418,33576,30838,3
0,0,0,18801,10499,10499,33921,31434,3
0,0,0,18654,10441,10488,34095,31978,3
0,0,0,18599,10418,10535,34447,32435,3
0,0,0,18380,10406,10676,34696,32999,3
0,0,0,18200,10394,10748,34660,32899,3
0,0,0,17986,10359,10903,35163,32832,3
0,0,0,17704,10313,10987,35309,32765,3
0,0,0,17565,10301,10987,35163,32369,3
0,0,0,17357,10278,10582,34412,31849,3
0,0,0,17220,10244,10371,34060,31370,3
0,0,0,17050,10209,10301,34271,31025,3
0,0,0,16715,10186,10301,34624,30591,3
0,0,0,16450,10152,10301,35127,30226,3
0,0,0,16254,10129,10301,35455,30015,3
0,0,0,16109,10094,10383,35492,29865,3
0,0,0,15996,10094,10359,35418,29627,3
0,0,0,15900,10049,10348,35309,29450,3
0,0,0,15868,10049,10348,35199,29274,3
0,0,0,15821,10026,10348,35091,29042,3
0,0,0,15916,10003,10441,35345,28898,3
0,0,0,16157,10003,10464,35455,28955,3
0,0,0,16287,10003,10441,35345,28984,3
0,0,0,16238,10003,10383,35199,28984,3
0,0,0,16254,10003,10313,35055,28927,3
0,0,0,16222,10003,10278,34839,28812,3
0,0,0,16189,10014,10255,34874,28898,3
0,0,0,16222,10026,10267,34910,28869,3
0,0,0,16189,10026,10244,34910,28754,3
0,0,0,16157,10037,10221,34910,28840,3
0,0,0,16125,10037,10163,34982,28754,3
0,0,0,16125,10049,10117,35272,28869,3
0,0,0,16157,10071,10083,35382,28812,3
0,0,0,16222,10049,10071,35492,28812,3
0,0,0,16254,10071,10071,35492,28697,3
0,0,0,16238,10071,10083,35455,28783,3
0,0,0,16254,10071,10094,35528,28812,3
0,0,0,16271,10071,10117,35639,28669,3
0,0,0,16254,10083,10117,35639,28612,3
0,0,0,16287,10083,10117,35602,28640,3
0,0,0,16238,10071,10140,35565,28697,3
0,0,0,16254,10071,10117,35602,28697,3
0,0,0,16303,10083,10117,35455,28697,3
0,0,0,16303,10083,10094,35602,28583,3
0,0,0,16352,10071,10094,35565,28583,3
0,0,0,16303,10094,10094,35418,28583,3
0,0,0,16417,10117,10071,35418,28669,3
0,0,0,16483,10117,10071,35418,28697,3
0,0,0,16549,10117,10071,35492,28527,3
0,0,0,16615,10129,10049,35565,28583,3
0,0,0,16648,10129,10037,35935,28697,3
0,0,0,16648,10140,10049,36010,28726,3
0,0,0,16681,10117,10071,36047,28640,3
0,0,0,16715,10163,10071,36576,28812,3
0,0,0,16781,10186,10083,36614,28869,3
0,0,0,16815,10186,10140,36998,28840,3
0,0,0,16781,10163,10094,36499,28726,3
0,0,0,16765,10163,10049,36085,28726,3
0,0,0,16882,10209,10060,35935,28697,3
0,0,0,17478,10255,10071,35749,28697,3
0,0,0,17933,10301,10083,35345,28812,3
0,0,0,18022,10301,10094,35199,28840,3
0,0,0,18129,10325,10129,35199,28812,3
0,0,0,18057,10301,10163,35199,28812,3
0,0,0,18057,10267,10163,35345,28869,3
0,0,0,18111,10255,10163,35163,28927,3
0,0,0,18236,10255,10174,35309,28869,3
0,0,0,18435,10301,10186,35127,28869,3
0,0,0,18635,10313,10174,34982,28840,3
0,0,0,18599,10325,10221,35018,28927,3
0,0,0,18562,10336,10511,34910,29071,3
0,0,0,18562,10348,10843,35018,29597,3
0,0,0,18581,10313,10748,34946,29657,3
0,0,0,18635,10301,10748,34982,29657,3
0,0,0,18635,10325,10712,34839,29627,3
0,0,0,18599,10325,10688,34660,29568,3
0,0,0,18599,10336,10676,34412,29391,3
0,0,0,18562,10325,10582,34130,29100,3
0,0,0,18544,10359,10488,33714,28812,3
0,0,0,18508,10383,10394,33439,28726,3
0,0,0,18526,10406,10394,33303,28754,3
0,0,0,18562,10394,10418,33269,28640,3
0,0,0,18581,10394,10406,33303,28583,3
0,0,0,18562,10394,10394,33371,28812,3
0,0,0,18562,10371,10359,33576,28697,3
0,0,0,18599,10394,10313,33508,28640,3
0,0,0,18562,10371,10301,33474,28640,3
0,0,0,18581,10394,10267,33474,28583,3
0,0,0,18508,10418,10244,33303,28527,3
0,0,0,18453,10418,10255,33439,28640,3
0,0,0,18471,10441,10232,33337,28583,3
0,0,0,18453,10418,10255,33337,28555,3
0,0,0,18435,10441,10394,33508,28583,3
0,0,0,18417,10394,10535,33474,28754,3
0,0,0,18417,10406,10488,33439,28697,3
0,0,0,18417,10406,10453,33474,28869,3
0,0,0,18417,10418,10441,33371,28754,3
0,0,0,18435,10418,10418,33508,28869,3
0,0,0,18435,10406,10418,33371,28812,3
0,0,0,18380,10441,10418,33371,28869,3
0,0,0,18417,10441,10371,33439,28812,3
0,0,0,18380,10441,10301,33508,29274,3
0,0,0,18417,10441,10255,33439,29333,3
0,0,0,18417,10441,10255,33508,29509,3
0,0,0,18453,10441,10255,33508,29509,3
0,0,0,18489,10453,10232,33576,29509,3
0,0,0,18453,10441,10232,33508,29509,3
0,0,0,18435,10464,10255,33576,29568,3
0,0,0,18489,10453,10232,33576,29450,3
0,0,0,18489,10488,10209,33474,29450,3
0,0,0,18508,10464,10209,33474,29538,3
0,0,0,18508,10464,10186,33508,29627,3
0,0,0,18489,10499,10209,33508,29805,3
0,0,0,18508,10488,10209,33474,29716,3
0,0,0,18453,10511,10209,33371,29716,3
0,0,0,18435,10535,10255,33303,29627,3
0,0,0,18435,10523,10278,33303,29865,3
0,0,0,18489,10523,10278,33168,29925,3
0,0,0,18489,10499,10267,33134,29835,3
0,0,0,18508,10499,10255,33236,29925,3
0,0,0,18526,10499,10267,33236,29865,3
0,0,0,18562,10535,10267,33168,29805,3
0,0,0,18508,10546,10255,33202,29895,3
0,0,0,18562,10546,10267,33202,29805,3
0,0,0,18508,10535,10255,33236,29805,3
0,0,0,18508,10546,10301,33134,29835,3
0,0,0,18508,10535,10267,33067,29775,3
0,0,0,18508,10535,10301,33168,29746,3
0,0,0,18489,10535,10301,33236,29805,3
0,0,0,18417,10488,10267,32932,30015,3
0,0,0,18453,10499,10209,33337,30226,3
0,0,0,18362,10546,10209,33645,30469,3
0,0,0,18308,10700,10186,33576,30622,3
0,0,0,18272,10819,10232,33991,30591,3
0,0,0,18272,10831,10278,34200,30684,3
0,0,0,18236,10843,10278,34060,30469,3
0,0,0,18236,10819,10301,34165,30408,3
0,0,0,18182,10819,10301,34200,30499,3
0,0,0,18182,10795,10301,34271,30438,3
0,0,0,18164,10819,10325,34200,30347,3
0,0,0,18200,10819,10359,34412,30377,3
0,0,0,18147,10819,10418,34518,30408,3
0,0,0,18200,10819,10441,34341,30317,3
0,0,0,18236,10831,10441,34130,30226,3
0,0,0,18272,10819,10429,34026,30226,3
0,0,0,18272,10819,10418,33956,30165,3
0,0,0,18236,10795,10359,33887,30195,3
0,0,0,18308,10783,10313,33852,30165,3
0,0,0,18308,10939,10278,33991,30226,3
0,0,0,18290,11170,10267,33783,30226,3
0,0,0,18272,11231,10255,33921,30226,3
0,0,0,18200,11133,10221,33852,30105,3
0,0,0,18200,10999,10174,33714,29984,3
0,0,0,18200,10975,10174,33714,29865,3
0,0,0,18164,11012,10209,33576,29925,3
0,0,0,18200,11133,10301,33679,30045,3
0,0,0,18236,11503,10406,33783,29984,3
0,0,0,18200,11906,10453,33748,29895,3
0,0,0,18236,11983,10488,33852,29955,3
0,0,0,18236,12060,10499,33783,29895,3
0,0,0,18200,11906,10499,33714,29865,3
0,0,0,18200,11855,10488,33748,29895,3
0,0,0,18200,11804,10511,33852,29805,3
0,0,0,18164,11779,10511,33714,29865,3
0,0,0,18200,11754,10499,33714,29775,3
0,0,0,18218,11804,10511,33645,29805,3
0,0,0,18236,11817,10535,33748,29805,3
0,0,0,18272,11855,10546,33783,29835,3
0,0,0,18254,11855,10546,33714,29895,3
0,0,0,18272,11855,10546,33576,29925,3
0,0,0,18272,11868,10535,33542,29865,3
0,0,0,18236,11830,10535,33576,29865,3
0,0,0,18236,11855,10558,33645,29984,3
0,0,0,18236,11842,10546,33611,29895,3
0,0,0,18254,11855,10582,33714,29865,3
0,0,0,18218,11855,10617,33783,29805,3
0,0,0,18200,11855,10605,33748,29746,3
0,0,0,18236,11868,10641,33783,29716,3
0,0,0,18236,11906,10771,33852,29895,3
0,0,0,18200,11957,10843,33852,29865,3
0,0,0,18164,11881,10795,33817,29865,3
0,0,0,18200,11881,10771,33714,29746,3
0,0,0,18182,11906,10771,33679,29775,3
0,0,0,18200,11919,10795,33714,29746,3
0,0,0,18200,11919,10795,33852,29716,3
0,0,0,18200,11932,10795,33714,29627,3
0,0,0,18200,11932,10771,33679,29657,3
0,0,0,18200,11919,10795,33783,29746,3
0,0,0,18200,11957,10867,33852,29984,3
0,0,0,18200,11996,10915,33783,29805,3
0,0,0,18218,11983,10915,33748,29746,3
0,0,0,18272,12009,10915,33645,29686,3
0,0,0,18272,11957,10915,33576,29686,3
0,0,0,18272,11983,10879,33474,29509,3
0,0,0,18272,11957,10915,33508,29509,3
0,0,0,18236,11957,10915,33576,29538,3
0,0,0,18236,11983,10927,33474,29509,3
0,0,0,18272,12009,10939,33474,29509,3
0,0,0,18236,11970,10939,33508,29509,3
0,0,0,18236,11983,10963,33542,29450,3
0,0,0,18236,12009,10963,33542,29479,3
0,0,0,18254,12009,10963,33576,29509,3
0,0,0,18254,12009,10963,33508,29450,3
0,0,0,18290,11983,10939,33576,29421,3
0,0,0,18272,11957,10939,33542,29509,3
0,0,0,18272,11996,10915,33474,29509,3
0,0,0,18290,11957,10927,33576,29450,3
0,0,0,18236,11983,10963,33542,29568,3
0,0,0,18236,11983,10963,33679,29686,3
0,0,0,18254,12021,10963,33611,29597,3
0,0,0,18272,11996,10987,33748,29568,3
0,0,0,18272,12009,10975,33748,29627,3
0,0,0,18272,12021,10987,33714,29568,3
0,0,0,18236,12021,10987,33714,29509,3
0,0,0,18236,12009,10975,33679,29509,3
0,0,0,18236,12009,11012,33679,29509,3
0,0,0,18236,12021,11060,33748,29479,3
0,0,0,18236,12009,11072,33714,29538,3
0,0,0,18236,12021,11072,33645,29568,3
0,0,0,18200,12009,11072,33748,29509,3
0,0,0,18200,11983,11109,33852,29538,3
0,0,0,18200,12009,11084,33714,29509,3
0,0,0,18290,11754,10843,33611,29775,3
0,0,0,18417,11465,10605,33645,29746,3
0,0,0,18562,11255,10453,33236,29746,3
0,0,0,18562,11133,10418,33067,29657,3
0,0,0,18562,11036,10394,33134,29627,3
0,0,0,18562,10903,10313,33033,29509,3
0,0,0,18562,10819,10255,33067,29391,3
0,0,0,18489,10771,10209,33100,29333,3
0,0,0,18471,10724,10209,32999,29158,3
0,0,0,18326,10676,10221,32633,29216,3
0,0,0,18022,10676,10221,32108,29187,3
0,0,0,17792,10688,10209,32043,29538,3
0,0,0,17704,10676,10255,31849,29568,3
0,0,0,17669,10700,10255,31656,29568,3
0,0,0,17634,10676,10348,31593,30165,3
0,0,0,17565,10688,10348,31593,30408,3
0,0,0,17565,10700,10301,31913,30745,3
0,0,0,17513,10688,10348,31913,30715,3
0,0,0,17495,10700,10371,31978,30591,3
0,0,0,17478,10724,10348,32238,30226,3
0,0,0,17513,10700,10371,32108,29538,3
0,0,0,17478,10676,10371,31849,28357,3
0,0,0,17461,10676,10371,31752,28161,3
0,0,0,17461,10676,10406,31785,27663,3
0,0,0,17426,10700,10464,31849,27202,3
0,0,0,17426,10712,10488,31817,27202,3
0,0,0,17426,10712,10488,32043,27122,3
0,0,0,17409,10724,10464,32140,27148,3
0,0,0,17443,10724,10464,32108,27095,3
0,0,0,17409,10724,10464,32173,27095,3
0,0,0,17392,10748,10464,32140,27095,3
0,0,0,17374,10748,10476,32238,27095,3
0,0,0,17357,10771,10499,32369,27095,3
0,0,0,17392,10795,10511,32271,27041,3
0,0,0,17374,10795,10511,32303,26988,3
0,0,0,17374,10819,10535,32435,27041,3
0,0,0,17357,10831,10535,32435,27068,3
0,0,0,17357,10855,10546,32369,27041,3
0,0,0,17340,10867,10558,32369,27041,3
0,0,0,17357,10867,10535,32369,26961,3
0,0,0,17340,10879,10535,32303,27068,3
0,0,0,17374,10879,10535,32271,26988,3
0,0,0,17323,10879,10535,32369,27015,3
0,0,0,17306,10879,10511,32303,27068,3
0,0,0,17323,10903,10535,32402,27041,3
0,0,0,17306,10915,10546,32435,27041,3
0,0,0,17357,10939,10546,32467,27041,3
0,0,0,17323,10927,10546,32500,26988,3
0,0,0,17323,10963,10558,32533,26988,3
0,0,0,17323,10927,10582,32566,26988,3
0,0,0,17306,10963,10558,32566,27041,3
0,0,0,17306,10963,10582,32566,26935,3
0,0,0,17306,10951,10558,32500,26988,3
0,0,0,17289,10951,10546,32402,26988,3
0,0,0,17289,10963,10570,32467,26882,3
0,0,0,17289,10963,10582,32633,26935,3
0,0,0,17306,10939,10582,32599,26935,3
0,0,0,17289,10975,10582,32402,27041,3
0,0,0,17289,10927,10582,32369,27041,3
0,0,0,17306,10939,10546,32336,26988,3
0,0,0,17272,10963,10546,32303,27041,3
0,0,0,17289,10927,10535,32402,27015,3
0,0,0,17289,10927,10535,32336,27041,3
0,0,0,17306,10891,10499,32369,27609,3
0,0,0,17323,10819,10535,32402,28133,3
0,0,0,17152,10771,10535,32435,28414,3
0,0,0,16882,10748,10605,32666,28697,3
0,0,0,16615,10676,10724,33576,28927,3
0,0,0,16417,10594,10879,33991,29187,3
0,0,0,16287,10546,10963,34095,29216,3
0,0,0,16093,10499,11036,34200,29333,3
0,0,0,15726,10441,10927,33921,29216,3
0,0,0,15397,10348,10535,33748,29042,3
0,0,0,15304,10255,10209,33371,29013,3
0,0,0,15288,10186,10049,33236,28869,3
0,0,0,15288,10117,9980,33269,28754,3
0,0,0,15258,10083,9935,33303,28726,3
0,0,0,15135,10026,9901,33337,28555,3
0,0,0,15058,10003,9935,33033,28133,3
0,0,0,14937,10003,9958,33474,27718,3
0,0,0,14922,9980,10026,34341,27256,3
0,0,0,14876,9980,10071,34946,27095,3
0,0,0,14907,9980,10060,35345,27256,3
0,0,0,14907,9980,10071,35712,27364,3
0,0,0,14907,10003,10071,35787,27499,3
0,0,0,14907,10026,10094,35528,27391,3
0,0,0,14907,10026,10083,35492,27445,3
0,0,0,14907,10003,10094,35345,27499,3
0,0,0,14937,10003,10094,35272,27472,3
0,0,0,14967,10003,10071,35382,27691,3
0,0,0,14982,9980,10071,35492,27609,3
0,0,0,15028,9980,10049,35602,27691,3
0,0,0,15028,10003,10083,35418,27609,3
0,0,0,15028,10026,10049,35345,27581,3
0,0,0,15028,10003,10026,35163,27554,3
0,0,0,15013,10026,10026,35018,27527,3
0,0,0,15028,10003,10026,35018,27527,3
0,0,0,14967,10026,10026,34839,27581,3
0,0,0,14967,10003,10026,34839,27581,3
0,0,0,14982,10026,10026,34839,27472,3
0,0,0,14982,10003,10037,34839,27527,3
0,0,0,15028,10049,10049,34874,27472,3
0,0,0,15058,10049,10037,34839,27364,3
0,0,0,15119,10037,10037,34839,27364,3
0,0,0,15089,10049,10037,34874,27310,3
0,0,0,15119,10049,10026,34874,27310,3
0,0,0,15119,10071,10037,34839,27364,3
0,0,0,15104,10060,10026,34839,27337,3
0,0,0,15089,10071,10026,34839,27391,3
0,0,0,15074,10060,10026,34803,27364,3
0,0,0,15119,10071,10049,34910,27364,3
0,0,0,15119,10071,10026,34982,27256,3
0,0,0,15119,10037,10049,34946,27364,3
0,0,0,15119,10026,10026,34839,27283,3
0,0,0,15119,10049,10049,34767,27175,3
0,0,0,15135,10049,10026,34696,27041,3
0,0,0,15104,10037,10026,34660,27122,3
0,0,0,15119,10071,10049,34660,27095,3
0,0,0,15119,10049,10037,34696,26961,3
0,0,0,15104,10060,10026,34553,26988,3
0,0,0,15104,10037,10014,34553,26961,3
0,0,0,15104,10037,10014,34518,26961,3
0,0,0,15028,10026,9980,34447,26988,3
0,0,0,15028,10026,9946,34341,26882,3
0,0,0,14967,10037,9912,34341,26829,3
0,0,0,14967,10026,9890,34235,26802,3
0,0,0,14922,10026,9890,34130,26723,3
0,0,0,14922,10026,9890,34130,26723,3
0,0,0,14922,10026,9890,34130,26670,3
0,0,0,14922,10026,9890,34060,26697,3
0,0,0,14907,10026,9890,34026,26723,3
0,0,0,14907,10026,9901,33921,26644,3
0,0,0,14907,10026,9901,33956,26723,3
0,0,0,14922,10003,9890,33991,26670,3
0,0,0,14907,10026,9890,34026,26670,3
0,0,0,14876,10026,9901,33921,26670,3
0,0,0,14891,10026,9924,33921,26618,3
0,0,0,14907,10026,9935,33783,26644,3
0,0,0,14907,10026,9935,33887,26566,3
0,0,0,14922,10003,9946,33887,26670,3
0,0,0,14876,10014,9935,33783,26618,3
0,0,0,14876,10003,9935,33783,26644,3
0,0,0,14876,10014,9935,33783,26618,3
0,0,0,14876,9980,9946,33714,26644,3
0,0,0,14891,10003,9958,33714,26592,3
0,0,0,14876,9980,9958,33714,26566,3
0,0,0,14861,10003,9980,33748,26802,3
0,0,0,14876,10003,9992,33679,27148,3
0,0,0,14907,9980,10083,33679,27256,3
0,0,0,14891,10003,10255,33714,28301,3
0,0,0,14876,10003,10267,33611,28869,3
0,0,0,14937,10037,10267,33783,29538,3
0,0,0,14922,10049,10267,33576,29746,3
0,0,0,14937,10037,10301,33439,29865,3
0,0,0,14997,10026,10441,33714,29865,3
0,0,0,15043,10037,10406,33576,29955,3
0,0,0,15028,10026,10394,33576,29925,3
0,0,0,15043,10026,10325,33474,29775,3
0,0,0,14967,10026,10348,33611,29391,3
0,0,0,14876,10003,10441,33474,28955,3
0,0,0,14801,10026,10535,33542,28640,3
0,0,0,14756,10003,10511,33168,28357,3
0,0,0,14756,9992,10488,32799,28555,3
0,0,0,14801,9980,10464,32271,28669,3
0,0,0,14846,9980,10488,32043,28697,3
0,0,0,14876,10003,10441,31978,28470,3
0,0,0,14907,9980,10313,31752,27527,3
0,0,0,14997,10003,10255,31402,25996,3
0,0,0,15150,10049,10278,31213,25691,3
0,0,0,15288,10071,10394,31213,25971,3
0,0,0,15459,10117,10441,31402,27148,3
0,0,0,15553,10163,10441,31465,27418,3
0,0,0,15647,10209,10418,31402,27691,3
0,0,0,15615,10255,10441,31529,27581,3
0,0,0,15584,10301,10488,31720,27636,3
0,0,0,15584,10301,10511,31913,27828,3
0,0,0,15678,10278,10464,31946,27856,3
0,0,0,15821,10255,10453,32108,27994,3
0,0,0,15932,10255,10464,32238,28189,3
0,0,0,16028,10267,10441,32699,28583,3
0,0,0,15996,10406,10558,32899,28669,3
0,0,0,16028,10819,10975,33033,28527,3
0,0,0,15980,11157,11109,32932,28414,3
0,0,0,15996,11553,11084,32832,28329,3
0,0,0,15964,12215,11206,32866,28189,3
0,0,0,15964,12797,11354,32899,28189,3
0,0,0,15964,12918,11453,32832,28105,3
0,0,0,15964,12905,11540,32832,28133,3
0,0,0,15900,12797,11515,32765,28022,3
0,0,0,15868,12703,11503,32699,28022,3
0,0,0,15852,12676,11465,32832,28049,3
0,0,0,15900,12690,11478,32699,27994,3
0,0,0,15900,12596,11515,32799,27911,3
0,0,0,15948,12570,11503,32765,27800,3
0,0,0,15900,12424,11478,32832,27800,3
0,0,0,15932,12346,11428,32765,27883,3
0,0,0,15964,12320,11416,32732,27856,3
0,0,0,15964,12320,11440,32765,28022,3
0,0,0,15996,12320,11478,32765,27800,3
0,0,0,16060,12215,11453,32932,28022,3
0,0,0,16028,12124,11428,32799,28357,3
0,0,0,16044,12086,11428,32832,28357,3
0,0,0,16028,12060,11416,32765,28217,3
0,0,0,15996,12073,11403,32799,27966,3
0,0,0,15996,12060,11403,32666,27911,3
0,0,0,15980,12073,11403,32666,27911,3
0,0,0,15964,12073,11403,32666,27800,3
0,0,0,15964,11957,11280,32633,27581,3
0,0,0,15884,11354,10915,32633,27527,3
0,0,0,15868,10939,10582,32402,27609,3
0,0,0,15837,10771,10441,32500,27554,3
0,0,0,15789,10676,10301,32500,27636,3
0,0,0,15900,10535,10129,32303,27581,3
0,0,0,15980,10394,10026,32303,27581,3
0,0,0,15996,10301,9958,32140,27718,3
0,0,0,16012,10255,9912,32238,28245,3
0,0,0,15996,10221,9890,32205,28612,3
0,0,0,15900,10209,9890,32108,28612,3
0,0,0,15900,10186,9890,32108,28583,3
0,0,0,15837,10163,9890,31849,28583,3
0,0,0,15821,10163,9890,31817,28583,3
0,0,0,15837,10186,9901,31656,28498,3
0,0,0,15789,10163,9935,31720,28527,3
0,0,0,15837,10163,9935,31561,28470,3
0,0,0,15852,10174,9980,30838,27966,3
0,0,0,15900,10163,10003,29955,27472,3
0,0,0,15964,10163,10049,28984,27041,3
0,0,0,15916,10209,10117,28189,26566,3
0,0,0,15948,10209,10140,27691,26022,3
0,0,0,15900,10197,10232,27581,25920,3
0,0,0,15900,10209,10267,27527,25742,3
0,0,0,16044,10209,10232,27527,25894,3
0,0,0,16254,10209,10163,27527,25843,3
0,0,0,16417,10209,10129,27691,25793,3
0,0,0,16549,10209,10094,27718,25793,3
0,0,0,16565,10186,10094,27828,25641,3
0,0,0,16615,10174,10071,27745,25641,3
0,0,0,16648,10174,10071,27691,25616,3
0,0,0,16681,10174,10071,27745,25591,3
0,0,0,16434,10163,10071,28583,25641,3
0,0,0,16287,10186,10094,29509,26461,3
0,0,0,16303,10163,10094,30256,27095,3
0,0,0,16287,10140,10117,29925,26776,3
0,0,0,16287,10163,10163,29538,26513,3
0,0,0,16254,10140,10174,29538,26435,3
0,0,0,16238,10174,10209,29538,26409,3
0,0,0,16157,10140,10209,29746,26461,3
0,0,0,16093,10163,10221,29627,26461,3
0,0,0,16141,10163,10221,29421,26305,3
0,0,0,16093,10163,10232,29421,26253,3
0,0,0,16093,10163,10221,29391,26253,3
0,0,0,16093,10163,10255,29333,26228,3
0,0,0,16060,10163,10255,29304,26176,3
0,0,0,16060,10186,10267,29333,26202,3
0,0,0,16060,10163,10255,29362,26202,3
0,0,0,16028,10186,10278,29450,26253,3
0,0,0,15964,10174,10301,29450,26305,3
0,0,0,15964,10186,10301,29391,26202,3
0,0,0,15932,10186,10301,29391,26099,3
0,0,0,15916,10163,10301,29391,26047,3
0,0,0,15837,10186,10301,29391,26099,3
0,0,0,15837,10186,10301,29274,25894,3
0,0,0,15837,10186,10301,29450,25793,3
0,0,0,15837,10186,10301,29391,25793,3
0,0,0,15789,10209,10325,29450,25691,3
0,0,0,15773,10197,10313,29362,25641,3
0,0,0,15726,10186,10325,29391,25641,3
0,0,0,15647,10209,10325,29333,25616,3
0,0,0,15647,10209,10325,29333,25591,3
0,0,0,15584,10209,10313,29421,25540,3
0,0,0,15475,10186,10325,29391,25490,3
0,0,0,15304,10186,10325,29657,25591,3
0,0,0,15089,10163,10325,29865,25793,3
0,0,0,14922,10163,10313,29955,25666,3
0,0,0,14786,10129,10325,29925,25666,3
0,0,0,14666,10117,10359,30105,25691,3
0,0,0,14636,10117,10348,30105,25515,3
0,0,0,14547,10117,10348,30347,25666,3
0,0,0,14488,10094,10394,30591,25616,3
0,0,0,14444,10094,10406,30900,25691,3
0,0,0,14385,10071,10488,31056,25818,3
0,0,0,14341,10071,10488,31465,25996,3
0,0,0,14311,10071,10535,31849,25843,3
0,0,0,14311,10049,10546,32566,25894,3
0,0,0,14370,10049,10641,32899,26253,3
0,0,0,14370,10026,10748,32899,26435,3
0,0,0,14326,10026,10783,32899,26566,3
0,0,0,14341,10026,10783,32765,26409,3
0,0,0,14326,10026,10605,32303,26150,3
0,0,0,14444,10037,10488,32238,25945,3
0,0,0,14488,10049,10488,32435,25894,3
0,0,0,14488,10071,10453,32599,25971,3
0,0,0,14458,10140,10418,32866,25894,3
0,0,0,14488,10174,10394,32966,25996,3
0,0,0,14458,10267,10418,32899,25894,3
0,0,0,14458,10325,10429,33100,25894,3
0,0,0,14488,10371,10418,33134,25843,3
0,0,0,14444,10325,10371,33067,25793,3
0,0,0,14458,10267,10313,33033,25767,3
0,0,0,14488,10267,10301,33303,26022,3
0,0,0,14741,10255,10278,33748,26357,3
0,0,0,14967,10244,10278,34696,26566,3
0,0,0,15058,10255,10255,34767,26723,3
0,0,0,15165,10255,10232,34553,26670,3
0,0,0,15150,10255,10232,34200,26409,3
0,0,0,15165,10232,10232,33991,25996,3
0,0,0,15150,10255,10232,33991,26047,3
0,0,0,15211,10255,10232,33887,26435,3
0,0,0,15211,10255,10232,34026,26202,3
0,0,0,15242,10255,10255,33991,26124,3
0,0,0,15273,10255,10255,33991,26073,3
0,0,0,15319,10232,10244,34200,25996,3
0,0,0,15335,10232,10255,34271,26202,3
0,0,0,15335,10209,10255,34412,26305,3
0,0,0,15335,10221,10313,34412,26618,3
0,0,0,15335,10186,10371,34482,26566,3
0,0,0,15335,10197,10348,34306,26487,3
0,0,0,15335,10209,10348,34200,26461,3
0,0,0,15381,10209,10325,34482,26279,3
0,0,0,15537,10209,10325,34839,26357,3
0,0,0,15584,10209,10325,34946,26618,3
0,0,0,15521,10221,10348,34839,26618,3
0,0,0,15553,10232,10394,34731,26670,3
0,0,0,15506,10221,10406,34518,26566,3
0,0,0,15490,10221,10406,34696,27095,3
0,0,0,15490,10232,10488,35163,27041,3
0,0,0,15521,10232,10629,35127,27581,3
0,0,0,15615,10209,10927,35749,28583,3
0,0,0,15663,10221,11012,35898,28754,3
0,0,0,15663,10221,11219,35712,29775,3
0,0,0,15647,10221,11440,35824,30256,3
0,0,0,15726,10232,11653,35749,31720,3
0,0,0,15663,10255,12202,35935,31913,3
0,0,0,15710,10255,12009,35712,31087,3
0,0,0,15663,10255,12034,35935,30776,3
0,0,0,15663,10267,12009,35712,30745,3
0,0,0,15710,10359,11072,35163,30962,3
0,0,0,15741,10429,10676,34839,30869,3
0,0,0,15726,10441,10676,34767,30776,3
0,0,0,15741,10464,10653,34910,30653,3
0,0,0,15710,10499,10582,34767,30347,3
0,0,0,15694,10535,10418,34624,30165,3
0,0,0,15647,10535,10278,34412,29955,3
0,0,0,15631,10535,10267,34341,29865,3
0,0,0,15615,10523,10301,34341,29805,3
0,0,0,15615,10488,10278,34412,29746,3
0,0,0,15600,10511,10301,34412,29835,3
0,0,0,15615,10499,10313,34696,30165,3
0,0,0,15600,10499,10313,34553,29984,3
0,0,0,15584,10499,10348,34341,29805,3
0,0,0,15615,10499,10348,34412,29746,3
0,0,0,15600,10488,10325,34376,29805,3
0,0,0,15647,10488,10313,34341,29716,3
0,0,0,15647,10488,10313,34165,29657,3
0,0,0,15647,10488,10325,34271,29686,3
0,0,0,15615,10499,10313,34341,29627,3
0,0,0,15647,10535,10325,34341,29805,3
0,0,0,15663,10535,10325,34341,29865,3
0,0,0,15647,10535,10325,34412,29775,3
0,0,0,15663,10535,10325,34341,29657,3
0,0,0,15678,10535,10325,34271,29450,3
0,0,0,15663,10535,10313,34271,29450,3
0,0,0,15647,10535,10301,34341,29333,3
0,0,0,15647,10535,10325,34200,29362,3
0,0,0,15647,10546,10348,34553,29538,3
0,0,0,15647,10558,10394,34412,29333,3
0,0,0,15663,10558,10406,34341,29042,3
0,0,0,15710,10546,10371,34271,28869,3
0,0,0,15615,10546,10313,34235,28583,3
0,0,0,15631,10558,10255,34341,28470,3
0,0,0,15647,10570,10255,34271,28357,3
0,0,0,15647,10558,10255,34271,28583,3
0,0,0,15647,10582,10278,34341,28414,3
0,0,0,15647,10570,10267,34341,28245,3
0,0,0,15647,10558,10278,34482,28105,3
0,0,0,15647,10582,10278,34306,27911,3
0,0,0,15647,10582,10301,34341,27828,3
0,0,0,15647,10582,10278,34412,27883,3
0,0,0,15615,10558,10255,34376,27800,3
0,0,0,15615,10582,10255,34341,27828,3
0,0,0,15584,10582,10267,34341,27966,3
0,0,0,15615,10582,10267,34412,27966,3
0,0,0,15647,10582,10278,34482,27966,3
0,0,0,15647,10570,10313,34341,28022,3
0,0,0,15584,10582,10313,34200,27966,3
0,0,0,15584,10582,10313,34130,27800,3
0,0,0,15631,10582,10336,34235,27939,3
0,0,0,15647,10582,10325,34130,27856,3
0,0,0,15837,10546,10301,34200,27718,3
0,0,0,15900,10558,10301,34095,27718,3
0,0,0,16157,10558,10301,34060,27718,3
0,0,0,16385,10582,10301,34026,27745,3
0,0,0,16532,10570,10301,33887,27856,3
0,0,0,16582,10582,10301,33852,27773,3
0,0,0,16648,10582,10313,33921,27691,3
0,0,0,16715,10594,10359,34130,28022,3
0,0,0,16949,10605,10371,34624,28301,3
0,0,0,17050,10653,10348,34447,28245,3
0,0,0,17050,10676,10313,34482,28105,3
0,0,0,17084,10629,10278,34341,27966,3
0,0,0,17016,10629,10255,34200,27911,3
0,0,0,17135,10629,10255,34271,27911,3
0,0,0,17169,10629,10255,34235,27911,3
0,0,0,17169,10641,10255,34200,27911,3
0,0,0,17220,10653,10255,34200,27911,3
0,0,0,17186,10688,10267,34130,27883,3
0,0,0,17220,10676,10255,34130,27800,3
0,0,0,17220,10676,10278,33991,27800,3
0,0,0,17152,10641,10267,33921,27800,3
0,0,0,17186,10582,10267,33921,27800,3
0,0,0,17169,10535,10255,33887,27800,3
0,0,0,17220,10511,10255,33887,27663,3
0,0,0,17169,10511,10255,33852,27718,3
0,0,0,17152,10511,10267,33714,27636,3
0,0,0,17152,10535,10290,33783,27745,3
0,0,0,17152,10535,10278,33852,27745,3
0,0,0,17186,10535,10301,33852,27773,3
0,0,0,17101,10535,10278,33748,27472,3
0,0,0,17101,10546,10267,33748,27364,3
0,0,0,17084,10558,10267,33748,27256,3
0,0,0,17084,10582,10301,33611,27310,3
0,0,0,17084,10558,10278,33783,27472,3
0,0,0,17033,10582,10301,33817,27364,3
0,0,0,17050,10558,10325,33921,27554,3
0,0,0,17033,10535,10418,34095,27939,3
0,0,0,16999,10511,10441,34165,28022,3
0,0,0,16949,10488,10418,34130,27856,3
0,0,0,16966,10488,10394,34060,27718,3
0,0,0,16898,10499,10406,34095,27636,3
0,0,0,16949,10535,10441,34376,27828,3
0,0,0,16966,10511,10511,34412,27966,3
0,0,0,16949,10499,10546,34412,28022,3
0,0,0,16966,10511,10535,34235,28022,3
0,0,0,16999,10523,10535,34271,27966,3
0,0,0,16966,10511,10488,33991,27939,3
0,0,0,16966,10535,10488,33991,27800,3
0,0,0,16949,10535,10535,34376,28049,3
0,0,0,16949,10511,10582,34306,28077,3
0,0,0,16915,10511,10582,34271,27856,3
0,0,0,16882,10523,10582,34731,27745,3
0,0,0,16882,10488,10664,34731,27745,3
0,0,0,16848,10488,10724,34447,27828,3
0,0,0,16831,10488,10724,34341,27911,3
0,0,0,16882,10488,10724,34271,27966,3
0,0,0,16848,10488,10771,34271,27966,3
0,0,0,16831,10488,10891,34200,28217,3
0,0,0,16848,10535,10867,34200,28189,3
0,0,0,16815,10558,10903,34200,28133,3
0,0,0,16831,10558,10927,34271,28189,3
0,0,0,16765,10546,11060,34306,28329,3
0,0,0,16815,10546,11072,34306,28301,3
0,0,0,16831,10546,11084,34271,28357,3
0,0,0,16882,10546,11109,34271,28414,3
0,0,0,16848,10558,11133,34306,28498,3
0,0,0,16898,10558,11133,34341,28527,3
0,0,0,16915,10582,11157,34412,28498,3
0,0,0,16882,10570,11133,34376,28527,3
0,0,0,16949,10582,11157,34412,28470,3
0,0,0,16983,10629,11170,34553,28697,3
0,0,0,16882,10617,11206,34518,28583,3
0,0,0,16781,10629,11206,34412,28357,3
0,0,0,16681,10605,11206,34341,28301,3
0,0,0,16615,10605,11170,34271,28189,3
0,0,0,16582,10605,11157,34271,28189,3
0,0,0,16648,10617,11157,34341,28189,3
0,0,0,16615,10629,11133,34341,28133,3
0,0,0,16582,10605,11109,34341,28105,3
0,0,0,16681,10594,11121,34447,28133,3
0,0,0,16681,10582,11072,34341,28022,3
0,0,0,16681,10535,11060,34306,27994,3
0,0,0,16715,10546,11060,34271,27911,3
0,0,0,16698,10558,11060,34376,28022,3
0,0,0,16748,10558,11072,34306,27911,3
0,0,0,16781,10546,11036,34200,27911,3
0,0,0,16781,10546,11012,33991,27691,3
0,0,0,16781,10546,10963,33921,27609,3
0,0,0,16815,10582,10951,33921,27581,3
0,0,0,16848,10570,10975,34026,27718,3
0,0,0,16831,10605,11012,33991,27691,3
0,0,0,16831,10605,11012,33817,27636,3
0,0,0,16815,10605,11012,33714,27527,3
0,0,0,16815,10605,11024,33714,27418,3
0,0,0,16765,10605,10975,33714,27337,3
0,0,0,16781,10629,10748,33645,27175,3
0,0,0,16815,10629,10641,33611,27095,3
0,0,0,16831,10724,10629,33645,27041,3
0,0,0,16848,10700,10535,33576,27041,3
0,0,0,16815,10641,10301,33645,26961,3
0,0,0,16831,10558,10174,33576,26935,3
0,0,0,16815,10464,10129,33439,26935,3
0,0,0,16815,10394,10117,33371,26855,3
0,0,0,16765,10348,10106,33439,26829,3
0,0,0,16798,10301,10083,33337,26670,3
0,0,0,16781,10255,10094,33303,26644,3
0,0,0,16748,10255,10071,33371,26644,3
0,0,0,16815,10209,10071,33439,26513,3
0,0,0,16915,10209,10060,33508,25818,3
0,0,0,16882,10186,10071,33474,26150,3
0,0,0,16898,10186,10049,33576,25945,3
0,0,0,16915,10209,10060,33439,25691,3
0,0,0,16915,10209,10163,33337,25818,3
0,0,0,16915,10221,10197,33474,25996,3
0,0,0,16915,10209,10232,33337,25945,3
0,0,0,16882,10209,10278,33371,26099,3
0,0,0,16831,10209,10290,33474,26279,3
0,0,0,16831,10232,10267,33714,26383,3
0,0,0,16815,10232,10348,34060,26566,3
0,0,0,16815,10255,10394,33991,26461,3
0,0,0,16781,10255,10394,33783,26513,3
0,0,0,16765,10255,10488,33921,26670,3
0,0,0,16765,10255,10546,33921,26776,3
0,0,0,16781,10290,10535,33817,26829,3
0,0,0,16748,10301,10546,33956,26749,3
0,0,0,16715,10301,10535,33748,26618,3
0,0,0,16698,10301,10605,33817,26829,3
0,0,0,16681,10313,10629,33852,26776,3
0,0,0,16681,10325,10629,33887,26908,3
0,0,0,16681,10313,10676,33956,26935,3
0,0,0,16648,10325,10700,33921,26961,3
0,0,0,16632,10348,10759,33748,27175,3
0,0,0,16632,10371,10748,33748,27095,3
0,0,0,16632,10371,10736,33817,26988,3
0,0,0,16598,10348,10771,33714,27148,3
0,0,0,16681,10371,10724,33679,27095,3
0,0,0,16648,10383,10653,33645,26829,3
0,0,0,16648,10394,10535,33508,26644,3
0,0,0,16615,10394,10488,33508,26513,3
0,0,0,16681,10394,10453,33439,26435,3
0,0,0,16648,10394,10453,33371,26435,3
0,0,0,16632,10394,10441,33371,26409,3
0,0,0,16598,10394,10499,33371,26435,3
0,0,0,16632,10394,10511,33439,26566,3
0,0,0,16615,10406,10523,33371,26513,3
0,0,0,16582,10406,10499,33371,26644,3
0,0,0,16582,10418,10441,33371,26513,3
0,0,0,16549,10441,10464,33269,26305,3
0,0,0,16582,10418,10464,33269,26305,3
0,0,0,16549,10418,10535,33371,26461,3
0,0,0,16582,10418,10582,33405,26566,3
0,0,0,16615,10441,10582,33337,26566,3
0,0,0,16615,10441,10594,33474,26487,3
0,0,0,16615,10464,10582,33405,26487,3
0,0,0,16632,10453,10629,33439,26670,3
0,0,0,16615,10464,10676,33508,26670,3
0,0,0,16615,10488,10653,33439,26935,3
0,0,0,16615,10488,10629,33405,26723,3
0,0,0,16615,10488,10594,33371,26644,3
0,0,0,16615,10488,10605,33439,26670,3
0,0,0,16615,10488,10582,33371,26618,3
0,0,0,16582,10488,10594,33371,26644,3
0,0,0,16615,10488,10653,33576,26644,3
0,0,0,16681,10488,10688,33508,26644,3
0,0,0,16615,10488,10676,33576,26935,3
0,0,0,16615,10488,10676,33714,27202,3
0,0,0,16615,10464,10641,33611,26855,3
0,0,0,16632,10499,10629,33542,26829,3
0,0,0,16632,10488,10582,33508,26723,3
0,0,0,16615,10464,10582,33576,26776,3
0,0,0,16582,10453,10546,33508,26882,3
0,0,0,16582,10464,10535,33508,26855,3
0,0,0,16582,10453,10441,33508,26776,3
0,0,0,16549,10453,10348,33508,26723,3
0,0,0,16549,10453,10313,33508,26670,3
0,0,0,16598,10453,10313,33611,26749,3
0,0,0,16582,10441,10325,33645,26961,3
0,0,0,16632,10453,10336,33508,26961,3
0,0,0,16681,10453,10325,33714,26935,3
0,0,0,16648,10441,10313,33714,26935,3
0,0,0,16698,10453,10313,33714,27041,3
0,0,0,16748,10429,10325,33714,27095,3
0,0,0,16748,10418,10301,33783,27148,3
0,0,0,16765,10394,10301,33921,27175,3
0,0,0,16748,10371,10232,34060,26935,3
0,0,0,16765,10301,10209,34306,26882,3
0,0,0,16698,10267,10209,34341,26882,3
0,0,0,16615,10255,10209,34271,27041,3
0,0,0,16483,10232,10232,34306,27148,3
0,0,0,16385,10232,10267,34130,27256,3
0,0,0,16368,10221,10255,34200,27202,3
0,0,0,16303,10221,10301,34553,27256,3
0,0,0,16287,10232,10313,34482,27095,3
0,0,0,16222,10221,10406,34767,27856,3
0,0,0,16238,10255,10453,34696,28385,3
0,0,0,16222,10232,10441,34553,28640,3
0,0,0,16238,10255,10535,34696,29216,3
0,0,0,16222,10255,10570,34589,29421,3
0,0,0,16287,10267,10582,34589,29304,3
0,0,0,16254,10255,10771,35055,29686,3
0,0,0,16222,10255,10771,34130,29538,3
0,0,0,16206,10267,10748,34060,29391,3
0,0,0,16222,10244,10819,34060,29421,3
0,0,0,16238,10255,10843,33991,29304,3
0,0,0,16303,10255,10676,33714,29805,3
0,0,0,16303,10255,10464,33542,29805,3
0,0,0,16319,10278,10325,33508,29925,3
0,0,0,16417,10301,10209,33337,30045,3
0,0,0,16467,10255,10163,33134,30045,3
0,0,0,16499,10255,10117,33100,30165,3
0,0,0,16582,10232,10060,32932,30015,3
0,0,0,16582,10163,10026,33067,29984,3
0,0,0,16648,10117,10026,33067,29955,3
0,0,0,16615,10071,10003,33236,29716,3
0,0,0,16615,10003,10003,33236,29686,3
0,0,0,16582,10026,9980,33168,29597,3
0,0,0,16549,10003,9980,33100,29568,3
0,0,0,16615,10003,9958,32932,29479,3
0,0,0,16632,10014,9958,32899,29627,3
0,0,0,16681,10037,9958,32799,29686,3
0,0,0,16698,10049,9958,32765,29716,3
0,0,0,16882,10094,9980,32832,29686,3
0,0,0,16966,10117,9980,32866,29568,3
0,0,0,17033,10163,10003,32899,29509,3
0,0,0,17033,10174,10003,32765,29509,3
0,0,0,17016,10186,10026,32666,29421,3
0,0,0,17118,10163,10014,32467,29333,3
0,0,0,17152,10174,10003,32369,29304,3
0,0,0,17152,10163,9980,32369,29274,3
0,0,0,17084,10163,10003,32369,29187,3
0,0,0,17050,10163,9980,32336,29216,3
0,0,0,17050,10163,10003,32369,29274,3
0,0,0,17084,10163,9980,32303,29100,3
0,0,0,17084,10186,10003,32369,29216,3
0,0,0,17152,10163,10003,32271,29129,3
0,0,0,17186,10140,9980,32303,29100,3
0,0,0,17220,10140,9980,32303,29042,3
0,0,0,17306,10152,9980,32271,28984,3
0,0,0,17254,10163,9946,32303,28927,3
0,0,0,17237,10163,9958,32238,28869,3
0,0,0,17289,10129,9969,32173,28869,3
0,0,0,17254,10174,9958,32238,28754,3
0,0,0,17237,10163,9980,32108,28812,3
0,0,0,17186,10209,10003,32173,28840,3
0,0,0,17220,10232,10003,32108,28640,3
0,0,0,17186,10221,10014,32173,28783,3
0,0,0,17220,10244,10003,32140,28640,3
0,0,0,17186,10255,10003,32075,28669,3
0,0,0,17152,10244,10026,32108,28527,3
0,0,0,17118,10255,10026,32108,28498,3
0,0,0,17152,10267,10026,32173,28077,3
0,0,0,17152,10278,10049,32173,28022,3
0,0,0,17152,10278,10071,32108,27883,3
0,0,0,17152,10301,10094,32043,28049,3
0,0,0,17152,10301,10106,32140,28105,3
0,0,0,17169,10301,10117,32108,27911,3
0,0,0,17186,10301,10117,32108,28022,3
0,0,0,17220,10301,10117,32238,28245,3
0,0,0,17220,10301,10117,32369,28245,3
0,0,0,17169,10301,10117,32369,28217,3
0,0,0,17220,10278,10117,32369,28133,3
0,0,0,17186,10301,10117,32238,28133,3
0,0,0,17152,10301,10117,32238,28077,3
0,0,0,17118,10278,10129,32238,28049,3
0,0,0,17101,10278,10129,32303,28049,3
0,0,0,17118,10348,10163,32369,27911,3
0,0,0,17084,10348,10163,32271,27718,3
0,0,0,17084,10464,10313,32435,27911,3
0,0,0,17084,10418,10301,32435,27939,3
0,0,0,17101,10418,10301,32435,27828,3
0,0,0,17118,10394,10255,32402,27883,3
0,0,0,17084,10371,10278,32402,27911,3
0,0,0,17050,10371,10301,32402,27966,3
0,0,0,17084,10394,10301,32500,28189,3
0,0,0,17084,10348,10348,32633,28414,3
0,0,0,16983,10348,10511,32500,28640,3
0,0,0,16966,10371,10582,32666,28669,3
0,0,0,17016,10359,10771,32369,28898,3
0,0,0,17050,10394,10795,32500,28869,3
0,0,0,17118,10418,10771,32666,28955,3
0,0,0,17220,10418,10724,33067,29071,3
0,0,0,17495,10453,10700,33921,29362,3
0,0,0,17704,10488,10748,34482,29568,3
0,0,0,17669,10429,10724,34447,29450,3
0,0,0,17669,10441,10629,34271,29362,3
0,0,0,17634,10441,10464,34271,29274,3
0,0,0,17565,10464,10301,34060,29216,3
0,0,0,17652,10582,10163,33991,29274,3
0,0,0,17704,10605,10094,33921,29304,3
0,0,0,17792,10594,10026,33817,29333,3
0,0,0,17792,10511,9901,33817,29304,3
0,0,0,17722,10453,9912,33611,29158,3
0,0,0,17704,10418,9935,33508,29158,3
0,0,0,17634,10441,9912,33439,29216,3
0,0,0,17600,10499,9935,33371,29042,3
0,0,0,17565,10523,9980,33303,28984,3
0,0,0,17565,10488,9980,33303,29013,3
0,0,0,17565,10441,9980,33337,29013,3
0,0,0,17530,10394,9935,33439,28869,3
0,0,0,17495,10325,9856,33371,28754,3
0,0,0,17461,10267,9811,33439,28812,3
0,0,0,17426,10255,9788,33439,28697,3
0,0,0,17582,10255,9777,33887,28726,3
0,0,0,17845,10301,9800,34341,28754,3
0,0,0,18057,10546,9935,34910,28955,3
0,0,0,18075,10700,10209,34946,29158,3
0,0,0,18039,10629,10255,34731,28955,3
0,0,0,18004,10676,10278,34518,29071,3
0,0,0,17986,10688,10441,34624,29129,3
0,0,0,18022,10891,10771,34696,29042,3
0,0,0,18022,11109,11072,34696,28927,3
0,0,0,17951,11329,11133,34624,28869,3
0,0,0,17986,11478,11157,34660,28869,3
0,0,0,18075,11503,11182,34910,28927,3
0,0,0,18362,11515,11206,35492,29042,3
0,0,0,18599,11515,11206,35787,29568,3
0,0,0,18801,11453,11804,36160,30165,3
0,0,0,18764,11354,12124,36160,30469,3
0,0,0,18709,11304,12124,35861,30226,3
0,0,0,18544,11219,12163,35528,30347,3
0,0,0,18435,11194,12099,35127,30226,3
0,0,0,18344,11157,12112,34910,30045,3
0,0,0,18290,11133,11983,34696,30105,3
0,0,0,18272,11109,11804,34553,29865,3
0,0,0,18290,11109,11906,34553,29895,3
0,0,0,18272,11109,11855,34589,29925,3
0,0,0,18272,11109,11855,34696,29865,3
0,0,0,18236,11109,11906,34624,29984,3
0,0,0,18236,11084,11906,34624,29925,3
0,0,0,18129,11084,11766,34518,29895,3
0,0,0,17915,10927,11804,34060,29509,3
0,0,0,17880,10891,12034,34026,29509,3
0,0,0,17933,10867,12021,33817,29421,3
0,0,0,18057,10867,11944,33714,29333,3
0,0,0,18093,10843,11906,33303,29042,3
0,0,0,18093,10819,11868,32666,28357,3
0,0,0,17986,10783,11830,32238,27418,3
0,0,0,17986,10795,11855,31978,27175,3
0,0,0,17915,10748,11944,31402,26670,3
0,0,0,17915,10748,11932,31339,26802,3
0,0,0,17933,10748,12021,31849,27691,3
0,0,0,17933,10748,12306,32075,28812,3
0,0,0,17986,10748,12359,32238,29216,3
0,0,0,17915,10748,12372,32238,29187,3
0,0,0,17845,10748,12477,32108,29333,3
0,0,0,17862,10724,12086,32010,28840,3
0,0,0,17792,10724,11983,31913,28783,3
0,0,0,17757,10724,11855,31978,28812,3
0,0,0,17792,10748,11503,32010,28697,3
0,0,0,17792,10771,10963,32108,28669,3
0,0,0,17809,10748,10831,31978,28754,3
0,0,0,17792,10771,10795,31913,28812,3
0,0,0,17809,10724,10748,31881,28783,3
0,0,0,17739,10700,10605,31881,28640,3
0,0,0,17739,10688,10535,31849,28555,3
0,0,0,17722,10641,10453,31849,28583,3
0,0,0,17634,10594,10406,31849,28612,3
0,0,0,17634,10582,10371,31849,28527,3
0,0,0,17565,10582,10383,31849,28527,3
0,0,0,17565,10582,10406,31785,28470,3
0,0,0,17495,10546,10394,31817,28583,3
0,0,0,17495,10535,10394,31785,28470,3
0,0,0,17513,10535,10394,31720,28527,3
0,0,0,17513,10558,10406,31656,28470,3
0,0,0,17495,10535,10418,31752,28414,3
0,0,0,17461,10535,10418,31785,28414,3
0,0,0,17443,10546,10441,31881,28498,3
0,0,0,17426,10546,10453,32010,29216,3
0,0,0,17392,10582,10453,32238,29865,3
0,0,0,17426,10594,10441,32500,30715,3
0,0,0,17426,10605,10488,32699,31913,3
0,0,0,17495,10594,10476,32799,33100,3
0,0,0,17495,10629,10488,32699,34553,3
0,0,0,17565,10617,10464,32500,36462,3
0,0,0,17565,10641,10464,32765,37152,3
0,0,0,17600,10629,10488,32832,38503,3
0,0,0,17565,10629,10511,32899,39119,3
0,0,0,17565,10629,10570,33067,39663,3
0,0,0,17634,10629,10629,33303,40131,3
0,0,0,17739,10653,10771,33067,40002,3
0,0,0,17792,10688,10771,33269,39411,3
0,0,0,17739,10700,10783,33371,38995,3
0,0,0,17704,10688,10795,33405,38748,3
0,0,0,17652,10676,10771,33303,38544,3
0,0,0,17669,10641,10736,33033,38789,3
0,0,0,17617,10629,10748,32899,38100,3
0,0,0,17634,10629,10795,32899,37504,3
0,0,0,17582,10605,10963,32765,36728,3
0,0,0,17582,10605,11280,32699,36010,3
0,0,0,17547,10629,11515,33067,34624,3
0,0,0,17582,10629,12320,32799,34518,3
0,0,0,17565,10605,12424,32699,34839,3
0,0,0,17495,10629,12504,32699,34660,3
0,0,0,17478,10605,12451,32699,34482,3
0,0,0,17461,10629,12346,32666,34412,3
0,0,0,17495,10629,12320,32633,34447,3
0,0,0,17426,10653,12346,32633,34271,3
0,0,0,17461,10629,12346,32699,34095,3
0,0,0,17426,10629,12189,32566,34200,3
0,0,0,17426,10629,12034,32633,34060,3
0,0,0,17374,10629,12060,32699,33991,3
0,0,0,17374,10629,12009,32599,33887,3
0,0,0,17426,10641,11830,32533,34026,3
0,0,0,17374,10653,11855,32699,33783,3
0,0,0,17357,10676,11754,32633,33714,3
0,0,0,17357,10653,11465,32633,34482,3
0,0,0,17357,10700,11157,32369,33783,3
0,0,0,17374,10676,10963,32369,33405,3
0,0,0,17374,10653,10891,32369,33371,3
0,0,0,17357,10676,10819,32369,33405,3
0,0,0,17357,10629,10843,32402,33303,3
0,0,0,17374,10676,10831,32303,33303,3
0,0,0,17374,10676,10807,32369,33269,3
0,0,0,17289,10676,10748,32369,33303,3
0,0,0,17323,10676,10688,32435,33202,3
0,0,0,17340,10676,10641,32303,33168,3
0,0,0,17323,10653,10535,32435,33100,3
0,0,0,17357,10641,10394,32303,33033,3
0,0,0,17357,10629,10313,32303,33033,3
0,0,0,17323,10629,10290,32173,32966,3
0,0,0,17340,10629,10278,32238,32932,3
0,0,0,17357,10629,10301,32173,33033,3
0,0,0,17357,10605,10301,32140,32899,3
0,0,0,17306,10605,10278,32271,32832,3
0,0,0,17323,10629,10278,32173,32765,3
0,0,0,17340,10605,10301,32271,32699,3
0,0,0,17323,10629,10301,32173,32899,3
0,0,0,17323,10629,10278,32173,32765,3
0,0,0,17357,10629,10267,32173,32732,3
0,0,0,17323,10605,10278,32238,32966,3
0,0,0,17357,10594,10267,32238,33439,3
0,0,0,17357,10629,10232,32467,34095,3
0,0,0,17374,10629,10232,32369,34235,3
0,0,0,17392,10629,10209,32369,34271,3
0,0,0,17374,10641,10209,32303,34235,3
0,0,0,17357,10653,10209,32271,34235,3
0,0,0,17357,10629,10209,32271,34341,3
0,0,0,17357,10653,10174,32369,34412,3
0,0,0,17357,10629,10209,32500,34412,3
0,0,0,17357,10629,10209,32435,34200,3
0,0,0,17357,10629,10209,32500,34165,3
0,0,0,17340,10629,10209,32435,34200,3
0,0,0,17323,10641,10209,32467,34200,3
0,0,0,17357,10653,10209,32435,34306,3
0,0,0,17340,10653,10209,32435,34341,3
0,0,0,17357,10629,10163,32633,34731,3
0,0,0,17392,10653,10094,32699,35309,3
0,0,0,17426,10629,10071,32599,34874,3
0,0,0,17392,10629,10071,32566,34731,3
0,0,0,17426,10629,10071,32633,34767,3
0,0,0,17409,10629,10071,32566,34803,3
0,0,0,17426,10629,10117,32500,34839,3
0,0,0,17443,10605,10163,32336,34767,3
0,0,0,17443,10558,10174,32402,34696,3
0,0,0,17426,10523,10174,32369,34518,3
0,0,0,17461,10535,10174,32336,34589,3
0,0,0,17426,10499,10174,32336,34482,3
0,0,0,17426,10511,10174,32238,34412,3
0,0,0,17426,10511,10163,32271,34376,3
0,0,0,17426,10511,10163,32271,34624,3
0,0,0,17426,10535,10163,32336,34624,3
0,0,0,17374,10535,10163,32173,34696,3
0,0,0,17426,10546,10163,32238,34731,3
0,0,0,17443,10546,10140,32271,35345,3
0,0,0,17530,10582,10140,32435,35272,3
0,0,0,17704,10582,10163,32500,36047,3
0,0,0,17704,10582,10140,32500,36010,3
0,0,0,17774,10582,10129,32533,35898,3
0,0,0,17774,10594,10129,32500,35345,3
0,0,0,17774,10617,10117,32566,35236,3
0,0,0,17722,10629,10117,32765,35055,3
0,0,0,17634,10641,10106,32866,35163,3
0,0,0,17600,10629,10152,32832,35091,3
0,0,0,17582,10641,10186,32765,34839,3
0,0,0,17530,10653,10221,32765,34803,3
0,0,0,17495,10700,10244,32765,34803,3
0,0,0,17461,10724,10301,32765,34306,3
0,0,0,17513,10748,10301,33100,34235,3
0,0,0,17565,10748,10348,33134,34235,3
0,0,0,17634,10771,10348,33611,34946,3
0,0,0,17669,10771,10313,33645,34982,3
0,0,0,17652,10783,10348,33508,34696,3
0,0,0,17687,10795,10348,33337,34839,3
0,0,0,17634,10771,10348,33067,34946,3
0,0,0,17495,10748,10394,32899,34910,3
0,0,0,17306,10748,10371,32932,35055,3
0,0,0,17084,10724,10359,33337,35163,3
0,0,0,16966,10724,10394,33887,35382,3
0,0,0,16966,10724,10394,33748,35272,3
0,0,0,17084,10724,10394,34026,35382,3
0,0,0,17186,10724,10394,34412,35565,3
0,0,0,17186,10724,10394,34767,35418,3
0,0,0,17152,10748,10348,34910,35309,3
0,0,0,17118,10783,10348,34874,35199,3
0,0,0,17084,10771,10325,34982,35091,3
0,0,0,17033,10771,10313,34982,35055,3
0,0,0,17016,10771,10301,35055,34982,3
0,0,0,16966,10748,10301,35199,35055,3
0,0,0,16949,10771,10301,35272,35055,3
0,0,0,16966,10771,10313,35199,35055,3
0,0,0,16949,10748,10301,35236,35055,3
0,0,0,16915,10759,10301,35272,35018,3
0,0,0,16966,10771,10301,35565,34910,3
0,0,0,16983,10748,10232,35749,35199,3
0,0,0,16983,10748,10255,35712,35163,3
0,0,0,17033,10748,10255,35639,35055,3
0,0,0,17050,10700,10232,35749,35091,3
0,0,0,17084,10641,10209,35861,35272,3
0,0,0,17118,10629,10186,35712,35199,3
0,0,0,17084,10605,10221,35565,35127,3
0,0,0,17101,10605,10209,35492,35055,3
0,0,0,17084,10629,10209,35418,35127,3
0,0,0,17101,10617,10209,35418,35055,3
0,0,0,17101,10617,10209,35418,35127,3
0,0,0,17152,10629,10232,35418,35018,3
0,0,0,17186,10617,10232,35492,34982,3
0,0,0,17254,10582,10209,35602,35199,3
0,0,0,17220,10558,10209,35602,35055,3
0,0,0,17220,10582,10221,35492,34982,3
0,0,0,17289,10558,10209,35345,35127,3
0,0,0,17357,10535,10186,35712,35861,3
0,0,0,17340,10535,10163,35455,35861,3
0,0,0,17323,10546,10174,35091,35787,3
0,0,0,17478,10558,10278,34910,35935,3
0,0,0,17669,10582,10336,35127,36690,3
0,0,0,17704,10605,10371,35199,36614,3
0,0,0,17669,10664,10441,35127,36690,3
0,0,0,17669,10629,10441,35418,35492,3
0,0,0,17600,10653,10511,35382,34482,3
0,0,0,17600,10653,10641,35345,34306,3
0,0,0,17600,10676,10795,35418,34271,3
0,0,0,17634,10700,10951,35418,34341,3
0,0,0,17704,10676,10939,35345,34412,3
0,0,0,17652,10688,10879,35309,33991,3
0,0,0,17704,10676,10831,35199,34026,3
0,0,0,17634,10676,10783,35382,33852,3
0,0,0,17600,10676,10771,35345,33817,3
0,0,0,17652,10676,10748,35272,33542,3
0,0,0,17617,10676,10676,35345,33303,3
0,0,0,17582,10676,10676,35236,33337,3
0,0,0,17582,10676,10676,35091,33033,3
0,0,0,17565,10664,10653,35199,32832,3
0,0,0,17565,10664,10641,35018,32566,3
0,0,0,17530,10653,10629,35127,32435,3
0,0,0,17495,10676,10688,34946,32500,3
0,0,0,17495,10653,10676,35055,32369,3
0,0,0,17478,10641,10676,35055,32303,3
0,0,0,17461,10676,10605,35382,32271,3
0,0,0,17513,10700,10594,35345,32369,3
0,0,0,17495,10712,10629,35055,31978,3
0,0,0,17513,10748,10700,35091,31720,3
0,0,0,17513,10748,10688,35018,31849,3
