GyroX,GyroY,GyroZ,Thumb,Index,Middle,Ring,Pinky,Gesture
0,0,0,17357,21105,10129,10605,11983,1
0,0,0,17392,21416,10071,10570,11855,1
0,0,0,17704,21563,10003,10535,11653,1
0,0,0,17845,21584,9958,10535,11553,1
0,0,0,17898,21627,9980,10488,11503,1
0,0,0,17547,21754,9980,10488,11553,1
0,0,0,17461,21711,10003,10511,11503,1
0,0,0,17495,21627,10003,10499,11553,1
0,0,0,17426,21584,10003,10488,11528,1
0,0,0,17426,21584,9958,10488,11503,1
0,0,0,17357,21584,9912,10488,11478,1
0,0,0,17357,21542,9890,10488,11465,1
0,0,0,17323,21500,9912,10476,11528,1
0,0,0,17306,21500,9935,10488,11503,1
0,0,0,17272,21458,9958,10488,11553,1
0,0,0,17220,21458,9958,10488,11553,1
0,0,0,17254,21458,9992,10499,11540,1
0,0,0,17220,21479,10003,10499,11578,1
0,0,0,17220,21416,10049,10499,11540,1
0,0,0,17186,21458,10071,10499,11565,1
0,0,0,17169,21479,10083,10511,11553,1
0,0,0,17152,21416,10094,10511,11578,1
0,0,0,17152,21395,10071,10511,11603,1
0,0,0,17101,21333,10071,10535,11603,1
0,0,0,17101,21375,10071,10535,11603,1
0,0,0,17084,21333,10094,10535,11603,1
0,0,0,17084,21291,10083,10535,11603,1
0,0,0,17033,21291,10094,10546,11603,1
0,0,0,17016,21250,10071,10535,11653,1
0,0,0,17033,21250,10117,10535,11615,1
0,0,0,17016,21208,10094,10535,11603,1
0,0,0,16966,21208,10117,10546,11653,1
0,0,0,16966,21208,10117,10546,11653,1
0,0,0,16966,21167,10117,10546,11678,1
0,0,0,16949,21208,10094,10546,11678,1
0,0,0,16949,21208,10117,10546,11665,1
0,0,0,16966,21146,10117,10546,11716,1
0,0,0,17016,21167,10140,10582,11754,1
0,0,0,17050,21187,10129,10558,11779,1
0,0,0,17016,21208,10140,10558,11754,1
0,0,0,17016,21146,10163,10582,11754,1
0,0,0,17101,21208,10163,10570,11779,1
0,0,0,17118,21208,10174,10582,11804,1
0,0,0,17135,21208,10174,10582,11779,1
0,0,0,17152,21208,10163,10582,11804,1
0,0,0,17118,21167,10174,10582,11855,1
0,0,0,17101,21167,10174,10582,11868,1
0,0,0,17152,21146,10209,10617,11906,1
0,0,0,17220,21208,10209,10594,11932,1
0,0,0,17186,21146,10209,10605,11906,1
0,0,0,17203,21187,10209,10617,11906,1
0,0,0,17186,21167,10209,10605,11932,1
0,0,0,17186,21146,10232,10629,11957,1
0,0,0,17186,21125,10232,10629,11906,1
0,0,0,17186,21167,10244,10629,11906,1
0,0,0,17220,21125,10221,10605,11906,1
0,0,0,17220,21250,10209,10617,11881,1
0,0,0,17237,21270,10197,10605,11855,1
0,0,0,17289,21479,10129,10594,11804,1
0,0,0,17289,21627,10094,10558,11754,1
0,0,0,17289,21711,10071,10558,11754,1
0,0,0,17340,21796,10026,10535,11703,1
0,0,0,17323,21754,10026,10535,11678,1
0,0,0,17357,21882,10026,10546,11628,1
0,0,0,17495,22010,10026,10570,11553,1
0,0,0,17461,21882,9912,10546,11416,1
0,0,0,17237,21606,9890,10546,11403,1
0,0,0,16915,21416,9867,10535,11403,1
0,0,0,16748,21250,9856,10546,11366,1
0,0,0,16648,21208,9890,10546,11379,1
0,0,0,16499,21125,9811,10535,11403,1
0,0,0,16483,20961,9755,10535,11515,1
0,0,0,16385,20899,9710,10488,11970,1
0,0,0,16385,20798,9666,10464,12320,1
0,0,0,16417,20798,9599,10441,12530,1
0,0,0,16368,20818,9577,10429,12464,1
0,0,0,16352,20757,9577,10418,12438,1
0,0,0,16352,20798,9577,10418,12438,1
0,0,0,16352,20798,9577,10406,12477,1
0,0,0,16352,20838,9577,10418,12424,1
0,0,0,16319,20757,9577,10406,12438,1
0,0,0,16352,20757,9577,10394,12385,1
0,0,0,16319,20757,9577,10394,12346,1
0,0,0,16303,20757,9577,10394,12346,1
0,0,0,16222,20716,9577,10394,12346,1
0,0,0,16157,20777,9577,10394,12346,1
0,0,0,16028,20757,9621,10394,12320,1
0,0,0,15964,20615,9621,10394,12346,1
0,0,0,15900,20475,9677,10394,12320,1
0,0,0,15964,20315,9901,10394,12346,1
0,0,0,16028,20157,9958,10418,12346,1
0,0,0,16060,20157,9912,10394,12346,1
0,0,0,16206,20196,9935,10394,12346,1
0,0,0,16565,20196,10071,10418,12398,1
0,0,0,16781,20098,10117,10418,12451,1
0,0,0,17016,20117,10140,10406,12477,1
0,0,0,17152,20098,10163,10441,12504,1
0,0,0,17152,20078,10163,10441,12556,1
0,0,0,17203,20157,10163,10441,12556,1
0,0,0,17169,20098,10140,10429,12543,1
0,0,0,17084,20196,10140,10453,12583,1
0,0,0,17050,20196,10163,10441,12596,1
0,0,0,16949,20236,10174,10441,12649,1
0,0,0,17084,20275,10174,10453,12690,1
0,0,0,17340,20275,10174,10441,12676,1
0,0,0,17634,20176,10278,10441,12690,1
0,0,0,17652,20256,10301,10453,12703,1
0,0,0,17669,20275,10255,10453,12703,1
0,0,0,17669,20315,10232,10453,12703,1
0,0,0,17792,20078,10209,10441,12663,1
0,0,0,17880,19902,10221,10453,12703,1
0,0,0,17845,19766,10301,10453,12743,1
0,0,0,17915,19612,10348,10453,12743,1
0,0,0,18057,19535,10371,10464,12756,1
0,0,0,18129,19535,10418,10464,12743,1
0,0,0,18147,19516,10418,10488,12783,1
0,0,0,18057,19650,10348,10488,12743,1
0,0,0,18004,19650,10301,10488,12797,1
0,0,0,17986,19785,10255,10453,12770,1
0,0,0,18022,19941,10209,10453,12716,1
0,0,0,18057,20078,10140,10453,12636,1
0,0,0,18075,20275,10117,10453,12623,1
0,0,0,18039,20335,10071,10441,12570,1
0,0,0,17986,20315,10071,10441,12530,1
0,0,0,18022,20315,10083,10441,12530,1
0,0,0,17986,20236,10117,10441,12530,1
0,0,0,18039,20236,10163,10441,12530,1
0,0,0,18022,20256,10163,10441,12530,1
0,0,0,17915,20256,10174,10441,12530,1
0,0,0,17757,20196,10174,10441,12543,1
0,0,0,17582,20236,10163,10441,12543,1
0,0,0,17443,20236,10163,10441,12530,1
0,0,0,17495,20236,10163,10453,12530,1
0,0,0,17461,20236,10140,10441,12530,1
0,0,0,17495,20315,10129,10441,12451,1
0,0,0,17426,20415,10071,10441,12424,1
0,0,0,17374,20716,9958,10418,12385,1
0,0,0,17289,20961,9890,10418,12372,1
0,0,0,17220,21125,9811,10394,12320,1
0,0,0,17084,21208,9766,10394,12228,1
0,0,0,17084,21064,9811,10394,12241,1
0,0,0,17016,21043,9856,10394,12280,1
0,0,0,16966,20920,9935,10394,12293,1
0,0,0,16999,20838,9935,10371,12320,1
0,0,0,16983,20798,9958,10394,12293,1
0,0,0,16949,20777,9946,10394,12306,1
0,0,0,16915,20716,9946,10394,12267,1
0,0,0,16915,20676,9992,10383,12280,1
0,0,0,16898,20636,10003,10394,12267,1
0,0,0,16882,20575,9980,10394,12267,1
0,0,0,16882,20555,10003,10394,12280,1
0,0,0,16865,20475,10014,10383,12267,1
0,0,0,16848,20475,10026,10383,12280,1
0,0,0,16882,20475,10037,10394,12228,1
0,0,0,16882,20435,10037,10371,12267,1
0,0,0,16848,20395,10049,10394,12228,1
0,0,0,16882,20395,10071,10394,12267,1
0,0,0,16882,20415,10071,10394,12241,1
0,0,0,16831,20395,10071,10394,12254,1
0,0,0,16831,20315,10071,10394,12267,1
0,0,0,16831,20315,10071,10394,12267,1
0,0,0,16848,20315,10083,10394,12241,1
0,0,0,16815,20315,10083,10406,12267,1
0,0,0,16815,20275,10083,10394,12280,1
0,0,0,16798,20315,10094,10394,12280,1
0,0,0,16815,20335,10083,10394,12241,1
0,0,0,16748,20236,10071,10394,12254,1
0,0,0,16748,20236,10071,10394,12254,1
0,0,0,16748,20236,10071,10406,12189,1
0,0,0,16831,20098,10094,10394,12176,1
0,0,0,16831,20137,10049,10394,12189,1
0,0,0,16831,20157,10026,10406,12124,1
0,0,0,16831,20157,10026,10394,12112,1
0,0,0,16882,20117,10014,10394,12112,1
0,0,0,16831,20176,10026,10394,12124,1
0,0,0,16831,20117,10026,10394,12112,1
0,0,0,16915,20216,10003,10383,12112,1
0,0,0,16966,20236,10003,10394,12034,1
0,0,0,16983,20335,9946,10394,11957,1
0,0,0,16983,20395,9935,10394,11932,1
0,0,0,17050,20435,9935,10394,11932,1
0,0,0,17152,20636,9901,10418,11932,1
0,0,0,17237,20737,9777,10394,11957,1
0,0,0,17169,20838,9632,10394,11957,1
0,0,0,17067,20818,9544,10394,12009,1
0,0,0,16983,20757,9533,10418,12034,1
0,0,0,16949,20818,9533,10418,12060,1
0,0,0,16882,20818,9533,10441,12086,1
0,0,0,16765,20818,9533,10488,12099,1
0,0,0,16648,20798,9533,10488,12112,1
0,0,0,16582,20737,9533,10488,12112,1
0,0,0,16499,20676,9533,10488,12099,1
0,0,0,16499,20676,9533,10488,12086,1
0,0,0,16450,20636,9533,10453,12086,1
0,0,0,16483,20636,9533,10453,12073,1
0,0,0,16417,20575,9533,10453,12073,1
0,0,0,16450,20555,9533,10453,12060,1
0,0,0,16417,20515,9533,10453,12060,1
0,0,0,16434,20515,9533,10453,12060,1
0,0,0,16417,20475,9533,10441,12060,1
0,0,0,16434,20435,9544,10453,12034,1
0,0,0,16516,20475,9533,10453,12060,1
0,0,0,16483,20435,9544,10441,12060,1
0,0,0,16483,20395,9544,10418,12060,1
0,0,0,16450,20395,9555,10441,12060,1
0,0,0,16450,20395,9577,10441,12073,1
0,0,0,16434,20395,9599,10441,12060,1
0,0,0,16352,20335,9588,10429,12112,1
0,0,0,16287,20275,9666,10441,12112,1
0,0,0,16125,20236,9666,10441,12086,1
0,0,0,16125,20216,9666,10441,12112,1
0,0,0,16125,20196,9688,10453,12124,1
0,0,0,16157,20236,9721,10441,12112,1
0,0,0,16238,20236,9766,10441,12112,1
0,0,0,16352,20315,9788,10429,12124,1
0,0,0,16434,20295,9811,10441,12137,1
0,0,0,16549,20315,9800,10441,12150,1
0,0,0,16715,20315,9811,10453,12124,1
0,0,0,16815,20315,9811,10441,12124,1
0,0,0,16882,20315,9845,10453,12124,1
0,0,0,17033,20256,9811,10441,12124,1
0,0,0,17118,20256,9856,10464,12163,1
0,0,0,17152,20236,9890,10441,12163,1
0,0,0,17220,20196,9912,10441,12112,1
0,0,0,17323,20137,9958,10464,12150,1
0,0,0,17357,20078,10026,10488,12163,1
0,0,0,17254,19980,10003,10488,12137,1
0,0,0,16222,19669,9890,10488,12112,1
0,0,0,15273,19287,9822,10488,12060,1
0,0,0,14726,18968,9856,10488,12086,1
0,0,0,14224,18581,9890,10488,12086,1
0,0,0,13906,18272,9980,10488,12086,1
0,0,0,13679,17968,10071,10499,12137,1
0,0,0,13482,17792,10094,10535,12112,1
0,0,0,13384,17774,10117,10535,12137,1
0,0,0,13357,17739,10117,10535,12137,1
0,0,0,13315,17704,10071,10546,12163,1
0,0,0,13109,17357,10060,10535,12176,1
0,0,0,12959,17220,10071,10535,12112,1
0,0,0,12797,16915,10117,10535,12124,1
0,0,0,12690,16815,10174,10546,12189,1
0,0,0,12596,16865,10186,10582,12228,1
0,0,0,12504,16815,10174,10546,12228,1
0,0,0,12451,16815,10163,10558,12228,1
0,0,0,12424,16815,10163,10535,12176,1
0,0,0,12398,16831,10163,10558,12215,1
0,0,0,12385,16815,10163,10570,12189,1
0,0,0,12372,16815,10163,10570,12215,1
0,0,0,12346,16815,10163,10582,12215,1
0,0,0,12346,16831,10174,10558,12228,1
0,0,0,12320,16815,10174,10570,12215,1
0,0,0,12320,16831,10186,10546,12215,1
0,0,0,12306,16815,10163,10582,12215,1
0,0,0,12320,16848,10174,10582,12215,1
0,0,0,12293,16815,10174,10558,12215,1
0,0,0,12267,16831,10174,10558,12228,1
0,0,0,12280,16815,10163,10582,12215,1
0,0,0,12293,16815,10163,10558,12189,1
0,0,0,12280,16831,10163,10582,12176,1
0,0,0,12267,16865,10163,10582,12189,1
0,0,0,12280,16882,10174,10570,12228,1
0,0,0,12267,16848,10174,10558,12215,1
0,0,0,12280,16882,10174,10582,12189,1
0,0,0,12293,16848,10174,10582,12215,1
0,0,0,12280,16882,10186,10582,12189,1
0,0,0,12280,16882,10186,10582,12215,1
0,0,0,12267,16831,10174,10570,12189,1
0,0,0,12228,16748,10197,10582,12215,1
0,0,0,12189,16748,10232,10582,12267,1
0,0,0,12176,16648,10232,10582,12267,1
0,0,0,12137,16632,10267,10605,12267,1
0,0,0,12112,16815,10348,10629,12280,1
0,0,0,12163,17084,10325,10641,12293,1
0,0,0,12215,17426,10429,10700,12320,1
0,0,0,12267,18164,10511,10748,12293,1
0,0,0,12346,18599,10546,10771,12293,1
0,0,0,12451,18968,10748,10819,12346,1
0,0,0,12477,19061,10771,10855,12346,1
0,0,0,12490,19080,10771,10843,12293,1
0,0,0,12583,19249,10879,10867,12346,1
0,0,0,12636,19458,10915,10879,12346,1
0,0,0,12797,19708,11036,10927,12359,1
0,0,0,12878,19999,11060,10963,12346,1
0,0,0,13013,20176,11060,10963,12346,1
0,0,0,13122,20555,11157,10999,12346,1
0,0,0,13246,20940,11206,10987,12346,1
0,0,0,13538,21333,11231,11012,12372,1
0,0,0,13735,21627,11317,11012,12346,1
0,0,0,13849,21882,11304,11012,12346,1
0,0,0,13906,22010,11304,11024,12346,1
0,0,0,13906,22075,11366,11036,12346,1
0,0,0,13849,22096,11354,11048,12359,1
0,0,0,13821,22010,11329,11036,12346,1
0,0,0,13792,22140,11329,11060,12372,1
0,0,0,13778,22053,11317,11048,12346,1
0,0,0,13792,22075,11317,11024,12346,1
0,0,0,13792,22183,11354,11036,12372,1
0,0,0,13849,22313,11354,11036,12346,1
0,0,0,13835,22292,11354,11024,12346,1
0,0,0,13835,22248,11366,11024,12372,1
0,0,0,13792,22140,11366,11060,12385,1
0,0,0,13778,22096,11366,11024,12372,1
0,0,0,13749,22053,11354,11024,12346,1
0,0,0,13764,21903,11379,11048,12372,1
0,0,0,13806,21924,11379,11036,12372,1
0,0,0,13792,21882,11403,11036,12372,1
0,0,0,13764,21818,11366,11012,12346,1
0,0,0,13749,21796,11354,11024,12372,1
0,0,0,13764,21733,11366,11012,12385,1
0,0,0,13792,21754,11366,11024,12372,1
0,0,0,13792,21711,11354,11036,12372,1
0,0,0,13806,21711,11317,11048,12346,1
0,0,0,13806,21690,11354,11024,12385,1
0,0,0,13806,21648,11317,11024,12346,1
0,0,0,13792,21627,11317,11036,12346,1
0,0,0,13849,21648,11354,11060,12398,1
0,0,0,13906,21584,11366,11060,12398,1
0,0,0,13964,21627,11366,11060,12372,1
0,0,0,14050,21648,11428,11084,12385,1
0,0,0,14311,21711,11553,11182,12398,1
0,0,0,15119,21690,11578,11182,12372,1
0,0,0,16238,21711,11716,11304,12385,1
0,0,0,17220,21584,11983,11603,12424,1
0,0,0,17880,21542,12267,11906,12477,1
0,0,0,18308,21563,12424,12189,12477,1
0,0,0,18562,21375,12690,12583,12517,1
0,0,0,18783,21416,12810,12756,12556,1
0,0,0,19174,21458,12972,12986,12583,1
0,0,0,19458,21521,13013,13068,12583,1
0,0,0,19516,21584,13040,13150,12596,1
0,0,0,19592,21627,13013,13177,12583,1
0,0,0,19535,21606,13013,13191,12583,1
0,0,0,19477,21627,12959,13122,12543,1
0,0,0,19458,21711,12932,13095,12556,1
0,0,0,19344,21690,12824,13013,12504,1
0,0,0,19249,21733,12636,12905,12530,1
0,0,0,19136,21669,12372,12716,12504,1
0,0,0,18949,21796,12060,12451,12451,1
0,0,0,18801,21711,11703,12189,12477,1
0,0,0,18599,21669,11416,11868,12424,1
0,0,0,18562,21711,11219,11603,12398,1
0,0,0,18435,21648,11170,11503,12398,1
0,0,0,18344,21648,11084,11453,12385,1
0,0,0,18147,21584,10867,11280,12398,1
0,0,0,18093,21563,10795,11206,12346,1
0,0,0,18057,21500,10748,11170,12346,1
0,0,0,18022,21500,10724,11157,12346,1
0,0,0,18004,21500,10676,11109,12372,1
0,0,0,17880,21375,10594,11060,12346,1
0,0,0,17722,21167,10499,10987,12346,1
0,0,0,17600,21043,10488,10963,12385,1
0,0,0,17530,20879,10418,10867,12583,1
0,0,0,17443,20879,10359,10795,12690,1
0,0,0,17426,20798,10348,10748,13027,1
0,0,0,17357,20757,10348,10700,13150,1
0,0,0,17289,20716,10278,10653,13301,1
0,0,0,17254,20716,10255,10629,13735,1
0,0,0,17220,20636,10232,10629,13978,1
0,0,0,17203,20535,10255,10641,14224,1
0,0,0,17186,20475,10232,10629,14666,1
0,0,0,17152,20415,10209,10629,14967,1
0,0,0,17169,20435,10174,10617,14907,1
0,0,0,16949,20636,10163,10617,14861,1
0,0,0,16798,20636,10209,10605,14636,1
0,0,0,16815,20515,10174,10582,14577,1
0,0,0,16731,20515,10174,10582,14547,1
0,0,0,16731,20535,10209,10582,14518,1
0,0,0,16715,20555,10174,10582,14503,1
0,0,0,16681,20495,10174,10558,14488,1
0,0,0,16434,20435,10163,10535,14458,1
0,0,0,16157,20395,10174,10535,14488,1
0,0,0,15884,20236,10163,10546,14458,1
0,0,0,15663,20078,10174,10535,14518,1
0,0,0,15335,19785,10163,10535,14458,1
0,0,0,14922,19477,10174,10523,14518,1
0,0,0,14399,19212,10209,10535,14547,1
0,0,0,13749,18912,10163,10523,14488,1
0,0,0,13150,18581,10129,10511,14444,1
0,0,0,12716,18290,10106,10499,14444,1
0,0,0,12543,18147,10071,10488,14429,1
0,0,0,12424,18022,10026,10488,14370,1
0,0,0,12346,17986,10026,10499,14370,1
0,0,0,12267,17986,10026,10488,14341,1
0,0,0,12241,17880,10026,10464,14326,1
0,0,0,12228,17898,10026,10488,14341,1
0,0,0,12215,17880,10026,10488,14341,1
0,0,0,12124,18164,10014,10499,14341,1
0,0,0,12112,18489,10026,10511,14547,1
0,0,0,12086,18635,10026,10535,14636,1
0,0,0,12086,18727,9980,10546,14801,1
0,0,0,12112,18764,10003,10582,14937,1
0,0,0,12112,18783,10014,10582,15058,1
0,0,0,12241,18968,10026,10641,15710,1
0,0,0,12372,19155,10049,10676,16157,1
0,0,0,12690,19382,10071,10676,16157,1
0,0,0,13329,19497,10071,10676,16173,1
0,0,0,14238,19631,10083,10688,16060,1
0,0,0,14444,19708,10071,10676,15964,1
0,0,0,14607,19843,10071,10676,15805,1
0,0,0,14846,19882,10094,10676,15710,1
0,0,0,15150,20078,10209,10676,15647,1
0,0,0,15647,20176,10359,10676,15663,1
0,0,0,16532,20475,10488,10676,15868,1
0,0,0,17084,20696,10546,10712,15948,1
0,0,0,17845,20879,10795,10748,16189,1
0,0,0,18857,21022,10987,10783,16303,1
0,0,0,20019,21105,10939,10759,16157,1
0,0,0,20716,21125,10867,10748,15964,1
0,0,0,21208,21043,10748,10724,15805,1
0,0,0,21500,21064,10605,10676,15647,1
0,0,0,21584,21043,10499,10605,15397,1
0,0,0,21627,21043,10453,10582,15089,1
0,0,0,21711,20899,10464,10535,14621,1
0,0,0,21818,20737,10453,10499,14180,1
0,0,0,21711,20555,10453,10488,14137,1
0,0,0,21606,20495,10429,10488,14166,1
0,0,0,21416,20555,10441,10488,14137,1
0,0,0,21229,20555,10348,10476,14137,1
0,0,0,20899,20395,10232,10453,14093,1
0,0,0,20777,20395,10163,10441,14079,1
0,0,0,20676,20475,10071,10453,14050,1
0,0,0,20395,20475,10026,10464,14108,1
0,0,0,19999,20335,9980,10464,14079,1
0,0,0,19382,19999,9958,10441,14166,1
0,0,0,19005,19805,9935,10453,14137,1
0,0,0,18581,19689,9890,10453,14195,1
0,0,0,17880,19497,9890,10464,14341,1
0,0,0,16615,19193,9890,10488,14488,1
0,0,0,15757,18987,9845,10464,14607,1
0,0,0,15150,18746,9833,10511,14801,1
0,0,0,14801,18562,9890,10511,15181,1
0,0,0,14151,18236,9980,10605,15868,1
0,0,0,13921,17915,10071,10712,16582,1
0,0,0,13849,17845,10094,10748,16715,1
0,0,0,14137,17915,10129,10771,16781,1
0,0,0,14518,18075,10163,10771,16815,1
0,0,0,14997,18931,10209,10783,16983,1
0,0,0,14846,19268,10232,10831,17118,1
0,0,0,14726,19669,10232,10843,17220,1
0,0,0,14907,19999,10301,10867,17186,1
0,0,0,15459,20157,10313,10867,17016,1
0,0,0,16189,20275,10313,10843,16848,1
0,0,0,16665,20495,10348,10843,16748,1
0,0,0,16932,20859,10348,10831,16681,1
0,0,0,17152,20899,10371,10819,16615,1
0,0,0,17704,20798,10371,10819,16450,1
0,0,0,18599,20879,10394,10771,16222,1
0,0,0,19231,20961,10371,10724,16125,1
0,0,0,19805,21125,10371,10724,16060,1
0,0,0,20078,21043,10359,10724,16044,1
0,0,0,20157,21125,10371,10724,16093,1
0,0,0,19727,21043,10348,10724,16157,1
0,0,0,19420,21105,10313,10688,16222,1
0,0,0,19193,21125,10255,10688,16093,1
0,0,0,18635,21146,10163,10605,15789,1
0,0,0,18022,21208,10117,10558,15366,1
0,0,0,17704,21146,10071,10535,15165,1
0,0,0,17357,21002,10049,10535,15058,1
0,0,0,16831,20838,10026,10535,15181,1
0,0,0,16109,20475,10037,10629,15916,1
0,0,0,15366,20256,10071,10724,16648,1
0,0,0,15089,20157,10071,10748,16882,1
0,0,0,14756,20157,10037,10771,16765,1
0,0,0,14488,20157,10026,10771,16681,1
0,0,0,14399,20039,10003,10748,16648,1
0,0,0,14282,20039,10003,10771,16681,1
0,0,0,14268,20019,10003,10771,16549,1
0,0,0,14268,20039,10003,10748,16417,1
0,0,0,14253,20039,10026,10748,16352,1
0,0,0,14311,20117,10003,10748,16189,1
0,0,0,14268,20176,9980,10724,15852,1
0,0,0,14282,20157,10003,10700,15150,1
0,0,0,14282,20256,10003,10688,14458,1
0,0,0,14326,20256,10026,10664,14079,1
0,0,0,14370,20315,10049,10629,13849,1
0,0,0,14518,20355,10071,10629,13650,1
0,0,0,14562,20335,10026,10605,13357,1
0,0,0,14518,20236,10003,10582,13246,1
0,0,0,14326,19999,10003,10582,13205,1
0,0,0,14224,19921,9958,10558,13177,1
0,0,0,14021,19766,10003,10582,13122,1
0,0,0,13650,19477,10003,10546,13027,1
0,0,0,13301,19231,10049,10558,13040,1
0,0,0,13721,19689,10071,10535,13068,1
0,0,0,14311,20216,10083,10535,13177,1
0,0,0,15028,20716,10140,10535,13191,1
0,0,0,15741,21291,10209,10535,13343,1
0,0,0,16765,21796,10267,10535,13343,1
0,0,0,17669,22010,10278,10546,13287,1
0,0,0,17704,21754,10267,10535,13205,1
0,0,0,17739,21584,10267,10535,13177,1
0,0,0,17443,21500,10255,10535,13150,1
0,0,0,16254,20777,10163,10535,13177,1
0,0,0,14786,19708,10071,10535,13122,1
0,0,0,14036,19155,10049,10535,13205,1
0,0,0,13398,18875,10071,10558,13287,1
0,0,0,12905,18599,10117,10582,13510,1
0,0,0,12543,18562,10117,10605,13735,1
0,0,0,12583,19005,10117,10605,13735,1
0,0,0,13136,19631,10094,10653,13778,1
0,0,0,13693,20196,10106,10629,13892,1
0,0,0,13622,20636,10094,10641,13878,1
0,0,0,13749,21002,10117,10629,13921,1
0,0,0,14108,21458,10163,10641,13978,1
0,0,0,14607,21711,10255,10629,13964,1
0,0,0,15273,22010,10476,10629,13935,1
0,0,0,15916,22444,10867,10629,13863,1
0,0,0,16287,22621,11036,10629,13906,1
0,0,0,16765,22510,10915,10629,13892,1
0,0,0,17135,21924,11012,10629,13849,1
0,0,0,17220,21479,10724,10629,13764,1
0,0,0,16615,21043,10441,10582,13679,1
0,0,0,16109,20656,10441,10594,13679,1
0,0,0,16028,20555,10453,10605,13679,1
0,0,0,15288,20216,10441,10582,13707,1
0,0,0,14253,19921,10371,10582,13636,1
0,0,0,13707,19708,10325,10558,13594,1
0,0,0,13218,19554,10325,10582,13524,1
0,0,0,13081,19497,10325,10546,13538,1
0,0,0,13095,19535,10301,10558,13580,1
0,0,0,13205,19612,10255,10535,13524,1
0,0,0,13398,19631,10209,10546,13482,1
0,0,0,13566,19785,10174,10558,13468,1
0,0,0,13707,19863,10117,10582,13398,1
0,0,0,13679,19941,10049,10535,13287,1
0,0,0,13707,20019,9980,10546,13315,1
0,0,0,13863,20157,9935,10535,13287,1
0,0,0,13849,20176,9935,10535,13315,1
0,0,0,13835,20176,9935,10535,13329,1
0,0,0,13821,20176,9946,10535,13260,1
0,0,0,13778,20157,9946,10535,13232,1
0,0,0,13764,20098,9980,10535,13260,1
0,0,0,13792,20078,10003,10535,13205,1
0,0,0,13849,19999,10003,10535,13068,1
0,0,0,13906,19941,10049,10535,13013,1
0,0,0,13978,19882,10037,10535,12959,1
0,0,0,14137,19805,10152,10535,12972,1
0,0,0,14108,19708,10163,10546,12959,1
0,0,0,13978,19689,10174,10546,12918,1
0,0,0,13906,19650,10174,10546,12932,1
0,0,0,13849,19650,10209,10546,12918,1
0,0,0,13764,19689,10209,10546,12959,1
0,0,0,13764,19689,10267,10582,12945,1
0,0,0,13679,19766,10278,10582,12918,1
0,0,0,13707,19805,10278,10582,12932,1
0,0,0,13749,19805,10267,10582,12959,1
0,0,0,13792,19921,10267,10558,12932,1
0,0,0,13821,19941,10255,10582,12959,1
0,0,0,13792,19960,10221,10546,12918,1
0,0,0,13735,19805,10209,10546,12918,1
0,0,0,13735,19805,10232,10535,12986,1
0,0,0,14050,19882,10325,10582,13013,1
0,0,0,15150,19960,10511,10629,13177,1
0,0,0,16665,20039,10629,10676,13287,1
0,0,0,18004,20315,10724,10676,13274,1
0,0,0,18709,20495,10688,10700,13232,1
0,0,0,18727,20475,10700,10700,13232,1
0,0,0,18599,20435,10676,10712,13232,1
0,0,0,18399,20415,10724,10724,13287,1
0,0,0,18236,20315,10724,10748,13315,1
0,0,0,18057,20236,10748,10783,13343,1
0,0,0,17915,20256,10748,10795,13343,1
0,0,0,17792,20216,10748,10819,13357,1
0,0,0,17704,20157,10748,10819,13343,1
0,0,0,17652,20236,10771,10831,13371,1
0,0,0,17617,20176,10771,10867,13426,1
0,0,0,17565,20157,10819,10879,13454,1
0,0,0,17530,20157,10867,10927,13538,1
0,0,0,17530,20117,10867,10915,13538,1
0,0,0,17495,20117,10915,10939,13510,1
0,0,0,17495,20098,10927,10975,13566,1
0,0,0,17461,20078,10939,10987,13538,1
0,0,0,17426,20039,10963,11024,13524,1
0,0,0,17323,20019,10939,11024,13510,1
0,0,0,17289,20019,10927,11012,13538,1
0,0,0,17254,19999,10915,11012,13496,1
0,0,0,17220,19960,10915,11012,13510,1
0,0,0,17220,19921,10927,11036,13538,1
0,0,0,17152,19921,10915,11012,13566,1
0,0,0,17220,20039,10831,11012,13524,1
0,0,0,17634,20236,10819,10939,13510,1
0,0,0,18344,20335,11072,10927,13552,1
0,0,0,19155,20475,11109,10915,13566,1
0,0,0,19921,20737,11157,10891,13735,1
0,0,0,20395,21167,11182,10915,14108,1
0,0,0,20236,21395,11133,10915,13849,1
0,0,0,19689,21796,10963,10915,13454,1
0,0,0,19231,21882,10843,10891,13205,1
0,0,0,18820,21860,10712,10819,13040,1
0,0,0,18672,21796,10605,10795,13040,1
0,0,0,18417,21627,10348,10748,13068,1
0,0,0,18200,21500,10221,10676,13013,1
0,0,0,17986,21395,10117,10676,12959,1
0,0,0,17774,21395,10037,10629,12824,1
0,0,0,17495,21208,9980,10605,12797,1
0,0,0,17254,21043,10003,10594,12797,1
0,0,0,17254,21002,10049,10582,12730,1
0,0,0,17495,21002,10163,10582,12690,1
0,0,0,18218,20818,10313,10605,12690,1
0,0,0,19099,20696,10488,10700,12690,1
0,0,0,19650,20615,10488,10712,12636,1
0,0,0,20157,20315,10535,10748,12690,1
0,0,0,20575,19921,10771,10783,12756,1
0,0,0,20981,19650,11145,10927,13343,1
0,0,0,21375,19727,11206,11121,14137,1
0,0,0,21542,19727,11206,11206,14577,1
0,0,0,21563,19689,11219,11268,14636,1
0,0,0,21542,19612,11206,11255,14607,1
0,0,0,21479,19650,11133,11206,14547,1
0,0,0,21270,19631,11012,11157,14636,1
0,0,0,21043,19612,10903,11157,15350,1
0,0,0,20798,19631,10771,11219,16254,1
0,0,0,20555,19689,10700,11329,16582,1
0,0,0,20415,19727,10617,11366,16632,1
0,0,0,20315,19650,10535,11354,16434,1
0,0,0,20216,19708,10371,11255,16222,1
0,0,0,20078,19612,10267,11121,15964,1
0,0,0,19999,19516,10221,11012,15584,1
0,0,0,20039,19497,10174,10939,15521,1
0,0,0,20078,19650,10174,10891,15490,1
0,0,0,20019,19727,10163,10879,15397,1
0,0,0,20039,19708,10174,10867,15273,1
0,0,0,19980,19727,10163,10855,15165,1
0,0,0,19999,19708,10163,10831,14922,1
0,0,0,19960,19766,10174,10819,14816,1
0,0,0,19902,19689,10209,10819,14726,1
0,0,0,19999,19554,10278,10819,14636,1
0,0,0,20216,19535,10371,10831,14696,1
0,0,0,20676,19458,10891,10915,15537,1
0,0,0,21208,19573,11121,11012,16483,1
0,0,0,22010,19766,11206,11048,16882,1
0,0,0,22687,20019,11329,11109,17220,1
0,0,0,22932,20039,11403,11157,17186,1
0,0,0,22932,20098,11453,11157,17152,1
0,0,0,23044,20157,11553,11231,17186,1
0,0,0,22999,20256,11665,11317,17461,1
0,0,0,22776,20196,11716,11416,17478,1
0,0,0,22621,20098,11703,11416,17426,1
0,0,0,22510,20078,11703,11428,17323,1
0,0,0,22510,20078,11653,11416,17289,1
0,0,0,22510,19999,11653,11403,17186,1
0,0,0,22488,19999,11653,11428,17203,1
0,0,0,22510,19999,11653,11416,17186,1
0,0,0,22444,19999,11416,11354,16949,1
0,0,0,22096,19882,11072,11109,16516,1
0,0,0,22010,19882,11036,11109,16434,1
0,0,0,22010,19921,11024,11072,16417,1
0,0,0,22010,19902,11060,11084,16303,1
0,0,0,22248,19863,11255,11121,16434,1
0,0,0,22313,19882,11403,11182,16516,1
0,0,0,22313,19863,11465,11206,16549,1
0,0,0,22357,19921,11465,11231,16681,1
0,0,0,22423,19921,11528,11280,16815,1
0,0,0,22488,19921,11553,11304,16882,1
0,0,0,22510,19960,11578,11329,16915,1
0,0,0,22665,19960,11553,11329,16949,1
0,0,0,22887,19999,11615,11354,16983,1
0,0,0,23225,20117,11653,11403,17101,1
0,0,0,23615,20315,11691,11403,17203,1
0,0,0,23754,20395,11703,11403,17186,1
0,0,0,23800,20435,11703,11403,17186,1
0,0,0,23707,20475,11703,11403,17220,1
0,0,0,23661,20515,11728,11428,17426,1
0,0,0,23522,20515,11817,11478,17565,1
0,0,0,23522,20495,11957,11553,17739,1
0,0,0,23477,20435,11957,11553,17634,1
0,0,0,23431,20395,11906,11540,17530,1
0,0,0,23294,20335,11830,11503,17306,1
0,0,0,23225,20315,11804,11478,17186,1
0,0,0,23248,20315,11804,11465,17033,1
0,0,0,23499,20335,12073,11540,17118,1
0,0,0,23730,20315,12530,11804,17306,1
0,0,0,23754,20335,12570,11906,17357,1
0,0,0,23707,20395,12583,11944,17357,1
0,0,0,23661,20335,12556,11906,17357,1
0,0,0,23431,20395,12163,11804,17186,1
0,0,0,23157,20475,11565,11553,16999,1
0,0,0,22977,20495,11280,11453,16915,1
0,0,0,22843,20435,11157,11465,16966,1
0,0,0,22621,20355,11084,11553,17374,1
0,0,0,22510,20395,10987,11728,17757,1
0,0,0,22401,20315,10879,11766,17774,1
0,0,0,22161,20275,10629,11665,17495,1
0,0,0,21796,20196,10371,11403,17289,1
0,0,0,21458,20176,10255,11084,16715,1
0,0,0,21270,20117,10209,10951,16271,1
0,0,0,21125,19960,10163,10939,16222,1
0,0,0,21043,19882,10163,10963,16499,1
0,0,0,21043,19805,10163,11036,17016,1
0,0,0,21084,19689,10140,11206,17652,1
0,0,0,21064,19631,10163,11206,17495,1
0,0,0,21125,19631,10174,11170,17289,1
0,0,0,21146,19689,10174,11121,17135,1
0,0,0,21146,19612,10186,11109,17016,1
0,0,0,21167,19650,10221,11109,16949,1
0,0,0,21229,19708,10255,11109,16882,1
0,0,0,21250,19727,10301,11084,16781,1
0,0,0,21270,19766,10348,11109,16715,1
0,0,0,21291,19766,10348,11109,16765,1
0,0,0,21333,19824,10348,11109,16781,1
0,0,0,21375,19843,10348,11109,16781,1
0,0,0,21375,19843,10348,11109,16781,1
0,0,0,21291,19843,10348,11109,16715,1
0,0,0,21291,19805,10348,11109,16748,1
0,0,0,21229,19843,10371,11109,16731,1
0,0,0,21270,19843,10406,11133,16698,1
0,0,0,21229,19785,10406,11133,16698,1
0,0,0,21208,19843,10394,11109,16715,1
0,0,0,21208,19785,10394,11121,16698,1
0,0,0,21208,19843,10394,11133,16665,1
0,0,0,21208,19843,10394,11133,16681,1
0,0,0,21146,19785,10406,11109,16615,1
0,0,0,21146,19805,10418,11109,16681,1
0,0,0,21125,19766,10453,11133,16648,1
0,0,0,21084,19766,10464,11109,16632,1
0,0,0,21105,19766,10488,11157,16648,1
0,0,0,21022,19727,10511,11157,16681,1
0,0,0,21043,19689,10511,11170,16648,1
0,0,0,20961,19689,10535,11170,16615,1
0,0,0,21043,19708,10523,11182,16615,1
0,0,0,20981,19689,10546,11206,16648,1
0,0,0,20961,19689,10570,11206,16648,1
0,0,0,20961,19708,10558,11206,16632,1
0,0,0,20961,19708,10582,11206,16582,1
0,0,0,20961,19689,10617,11231,16648,1
0,0,0,20961,19689,10629,11231,16615,1
0,0,0,20940,19708,10629,11231,16598,1
0,0,0,20961,19689,10676,11255,16565,1
0,0,0,20940,19689,10676,11219,16615,1
0,0,0,20981,19689,10676,11255,16615,1
0,0,0,20961,19650,10676,11243,16615,1
0,0,0,20961,19708,10712,11255,16598,1
0,0,0,20961,19689,10700,11255,16565,1
0,0,0,20961,19746,10676,11206,16549,1
0,0,0,20961,19708,10688,11219,16549,1
0,0,0,20981,19727,10748,11219,16549,1
0,0,0,21064,19805,10748,11182,16532,1
0,0,0,21229,19882,10582,11109,16303,1
0,0,0,21354,20256,10453,10915,15521,1
0,0,0,21250,20636,10371,10771,14997,1
0,0,0,21043,20335,10371,10748,14876,1
0,0,0,20961,20098,10371,10748,14967,1
0,0,0,20961,20019,10371,10748,15058,1
0,0,0,21002,19999,10371,10771,15242,1
0,0,0,20981,20039,10371,10795,15490,1
0,0,0,20961,19999,10359,11024,16319,1
0,0,0,20879,19902,10371,11194,16549,1
0,0,0,20879,19843,10371,11206,16385,1
0,0,0,20818,19805,10371,11206,16271,1
0,0,0,20798,19843,10394,11206,16287,1
0,0,0,20798,19843,10441,11206,16254,1
0,0,0,20757,19785,10488,11206,16222,1
0,0,0,20757,19766,10523,11206,16189,1
0,0,0,20757,19766,10535,11219,16157,1
0,0,0,20737,19746,10546,11206,16157,1
0,0,0,20716,19766,10629,11219,16125,1
0,0,0,20737,19766,10641,11206,16173,1
0,0,0,20757,19766,10664,11206,16141,1
0,0,0,20838,19766,10676,11219,16157,1
0,0,0,20920,19766,10688,11219,16157,1
0,0,0,21542,19999,10975,11219,16222,1
0,0,0,22010,20216,11170,11206,16287,1
0,0,0,22140,20236,11255,11219,16352,1
0,0,0,22226,20275,11428,11231,16467,1
0,0,0,22423,20275,11817,11304,16715,1
0,0,0,22709,20236,12009,11403,16949,1
0,0,0,23112,20256,12583,11628,17374,1
0,0,0,23339,20157,12649,11766,17323,1
0,0,0,23135,20157,12163,11653,16898,1
0,0,0,22488,19999,11855,11503,16648,1
0,0,0,21375,19766,12267,11603,16715,1
0,0,0,20676,19689,12411,11653,16781,1
0,0,0,20415,19573,12398,11678,16781,1
0,0,0,20315,19344,12346,11628,16665,1
0,0,0,20315,19080,12163,11603,16648,1
0,0,0,19785,19099,12086,11553,16615,1
0,0,0,19325,19080,12009,11553,16565,1
0,0,0,18344,19043,12009,11528,16582,1
0,0,0,16715,19099,12034,11565,16549,1
0,0,0,15568,19099,11996,11565,16565,1
0,0,0,14621,19080,11957,11565,16549,1
0,0,0,14050,19080,11944,11565,16516,1
0,0,0,13863,19080,11957,11553,16483,1
0,0,0,13849,19080,11957,11578,16499,1
0,0,0,13792,19136,11957,11553,16516,1
0,0,0,13764,19099,11932,11553,16499,1
0,0,0,13693,19080,11932,11553,16499,1
0,0,0,13650,19043,11957,11553,16483,1
0,0,0,13580,19080,11957,11528,16467,1
0,0,0,13566,19005,11983,11528,16483,1
0,0,0,13566,19043,12009,11528,16516,1
0,0,0,13524,19080,12009,11553,16467,1
0,0,0,13454,19080,12009,11553,16434,1
0,0,0,13412,19118,11881,11528,16417,1
0,0,0,13398,19099,11255,11304,16417,1
0,0,0,13496,19118,11024,11280,16352,1
0,0,0,13566,19174,10927,11255,16352,1
0,0,0,13594,19231,10867,11255,16287,1
0,0,0,13622,19231,10819,11219,16287,1
0,0,0,13622,19231,10724,11219,16319,1
0,0,0,13622,19193,10676,11268,16352,1
0,0,0,13679,19193,10700,11255,16352,1
0,0,0,13693,19193,10724,11268,16352,1
0,0,0,13749,19155,10736,11268,16319,1
0,0,0,13792,19212,10771,11280,16319,1
0,0,0,13821,19155,10783,11255,16287,1
0,0,0,13792,19155,10819,11280,16336,1
0,0,0,13764,19155,10795,11255,16352,1
0,0,0,13622,19099,10843,11255,16352,1
0,0,0,13552,19024,10915,11268,16319,1
0,0,0,13510,19024,10939,11280,16352,1
0,0,0,13398,19043,10915,11268,16385,1
0,0,0,13343,19080,10915,11268,16385,1
0,0,0,13301,19005,10927,11304,16417,1
0,0,0,13315,19043,10927,11268,16417,1
0,0,0,13412,19118,11060,11317,16467,1
0,0,0,13371,19193,11121,11304,16549,1
0,0,0,13482,19325,11109,11304,16549,1
0,0,0,13921,19420,11133,11304,16582,1
0,0,0,14209,19401,11157,11304,16565,1
0,0,0,14282,19344,11157,11317,16582,1
0,0,0,14137,19325,11170,11317,16582,1
0,0,0,13949,19231,11157,11379,16615,1
0,0,0,13735,19193,11194,11354,16549,1
0,0,0,13566,19118,11206,11354,16549,1
0,0,0,13398,19118,11206,11366,16516,1
0,0,0,13205,19080,11219,11354,16516,1
0,0,0,12972,19099,11206,11366,16499,1
0,0,0,12864,19118,11219,11354,16549,1
0,0,0,12797,19155,11206,11366,16565,1
0,0,0,12770,19099,11268,11379,16565,1
0,0,0,12743,19099,11268,11379,16565,1
0,0,0,12730,19118,11268,11379,16615,1
0,0,0,12690,19099,11304,11391,16615,1
0,0,0,12676,19136,11304,11403,16598,1
0,0,0,12636,19155,11280,11416,16632,1
0,0,0,12623,19155,11304,11428,16615,1
0,0,0,12610,19136,11304,11428,16632,1
0,0,0,12636,19118,11354,11428,16665,1
0,0,0,12583,19155,11366,11453,16681,1
0,0,0,12610,19193,11379,11453,16681,1
0,0,0,12610,19193,11379,11453,16681,1
0,0,0,12583,19174,11379,11478,16698,1
0,0,0,12543,19193,11391,11440,16715,1
0,0,0,12530,19231,11416,11453,16698,1
0,0,0,12543,19231,11403,11440,16681,1
0,0,0,12583,19287,11403,11453,16648,1
0,0,0,12690,19306,11403,11465,16715,1
0,0,0,12663,19287,11416,11453,16698,1
0,0,0,12690,19325,11403,11453,16698,1
0,0,0,12703,19306,11403,11478,16681,1
0,0,0,12690,19325,11416,11478,16715,1
0,0,0,12690,19306,11416,11478,16698,1
0,0,0,12716,19344,11403,11478,16681,1
0,0,0,12743,19344,11416,11478,16715,1
0,0,0,12756,19344,11403,11478,16748,1
0,0,0,12770,19382,11428,11465,16748,1
0,0,0,12797,19458,11428,11453,16748,1
0,0,0,12797,19439,11416,11478,16748,1
0,0,0,12851,19477,11428,11490,16748,1
0,0,0,12932,19612,11440,11478,16748,1
0,0,0,12972,19689,11453,11503,16815,1
0,0,0,13027,19766,11416,11503,16781,1
0,0,0,13068,19921,11416,11503,16815,1
0,0,0,13081,19999,11428,11503,16815,1
0,0,0,13040,20019,11403,11503,16765,1
0,0,0,13054,20098,11379,11503,16748,1
0,0,0,13095,20078,11379,11503,16748,1
0,0,0,13081,20039,11366,11503,16681,1
0,0,0,13109,19999,11354,11503,16681,1
0,0,0,13122,19960,11354,11503,16731,1
0,0,0,13274,19921,11354,11503,16681,1
0,0,0,13287,19902,11341,11503,16681,1
0,0,0,13287,19843,11341,11478,16648,1
0,0,0,13246,19921,11317,11478,16681,1
0,0,0,13205,19960,11329,11478,16681,1
0,0,0,13205,20019,11366,11503,16698,1
0,0,0,13205,20157,11379,11490,16698,1
0,0,0,13274,20256,11366,11478,16748,1
0,0,0,13482,20275,11366,11515,16748,1
0,0,0,13650,20275,11354,11528,16748,1
0,0,0,13650,20315,11366,11528,16781,1
0,0,0,13792,20415,11379,11553,16815,1
0,0,0,13792,20335,11391,11528,16765,1
0,0,0,13821,20315,11354,11528,16748,1
0,0,0,13906,20315,11354,11540,16698,1
0,0,0,13906,20256,11354,11515,16715,1
0,0,0,13921,20196,11354,11528,16748,1
0,0,0,13863,20157,11354,11503,16731,1
0,0,0,13878,20098,11354,11478,16715,1
0,0,0,13863,20078,11354,11503,16681,1
0,0,0,13849,20058,11354,11515,16698,1
0,0,0,13821,19999,11366,11528,16698,1
0,0,0,13849,20019,11354,11528,16681,1
0,0,0,13849,19999,11354,11528,16681,1
0,0,0,13849,19980,11366,11503,16632,1
0,0,0,13849,19941,11354,11503,16615,1
0,0,0,13964,19980,11354,11503,16665,1
0,0,0,14166,20098,11354,11503,16681,1
0,0,0,14166,20058,11366,11528,16681,1
0,0,0,14166,20117,11354,11528,16698,1
0,0,0,14108,20157,11366,11553,16648,1
0,0,0,14079,19960,11379,11540,16681,1
0,0,0,14253,19727,11428,11553,16781,1
0,0,0,14282,19497,11528,11603,16815,1
0,0,0,14253,19344,11578,11615,16848,1
0,0,0,14151,19306,11603,11603,16831,1
0,0,0,14122,19231,11628,11615,16882,1
0,0,0,14079,19193,11603,11615,16831,1
0,0,0,14050,19118,11578,11615,16831,1
0,0,0,14079,19136,11553,11628,16848,1
0,0,0,14021,19099,11553,11653,16882,1
0,0,0,14021,19061,11565,11603,16865,1
0,0,0,13992,19080,11565,11628,16865,1
0,0,0,13964,19043,11553,11653,16882,1
0,0,0,13906,19043,11565,11653,16882,1
0,0,0,13650,19043,11578,11665,16848,1
0,0,0,13468,19080,11578,11653,16865,1
0,0,0,13371,19043,11553,11653,16848,1
0,0,0,13315,19005,11565,11628,16815,1
0,0,0,13232,19043,11553,11653,16815,1
0,0,0,13068,19005,11553,11653,16798,1
0,0,0,12797,19043,11528,11615,16781,1
0,0,0,12676,19043,11503,11615,16781,1
0,0,0,12583,19080,11503,11615,16748,1
0,0,0,12636,19193,11503,11590,16715,1
0,0,0,12959,19325,11503,11578,16681,1
0,0,0,13454,19420,11478,11578,16681,1
0,0,0,13849,19535,11478,11578,16681,1
0,0,0,14444,19785,11453,11553,16648,1
0,0,0,15028,20019,11416,11553,16632,1
0,0,0,15868,20355,11528,11553,16615,1
0,0,0,16582,20737,12163,11653,16698,1
0,0,0,16549,20879,12490,11830,16865,1
0,0,0,16781,21208,12770,12009,17084,1
0,0,0,17152,21711,12824,12060,17016,1
0,0,0,17220,21967,12623,12009,16915,1
0,0,0,17220,22118,12543,11957,16815,1
0,0,0,17495,22313,12137,11792,16598,1
0,0,0,17880,22423,11366,11453,16319,1
0,0,0,18147,22532,10903,11268,16189,1
0,0,0,18272,22599,10488,11145,16093,1
0,0,0,18129,22621,10325,11036,15900,1
0,0,0,18022,22643,10209,10963,15694,1
0,0,0,17880,22576,10163,10891,15600,1
0,0,0,17845,22444,10140,10891,15584,1
0,0,0,17933,22444,10163,10879,15506,1
0,0,0,18236,22510,10255,10867,15521,1
0,0,0,18417,22532,10325,10891,15521,1
0,0,0,18581,22510,10348,10903,15584,1
0,0,0,18709,22599,10301,10891,15521,1
0,0,0,18709,22576,10255,10867,15506,1
0,0,0,18783,22754,10209,10867,15475,1
0,0,0,18746,22665,10209,10867,15475,1
0,0,0,18783,22621,10209,10867,15459,1
0,0,0,18709,22621,10221,10867,15397,1
0,0,0,18672,22599,10255,10867,15397,1
0,0,0,18764,22554,10255,10843,15412,1
0,0,0,19401,22576,10301,10867,15459,1
0,0,0,19689,22621,10301,10867,15397,1
0,0,0,19921,22709,10301,10855,15459,1
0,0,0,19863,22731,10301,10843,15397,1
0,0,0,19863,22599,10325,10855,15412,1
0,0,0,19766,22532,10325,10843,15428,1
0,0,0,19689,22532,10348,10843,15397,1
0,0,0,19612,22488,10348,10855,15397,1
0,0,0,19554,22444,10348,10867,15428,1
0,0,0,19497,22379,10348,10867,15412,1
0,0,0,19458,22313,10371,10867,15412,1
0,0,0,19382,22226,10383,10879,15428,1
0,0,0,19249,22183,10406,10867,15459,1
0,0,0,19155,22140,10406,10879,15428,1
0,0,0,19099,22096,10418,10867,15443,1
0,0,0,19080,22075,10418,10879,15412,1
0,0,0,19099,22053,10441,10879,15443,1
0,0,0,19061,22053,10406,10867,15443,1
0,0,0,19043,22010,10418,10879,15459,1
0,0,0,19024,22010,10453,10879,15412,1
0,0,0,18931,21924,10511,10867,15412,1
0,0,0,18801,21818,10511,10879,15412,1
0,0,0,18746,21796,10523,10891,15412,1
0,0,0,18709,21796,10535,10915,15428,1
0,0,0,18746,21796,10535,10903,15412,1
0,0,0,18709,21796,10546,10891,15428,1
0,0,0,18672,21754,10570,10891,15412,1
0,0,0,18709,21711,10582,10915,15397,1
0,0,0,18654,21711,10605,10915,15428,1
0,0,0,18635,21690,10605,10891,15459,1
0,0,0,18599,21627,10629,10915,15412,1
0,0,0,18562,21627,10641,10915,15412,1
0,0,0,18562,21584,10641,10915,15412,1
0,0,0,18562,21606,10629,10927,15412,1
0,0,0,18581,21584,10629,10915,15412,1
0,0,0,18562,21584,10629,10915,15428,1
0,0,0,18508,21584,10629,10915,15412,1
0,0,0,18508,21542,10629,10915,15428,1
0,0,0,18508,21584,10641,10915,15459,1
0,0,0,18453,21542,10653,10915,15412,1
0,0,0,18489,21542,10676,10915,15397,1
0,0,0,18453,21521,10676,10915,15443,1
0,0,0,18435,21563,10712,10915,15397,1
0,0,0,18453,21479,10748,10915,15428,1
0,0,0,18435,21458,10771,10939,15443,1
0,0,0,18399,21416,10771,10939,15459,1
0,0,0,18380,21458,10783,10939,15412,1
0,0,0,18362,21458,10795,10927,15397,1
0,0,0,18362,21416,10819,10927,15397,1
0,0,0,18344,21395,10819,10915,15397,1
0,0,0,18344,21458,10819,10927,15397,1
0,0,0,18380,21395,10807,10939,15412,1
0,0,0,18380,21375,10795,10915,15366,1
0,0,0,18308,21291,10783,10927,15366,1
0,0,0,18129,21250,10795,10915,15397,1
0,0,0,17933,21208,10759,10939,15412,1
0,0,0,17600,21064,10724,10939,15412,1
0,0,0,16483,20575,10700,10939,15412,1
0,0,0,15584,20019,10712,10963,15459,1
0,0,0,15165,19689,10748,10963,15506,1
0,0,0,15058,19382,10831,10987,15537,1
0,0,0,14937,19306,10963,11024,15600,1
0,0,0,14907,19249,10963,11024,15631,1
0,0,0,14907,19306,10819,11024,15647,1
0,0,0,14922,19306,10771,11036,15615,1
0,0,0,14997,19306,10795,11060,15647,1
0,0,0,15119,19249,10819,11012,15631,1
0,0,0,15227,19249,10843,11024,15584,1
0,0,0,15273,19231,10819,11024,15631,1
0,0,0,15288,19231,10843,11012,15615,1
0,0,0,15335,19231,10867,11024,15584,1
0,0,0,15397,19231,10879,11036,15584,1
0,0,0,15459,19231,10867,11036,15615,1
0,0,0,15490,19212,10867,11024,15584,1
0,0,0,15490,19231,10867,11012,15600,1
0,0,0,15459,19193,10867,11060,15584,1
0,0,0,15459,19193,10867,11024,15537,1
0,0,0,15490,19193,10867,11012,15584,1
0,0,0,15475,19193,10879,11024,15584,1
0,0,0,15490,19193,10891,11024,15553,1
0,0,0,15521,19193,10867,11012,15553,1
0,0,0,15521,19193,10891,11024,15553,1
0,0,0,15506,19231,10927,11048,15553,1
0,0,0,15537,19193,10915,11024,15553,1
0,0,0,15553,19212,10915,11060,15537,1
0,0,0,15584,19193,10927,11036,15553,1
0,0,0,15553,19174,10939,11036,15537,1
0,0,0,15568,19155,10915,11012,15521,1
0,0,0,15584,19174,10927,11036,15584,1
0,0,0,15615,19174,10939,11048,15521,1
0,0,0,15615,19136,10963,11036,15537,1
0,0,0,15600,19155,10963,11024,15553,1
0,0,0,15615,19155,10963,11012,15521,1
0,0,0,15600,19155,10963,11024,15553,1
0,0,0,15615,19193,11012,11024,15553,1
0,0,0,15647,19174,11024,11024,15537,1
0,0,0,15678,19155,11012,11060,15537,1
0,0,0,15663,19193,11012,11036,15537,1
0,0,0,15678,19155,11024,11036,15553,1
0,0,0,15710,19174,11024,11036,15537,1
0,0,0,15741,19193,11012,11048,15537,1
0,0,0,15837,19231,11012,11024,15521,1
0,0,0,15980,19231,11012,11024,15553,1
0,0,0,16303,19306,11157,11072,15521,1
0,0,0,16582,19458,11528,11206,15537,1
0,0,0,17461,19669,11503,11231,15553,1
0,0,0,17862,19843,11354,11206,15553,1
0,0,0,18218,19999,11268,11182,15553,1
0,0,0,18344,20256,11133,11109,15521,1
0,0,0,18508,20495,10819,11060,15459,1
0,0,0,18672,20838,10499,10987,15428,1
0,0,0,18654,21064,10371,10915,15397,1
0,0,0,18435,21167,10348,10867,15242,1
0,0,0,18129,21250,10325,10819,15119,1
0,0,0,17933,21250,10278,10759,15043,1
0,0,0,17652,21125,10221,10724,14503,1
0,0,0,17582,21105,10197,10724,14195,1
0,0,0,17530,20981,10129,10700,15119,1
0,0,0,17461,20879,10071,10688,16648,1
0,0,0,17357,20838,10003,10676,16715,1
0,0,0,17289,20818,9980,10629,16681,1
0,0,0,17254,20818,10003,10688,16748,1
0,0,0,17254,20879,10071,10819,17084,1
0,0,0,17357,20981,10094,10927,17169,1
0,0,0,17374,21022,10117,10963,17067,1
0,0,0,17426,21002,10117,11024,17101,1
0,0,0,17426,21043,10117,11280,17101,1
0,0,0,17374,20981,10094,11453,17152,1
0,0,0,17374,20961,10129,11453,17084,1
0,0,0,17392,20981,10140,11379,17016,1
0,0,0,17426,20879,10209,11366,17067,1
0,0,0,17461,20676,10232,11354,17016,1
0,0,0,17495,20555,10255,11255,16983,1
0,0,0,17443,20515,10278,11206,16882,1
0,0,0,17443,20555,10290,11182,16781,1
0,0,0,17426,20495,10301,11170,16815,1
0,0,0,17443,20475,10301,11206,16715,1
0,0,0,17426,20435,10371,11182,16748,1
0,0,0,17443,20395,10394,11182,16698,1
0,0,0,17443,20415,10418,11182,16715,1
0,0,0,17426,20295,10394,11133,16648,1
0,0,0,17426,20275,10406,11133,16648,1
0,0,0,17426,20355,10418,11109,16632,1
0,0,0,17461,20335,10418,11109,16582,1
0,0,0,17530,20375,10441,11109,16565,1
0,0,0,17461,20355,10441,11084,16499,1
0,0,0,17426,20256,10453,11109,16483,1
0,0,0,17374,20236,10464,11084,16499,1
0,0,0,17374,20236,10453,11084,16516,1
0,0,0,17392,20236,10441,11060,16450,1
0,0,0,17357,20636,10394,11024,16303,1
0,0,0,17306,20879,10267,10927,16109,1
0,0,0,17067,20676,10117,10879,16157,1
0,0,0,16949,20676,10026,10771,16173,1
0,0,0,16815,20818,10026,10748,16206,1
0,0,0,16598,20940,9980,10700,16319,1
0,0,0,16417,21002,9969,10676,15916,1
0,0,0,16385,21064,10003,10676,15412,1
0,0,0,16352,21084,10140,10676,14726,1
0,0,0,16401,21084,10221,10676,14488,1
0,0,0,16385,21043,10221,10676,14444,1
0,0,0,16450,21043,10301,10676,14399,1
0,0,0,16549,20879,10394,10700,14399,1
0,0,0,16681,20818,10441,10724,14341,1
0,0,0,16698,20777,10441,10748,14399,1
0,0,0,16715,20798,10441,10748,14518,1
0,0,0,16615,20798,10418,10771,14547,1
0,0,0,16516,20798,10394,10748,14607,1
0,0,0,16516,20737,10394,10771,15028,1
0,0,0,16499,20777,10383,10748,15397,1
0,0,0,16434,20818,10348,10748,15964,1
0,0,0,16516,20818,10348,10795,16681,1
0,0,0,16582,20838,10394,10843,16483,1
0,0,0,16715,20676,10488,10879,16157,1
0,0,0,16831,20435,10464,10891,16060,1
0,0,0,16966,20176,10488,10879,15996,1
0,0,0,17152,20078,10488,10903,16012,1
0,0,0,17237,20157,10488,10963,16319,1
0,0,0,17392,20078,10488,11121,16648,1
0,0,0,17495,20039,10488,11317,17016,1
0,0,0,17513,19960,10523,11379,17084,1
0,0,0,17530,19960,10582,11428,17050,1
0,0,0,17565,19921,10605,11440,16915,1
0,0,0,17600,19921,10629,11403,16798,1
0,0,0,17652,19882,10688,11416,16781,1
0,0,0,17669,19921,10748,11440,16798,1
0,0,0,17634,19882,10771,11453,16865,1
0,0,0,17634,19921,10748,11478,16781,1
0,0,0,17669,19921,10700,11453,16698,1
0,0,0,17792,19921,10676,11403,16483,1
0,0,0,17845,20039,10605,11354,16417,1
0,0,0,17915,20078,10629,11317,16352,1
0,0,0,18236,19980,10676,11317,16368,1
0,0,0,18783,20078,10748,11255,16385,1
0,0,0,19535,20176,10819,11219,16385,1
0,0,0,20656,20475,11157,11206,16949,1
0,0,0,22053,20818,11453,11453,17915,1
0,0,0,22776,21043,11703,11553,18581,1
0,0,0,22887,20920,11716,11565,18709,1
0,0,0,22865,20818,11653,11528,18581,1
0,0,0,22621,20676,11453,11440,18236,1
0,0,0,22335,20555,11292,11366,18022,1
0,0,0,22010,20555,11157,11304,17845,1
0,0,0,21669,20656,10891,11231,17634,1
0,0,0,21125,20676,10511,11170,17426,1
0,0,0,20676,20757,10301,11060,17289,1
0,0,0,20295,20838,10186,10963,17084,1
0,0,0,20078,20798,10163,10891,16882,1
0,0,0,19999,20818,10117,10843,16765,1
0,0,0,19785,20716,10129,10819,16665,1
0,0,0,19650,20737,10117,10795,16549,1
0,0,0,19516,20676,10129,10807,16499,1
0,0,0,18746,20335,10163,10783,16434,1
0,0,0,17600,19766,10232,10819,16417,1
0,0,0,16949,19401,10255,10819,16417,1
0,0,0,16401,19061,10255,10819,16450,1
0,0,0,15397,18562,10232,10819,16450,1
0,0,0,14922,18236,10221,10819,16483,1
0,0,0,14518,17986,10221,10831,16549,1
0,0,0,14137,17513,10232,10819,16483,1
0,0,0,14108,17392,10255,10831,16499,1
0,0,0,14282,17426,10255,10831,16516,1
0,0,0,14907,17634,10301,10843,16549,1
0,0,0,16238,18200,10476,10831,16499,1
0,0,0,17289,18746,10418,10819,16483,1
0,0,0,18057,19231,10348,10771,16352,1
0,0,0,18801,19766,10278,10771,16254,1
0,0,0,19155,20098,10244,10759,16238,1
0,0,0,19650,20475,10209,10771,16222,1
0,0,0,20117,20777,10232,10748,16206,1
0,0,0,20435,20879,10278,10748,16222,1
0,0,0,20757,20899,10348,10748,16189,1
0,0,0,20961,20879,10394,10759,16222,1
0,0,0,21125,20737,10476,10771,16352,1
0,0,0,20920,20355,10535,10819,16401,1
0,0,0,20920,20315,10535,10819,16417,1
0,0,0,20879,20315,10546,10819,16401,1
0,0,0,20899,20335,10523,10795,16434,1
0,0,0,20899,20395,10488,10795,16417,1
0,0,0,20716,20395,10453,10795,16385,1
0,0,0,20435,20435,10406,10795,16385,1
0,0,0,20019,20315,10348,10879,16549,1
0,0,0,19843,20236,10325,10987,16765,1
0,0,0,19824,20039,10325,11060,17033,1
0,0,0,19766,19960,10348,11084,17084,1
0,0,0,19766,19863,10383,11109,17101,1
0,0,0,19708,19843,10406,11133,17357,1
0,0,0,19766,19805,10441,11133,17357,1
0,0,0,19689,19766,10488,11182,17323,1
0,0,0,19689,19766,10499,11255,17254,1
0,0,0,19650,19766,10582,11268,17220,1
0,0,0,19592,19746,10629,11304,17101,1
0,0,0,19535,19746,10676,11292,17050,1
0,0,0,19573,19785,10653,11292,16966,1
0,0,0,19535,19727,10676,11268,16949,1
0,0,0,19497,19727,10676,11268,16915,1
0,0,0,19516,19689,10653,11280,16898,1
0,0,0,19477,19766,10629,11280,16949,1
0,0,0,19554,19882,10629,11255,16815,1
0,0,0,19631,20039,10629,11231,16582,1
0,0,0,19805,20039,10629,11206,16434,1
0,0,0,19921,20157,10582,11182,16434,1
0,0,0,20078,20555,10582,11206,16549,1
0,0,0,20117,20838,10582,11206,16748,1
0,0,0,20236,20920,10629,11182,16698,1
0,0,0,20335,21229,10700,11133,16238,1
0,0,0,20475,21521,10676,11109,15710,1
0,0,0,20395,21542,10641,11084,15273,1
0,0,0,20475,21627,10664,11036,15119,1
0,0,0,20395,21479,10641,10999,15043,1
0,0,0,20275,21416,10676,11012,14967,1
0,0,0,20098,21291,10688,10999,14922,1
0,0,0,19999,21167,10724,11012,14876,1
0,0,0,19824,21002,10771,10987,14846,1
0,0,0,19785,20920,10795,11012,14876,1
0,0,0,19766,20879,10915,11024,14922,1
0,0,0,19766,20737,11012,11060,14907,1
0,0,0,19766,20716,11012,11084,14846,1
0,0,0,19689,20676,11024,11060,14861,1
0,0,0,19650,20636,11036,11084,14846,1
0,0,0,19689,20636,11048,11060,14846,1
0,0,0,19650,20696,11060,11060,14846,1
0,0,0,19689,20636,11072,11072,14861,1
0,0,0,19631,20656,11084,11060,14846,1
0,0,0,19650,20636,11109,11072,14846,1
0,0,0,19612,20636,11084,11060,14861,1
0,0,0,19650,20636,11109,11060,14816,1
0,0,0,19612,20575,11084,11084,14876,1
0,0,0,19554,20555,11084,11084,14876,1
0,0,0,19573,20555,11084,11060,14846,1
0,0,0,19592,20575,11109,11060,14861,1
0,0,0,19573,20555,11084,11060,14907,1
