GyroX,GyroY,GyroZ,Thumb,Index,Middle,Ring,Pinky,Gesture
0.0,0.0,0.0,15227,11653,9733,11084,22932,4
0.0,0.0,0.0,15258,11628,9755,11084,22932,4
0.0,0.0,0.0,15242,11653,9733,11060,22932,4
0.0,0.0,0.0,15242,11653,9755,11109,22932,4
0.0,0.0,0.0,15227,11653,9755,11084,22887,4
0.0,0.0,0.0,15288,11678,9766,11084,22932,4
0.0,0.0,0.0,15273,11678,9755,11109,22932,4
0.0,0.0,0.0,15227,11703,9755,11109,23044,4
0.0,0.0,0.0,15273,11728,9766,11109,23022,4
0.0,0.0,0.0,15273,11741,9800,11133,22977,4
0.0,0.0,0.0,15258,11728,9777,11133,22999,4
0.0,0.0,0.0,15273,11766,9766,11133,22910,4
0.0,0.0,0.0,15242,11804,9766,11157,22932,4
0.0,0.0,0.0,15242,11779,9755,11157,22932,4
0.0,0.0,0.0,15273,11779,9777,11121,22955,4
0.0,0.0,0.0,15258,11804,9777,11157,22955,4
0.0,0.0,0.0,15242,11817,9766,11133,22932,4
0.0,0.0,0.0,15227,11804,9755,11145,22932,4
0.0,0.0,0.0,15227,11804,9800,11157,22887,4
0.0,0.0,0.0,15227,11804,9800,11133,22932,4
0.0,0.0,0.0,15242,11830,9766,11157,22955,4
0.0,0.0,0.0,15227,11842,9800,11182,22932,4
0.0,0.0,0.0,15242,11855,9811,11206,22932,4
0.0,0.0,0.0,15227,11842,9800,11206,22910,4
0.0,0.0,0.0,15242,11881,9800,11206,22887,4
0.0,0.0,0.0,15211,11881,9800,11219,22955,4
0.0,0.0,0.0,15242,11868,9800,11219,22887,4
0.0,0.0,0.0,15242,11906,9800,11219,22910,4
0.0,0.0,0.0,15273,11893,9811,11219,22887,4
0.0,0.0,0.0,15273,11868,9811,11231,23022,4
0.0,0.0,0.0,15288,11842,9800,11255,22865,4
0.0,0.0,0.0,15273,11855,9811,11255,22955,4
0.0,0.0,0.0,15273,11855,9800,11255,22887,4
0.0,0.0,0.0,15273,11881,9800,11268,22932,4
0.0,0.0,0.0,15273,11855,9800,11255,22932,4
0.0,0.0,0.0,15273,11868,9800,11268,22932,4
0.0,0.0,0.0,15288,11932,9800,11255,22865,4
0.0,0.0,0.0,15258,11906,9800,11255,22955,4
0.0,0.0,0.0,15273,11881,9811,11255,22932,4
0.0,0.0,0.0,15288,11957,9800,11268,22955,4
0.0,0.0,0.0,15288,11957,9811,11255,22932,4
0.0,0.0,0.0,15288,11944,9811,11255,22865,4
0.0,0.0,0.0,15288,11957,9800,11268,22932,4
0.0,0.0,0.0,15319,11957,9833,11280,22887,4
0.0,0.0,0.0,15288,11957,9811,11280,22932,4
0.0,0.0,0.0,15273,11957,9822,11280,22910,4
0.0,0.0,0.0,15273,11957,9845,11280,22865,4
0.0,0.0,0.0,15288,11983,9811,11280,22887,4
0.0,0.0,0.0,15288,11983,9811,11304,22887,4
0.0,0.0,0.0,15288,11970,9811,11304,22843,4
0.0,0.0,0.0,15273,11983,9800,11304,22843,4
0.0,0.0,0.0,15273,11983,9811,11304,22887,4
0.0,0.0,0.0,15288,11983,9833,11304,22843,4
0.0,0.0,0.0,15288,11983,9845,11304,22887,4
0.0,0.0,0.0,15288,12009,9822,11304,22910,4
0.0,0.0,0.0,15288,11983,9833,11304,22932,4
0.0,0.0,0.0,15304,12009,9867,11304,22932,4
0.0,0.0,0.0,15319,12021,9890,11317,22843,4
0.0,0.0,0.0,15335,12034,9867,11354,22843,4
0.0,0.0,0.0,15288,12034,9867,11354,22865,4
0.0,0.0,0.0,15288,12034,9890,11354,22887,4
0.0,0.0,0.0,15288,12060,9867,11354,22887,4
0.0,0.0,0.0,15335,12073,9867,11379,22865,4
0.0,0.0,0.0,15288,12034,9890,11366,22932,4
0.0,0.0,0.0,15288,12060,9878,11366,22887,4
0.0,0.0,0.0,15304,12060,9890,11379,22955,4
0.0,0.0,0.0,15288,12073,9890,11403,22887,4
0.0,0.0,0.0,15335,12060,9890,11403,22977,4
0.0,0.0,0.0,15335,12086,9890,11403,22932,4
0.0,0.0,0.0,15288,12086,9890,11416,22932,4
0.0,0.0,0.0,15335,12086,9890,11453,22955,4
0.0,0.0,0.0,15319,12060,9890,11478,22932,4
0.0,0.0,0.0,15335,12086,9890,11503,22932,4
0.0,0.0,0.0,15273,12086,9867,11515,22955,4
0.0,0.0,0.0,15335,12086,9890,11603,23067,4
0.0,0.0,0.0,15397,12073,9890,11728,23090,4
0.0,0.0,0.0,15397,12124,9867,11703,22977,4
0.0,0.0,0.0,15366,12086,9867,11691,22977,4
0.0,0.0,0.0,15350,12073,9856,11615,22887,4
0.0,0.0,0.0,15366,12073,9845,11515,22932,4
0.0,0.0,0.0,15397,12060,9822,11416,22977,4
0.0,0.0,0.0,15428,12060,9845,11379,23112,4
0.0,0.0,0.0,15397,12009,9811,11304,23112,4
0.0,0.0,0.0,15397,11970,9800,11354,23157,4
0.0,0.0,0.0,15397,11932,9800,11304,23203,4
0.0,0.0,0.0,15366,11970,9800,11280,23248,4
0.0,0.0,0.0,15366,11957,9788,11255,23248,4
0.0,0.0,0.0,15397,11957,9800,11255,23157,4
0.0,0.0,0.0,15366,11957,9788,11231,23090,4
0.0,0.0,0.0,15350,11957,9777,11219,23044,4
0.0,0.0,0.0,15381,12009,9800,11219,23044,4
0.0,0.0,0.0,15366,11970,9777,11219,22977,4
0.0,0.0,0.0,15397,11996,9777,11206,22955,4
0.0,0.0,0.0,15397,11983,9766,11219,22977,4
0.0,0.0,0.0,15366,12009,9755,11219,22977,4
0.0,0.0,0.0,15397,12009,9777,11206,22977,4
0.0,0.0,0.0,15428,12021,9777,11231,22932,4
0.0,0.0,0.0,15428,12060,9766,11206,22932,4
0.0,0.0,0.0,15412,12060,9777,11255,22932,4
0.0,0.0,0.0,15412,12086,9777,11219,22887,4
0.0,0.0,0.0,15397,12112,9800,11243,22932,4
0.0,0.0,0.0,15428,12112,9800,11255,22955,4
0.0,0.0,0.0,15366,12112,9766,11255,22910,4
0.0,0.0,0.0,15412,12124,9777,11268,22887,4
0.0,0.0,0.0,15412,12137,9788,11219,22955,4
0.0,0.0,0.0,15397,12163,9788,11255,22887,4
0.0,0.0,0.0,15397,12202,9800,11255,22887,4
0.0,0.0,0.0,15428,12202,9800,11268,22910,4
0.0,0.0,0.0,15428,12215,9800,11280,22932,4
0.0,0.0,0.0,15397,12228,9800,11268,22887,4
0.0,0.0,0.0,15397,12228,9800,11280,22865,4
0.0,0.0,0.0,15397,12241,9800,11304,22887,4
0.0,0.0,0.0,15397,12228,9811,11280,22887,4
0.0,0.0,0.0,15381,12267,9800,11268,22932,4
0.0,0.0,0.0,15397,12241,9800,11280,22932,4
0.0,0.0,0.0,15412,12267,9800,11304,22887,4
0.0,0.0,0.0,15366,12280,9811,11280,22843,4
0.0,0.0,0.0,15381,12293,9800,11304,22887,4
0.0,0.0,0.0,15397,12293,9811,11280,22887,4
0.0,0.0,0.0,15397,12320,9811,11292,22865,4
0.0,0.0,0.0,15350,12320,9811,11304,22843,4
0.0,0.0,0.0,15366,12320,9811,11304,22887,4
0.0,0.0,0.0,15335,12320,9845,11304,22932,4
0.0,0.0,0.0,15366,12333,9811,11317,22865,4
0.0,0.0,0.0,15366,12320,9811,11304,22887,4
0.0,0.0,0.0,15366,12346,9800,11317,22887,4
0.0,0.0,0.0,15350,12346,9822,11304,22887,4
0.0,0.0,0.0,15350,12346,9822,11329,22910,4
0.0,0.0,0.0,15335,12346,9811,11354,22843,4
0.0,0.0,0.0,15366,12372,9811,11354,22865,4
0.0,0.0,0.0,15381,12372,9811,11317,22843,4
0.0,0.0,0.0,15366,12398,9845,11379,22887,4
0.0,0.0,0.0,15366,12451,9833,11391,22865,4
0.0,0.0,0.0,15397,12464,9833,11403,22865,4
0.0,0.0,0.0,15335,12477,9845,11428,22910,4
0.0,0.0,0.0,15381,12477,9845,11453,22932,4
0.0,0.0,0.0,15366,12490,9867,11478,22932,4
0.0,0.0,0.0,15397,12504,9867,11478,22932,4
0.0,0.0,0.0,15366,12517,9856,11478,22887,4
0.0,0.0,0.0,15366,12530,9867,11503,22887,4
0.0,0.0,0.0,15397,12530,9890,11503,22865,4
0.0,0.0,0.0,15350,12556,9890,11528,22865,4
0.0,0.0,0.0,15397,12530,9890,11528,22932,4
0.0,0.0,0.0,15366,12556,9890,11553,22887,4
0.0,0.0,0.0,15366,12583,9901,11578,22887,4
0.0,0.0,0.0,15366,12570,9901,11553,22798,4
0.0,0.0,0.0,15366,12583,9912,11603,22843,4
0.0,0.0,0.0,15366,12570,9912,11590,22843,4
0.0,0.0,0.0,15366,12583,9935,11578,22798,4
0.0,0.0,0.0,15381,12583,9935,11565,22843,4
0.0,0.0,0.0,15397,12583,9946,11553,22820,4
0.0,0.0,0.0,15366,12583,9935,11553,22798,4
0.0,0.0,0.0,15397,12583,9935,11553,22798,4
0.0,0.0,0.0,15428,12556,9946,11553,22843,4
0.0,0.0,0.0,15428,12570,9935,11565,22776,4
0.0,0.0,0.0,15443,12583,9935,11578,22798,4
0.0,0.0,0.0,15428,12583,9946,11603,22843,4
0.0,0.0,0.0,15459,12570,9935,11603,22798,4
0.0,0.0,0.0,15459,12556,9946,11603,22798,4
0.0,0.0,0.0,15459,12583,9958,11640,22843,4
0.0,0.0,0.0,15475,12556,9946,11603,22798,4
0.0,0.0,0.0,15459,12543,9958,11628,22843,4
0.0,0.0,0.0,15521,12530,9969,11615,22865,4
0.0,0.0,0.0,15568,12530,9946,11615,22932,4
0.0,0.0,0.0,15553,12556,9946,11628,22932,4
0.0,0.0,0.0,15490,12530,9958,11615,22955,4
0.0,0.0,0.0,15584,12530,9958,11653,22977,4
0.0,0.0,0.0,15584,12530,9958,11615,22932,4
0.0,0.0,0.0,15537,12530,9958,11615,22887,4
0.0,0.0,0.0,15537,12530,9946,11603,22932,4
0.0,0.0,0.0,15521,12530,9946,11615,22887,4
0.0,0.0,0.0,15553,12530,9958,11603,22910,4
0.0,0.0,0.0,15537,12517,9935,11590,22977,4
0.0,0.0,0.0,15521,12530,9958,11553,22955,4
0.0,0.0,0.0,15521,12530,9946,11553,22910,4
0.0,0.0,0.0,15506,12504,9969,11528,22932,4
0.0,0.0,0.0,15521,12504,9958,11528,22955,4
0.0,0.0,0.0,15521,12530,9980,11528,22955,4
0.0,0.0,0.0,15490,12530,9980,11528,22955,4
0.0,0.0,0.0,15490,12504,9980,11528,22932,4
0.0,0.0,0.0,15521,12530,9969,11515,22887,4
0.0,0.0,0.0,15521,12530,9992,11528,22932,4
0.0,0.0,0.0,15521,12504,9980,11528,22865,4
0.0,0.0,0.0,15521,12530,9980,11515,22887,4
0.0,0.0,0.0,15490,12490,9980,11528,22932,4
0.0,0.0,0.0,15521,12517,10003,11540,22932,4
0.0,0.0,0.0,15521,12517,10003,11528,22932,4
0.0,0.0,0.0,15521,12504,10026,11553,22977,4
0.0,0.0,0.0,15537,12504,10003,11553,22932,4
0.0,0.0,0.0,15521,12530,10026,11553,22932,4
0.0,0.0,0.0,15553,12504,10071,11553,22977,4
0.0,0.0,0.0,15537,12530,10129,11553,22977,4
0.0,0.0,0.0,15521,12556,10163,11515,22955,4
0.0,0.0,0.0,15537,12530,10163,11503,23067,4
0.0,0.0,0.0,15568,12477,10152,11453,23112,4
0.0,0.0,0.0,15553,12438,10117,11428,23203,4
0.0,0.0,0.0,15584,12477,10106,11403,23135,4
0.0,0.0,0.0,15584,12424,10094,11403,23112,4
0.0,0.0,0.0,15521,12438,10094,11379,23112,4
0.0,0.0,0.0,15553,12438,10083,11403,23090,4
0.0,0.0,0.0,15553,12477,10094,11428,23022,4
0.0,0.0,0.0,15521,12477,10094,11453,23044,4
0.0,0.0,0.0,15537,12451,10094,11428,22999,4
0.0,0.0,0.0,15553,12477,10094,11453,23022,4
0.0,0.0,0.0,15553,12477,10094,11428,23022,4
0.0,0.0,0.0,15537,12477,10083,11453,23022,4
0.0,0.0,0.0,15584,12477,10083,11465,23044,4
0.0,0.0,0.0,15537,12477,10083,11478,23022,4
0.0,0.0,0.0,15553,12477,10094,11465,23022,4
0.0,0.0,0.0,15584,12556,10083,11465,22977,4
0.0,0.0,0.0,15521,12530,10083,11503,22977,4
0.0,0.0,0.0,15553,12556,10094,11478,23022,4
0.0,0.0,0.0,15584,12583,10117,11478,22977,4
0.0,0.0,0.0,15553,12583,10094,11503,23022,4
0.0,0.0,0.0,15521,12556,10094,11503,22999,4
0.0,0.0,0.0,15553,12543,10117,11503,22977,4
0.0,0.0,0.0,15584,12556,10094,11503,22977,4
0.0,0.0,0.0,15537,12543,10106,11515,22955,4
0.0,0.0,0.0,15584,12543,10117,11528,23022,4
0.0,0.0,0.0,15584,12556,10094,11528,23022,4
0.0,0.0,0.0,15553,12556,10106,11553,22932,4
0.0,0.0,0.0,15600,12583,10117,11578,22977,4
0.0,0.0,0.0,15631,12583,10117,11615,22932,4
0.0,0.0,0.0,15615,12596,10106,11640,22977,4
0.0,0.0,0.0,15615,12596,10094,11665,23022,4
0.0,0.0,0.0,15615,12596,10117,11703,22955,4
0.0,0.0,0.0,15615,12583,10117,11716,22932,4
0.0,0.0,0.0,15647,12583,10117,11716,22932,4
0.0,0.0,0.0,15631,12583,10129,11678,22932,4
0.0,0.0,0.0,15631,12583,10129,11678,22932,4
0.0,0.0,0.0,15647,12583,10163,11665,22932,4
0.0,0.0,0.0,15647,12583,10163,11678,22932,4
0.0,0.0,0.0,15615,12596,10140,11678,22865,4
0.0,0.0,0.0,15615,12610,10163,11678,22887,4
0.0,0.0,0.0,15600,12596,10163,11678,22887,4
0.0,0.0,0.0,15647,12623,10163,11665,22843,4
0.0,0.0,0.0,15615,12636,10174,11703,22955,4
0.0,0.0,0.0,15584,12610,10163,11703,22932,4
0.0,0.0,0.0,15584,12596,10163,11703,22865,4
0.0,0.0,0.0,15615,12596,10186,11678,22932,4
0.0,0.0,0.0,15584,12596,10174,11703,22865,4
0.0,0.0,0.0,15600,12610,10163,11703,22798,4
0.0,0.0,0.0,15647,12610,10174,11653,22843,4
0.0,0.0,0.0,15615,12596,10174,11665,22887,4
0.0,0.0,0.0,15615,12636,10174,11678,22865,4
0.0,0.0,0.0,15631,12610,10174,11678,22865,4
0.0,0.0,0.0,15615,12663,10209,11678,22932,4
0.0,0.0,0.0,15647,12663,10209,11665,22843,4
0.0,0.0,0.0,15600,12703,10209,11703,22843,4
0.0,0.0,0.0,15584,12690,10209,11703,22843,4
0.0,0.0,0.0,15584,12649,10221,11703,22865,4
0.0,0.0,0.0,15568,12676,10197,11691,22865,4
0.0,0.0,0.0,15553,12649,10209,11678,22843,4
0.0,0.0,0.0,15584,12690,10186,11691,22820,4
0.0,0.0,0.0,15584,12690,10209,11691,22820,4
0.0,0.0,0.0,15584,12690,10209,11703,22798,4
0.0,0.0,0.0,15584,12716,10209,11678,22798,4
0.0,0.0,0.0,15584,12703,10209,11665,22754,4
0.0,0.0,0.0,15553,12716,10209,11703,22843,4
0.0,0.0,0.0,15568,12716,10232,11716,22843,4
0.0,0.0,0.0,15584,12743,10232,11716,22843,4
0.0,0.0,0.0,15584,12743,10232,11779,22843,4
0.0,0.0,0.0,15584,12770,10255,11766,22865,4
0.0,0.0,0.0,15584,12770,10255,11754,22709,4
0.0,0.0,0.0,15553,12824,10255,11754,22843,4
0.0,0.0,0.0,15584,12797,10278,11817,22820,4
0.0,0.0,0.0,15584,12797,10278,11804,22865,4
0.0,0.0,0.0,15553,12824,10278,11817,22798,4
0.0,0.0,0.0,15584,12797,10301,11855,22798,4
0.0,0.0,0.0,15584,12824,10278,11881,22865,4
0.0,0.0,0.0,15553,12810,10267,11881,22865,4
0.0,0.0,0.0,15584,12797,10301,11906,22843,4
0.0,0.0,0.0,15553,12824,10301,11906,22865,4
0.0,0.0,0.0,15568,12851,10301,11932,22887,4
0.0,0.0,0.0,15553,12864,10301,11932,22843,4
0.0,0.0,0.0,15584,12878,10313,11957,22932,4
0.0,0.0,0.0,15553,12851,10325,12009,22955,4
0.0,0.0,0.0,15584,12905,10313,12073,22932,4
0.0,0.0,0.0,15537,12878,10348,12112,22865,4
0.0,0.0,0.0,15615,12878,10348,12163,22977,4
0.0,0.0,0.0,15600,12905,10336,12176,22932,4
0.0,0.0,0.0,15584,12905,10348,12228,22955,4
0.0,0.0,0.0,15584,12878,10348,12267,22977,4
0.0,0.0,0.0,15584,12905,10359,12267,22932,4
0.0,0.0,0.0,15584,12905,10371,12280,22910,4
0.0,0.0,0.0,15584,12905,10394,12293,22887,4
0.0,0.0,0.0,15615,12905,10394,12372,22955,4
0.0,0.0,0.0,15490,12905,10429,12372,22955,4
0.0,0.0,0.0,15600,12918,10441,12359,22843,4
0.0,0.0,0.0,15647,12959,10453,12372,22910,4
0.0,0.0,0.0,15615,12932,10453,12372,22887,4
0.0,0.0,0.0,15615,12972,10464,12320,22887,4
0.0,0.0,0.0,15663,13040,10488,12346,22843,4
0.0,0.0,0.0,15615,13040,10488,12320,22910,4
0.0,0.0,0.0,15615,13068,10499,12346,22865,4
0.0,0.0,0.0,15647,13027,10499,12346,22843,4
0.0,0.0,0.0,15600,13040,10511,12372,22843,4
0.0,0.0,0.0,15600,13068,10511,12385,22843,4
0.0,0.0,0.0,15615,13013,10511,12346,22776,4
0.0,0.0,0.0,15615,13040,10523,12346,22776,4
0.0,0.0,0.0,15584,13013,10511,12359,22798,4
0.0,0.0,0.0,15615,13040,10499,12346,22776,4
0.0,0.0,0.0,15584,13013,10511,12372,22776,4
0.0,0.0,0.0,15631,13013,10499,12372,22798,4
0.0,0.0,0.0,15615,13027,10488,12372,22820,4
0.0,0.0,0.0,15615,12972,10488,12372,22820,4
0.0,0.0,0.0,15584,12959,10476,12398,22798,4
0.0,0.0,0.0,15584,12972,10488,12398,22709,4
0.0,0.0,0.0,15584,12972,10476,12424,22776,4
0.0,0.0,0.0,15553,12959,10488,12424,22754,4
0.0,0.0,0.0,15568,12959,10488,12477,22843,4
0.0,0.0,0.0,15600,12986,10488,12530,22932,4
0.0,0.0,0.0,15584,12959,10488,12583,22887,4
0.0,0.0,0.0,15600,12959,10488,12583,22887,4
0.0,0.0,0.0,15647,12972,10488,12610,22955,4
0.0,0.0,0.0,15615,12972,10488,12690,23067,4
0.0,0.0,0.0,15615,12959,10488,12716,23022,4
0.0,0.0,0.0,15615,12959,10488,12743,23067,4
0.0,0.0,0.0,15647,12959,10488,12770,23044,4
0.0,0.0,0.0,15615,12959,10464,12797,23044,4
0.0,0.0,0.0,15647,12959,10464,12797,23022,4
0.0,0.0,0.0,15647,12972,10488,12797,23022,4
0.0,0.0,0.0,15647,13013,10464,12797,23044,4
0.0,0.0,0.0,15663,12999,10488,12824,23022,4
0.0,0.0,0.0,15694,12986,10453,12851,23022,4
0.0,0.0,0.0,15710,13013,10464,12851,23022,4
0.0,0.0,0.0,15710,13013,10464,12864,23022,4
0.0,0.0,0.0,15710,13040,10488,12905,23022,4
0.0,0.0,0.0,15726,13013,10488,12932,23044,4
0.0,0.0,0.0,15726,13054,10464,12959,23044,4
0.0,0.0,0.0,15757,13040,10488,12959,23112,4
0.0,0.0,0.0,15710,13068,10453,12918,23022,4
0.0,0.0,0.0,15710,13081,10453,12959,23112,4
0.0,0.0,0.0,15741,13081,10464,12932,23112,4
0.0,0.0,0.0,15726,13095,10453,12959,23067,4
0.0,0.0,0.0,15710,13068,10464,12986,23112,4
0.0,0.0,0.0,15726,13095,10453,13013,22999,4
0.0,0.0,0.0,15710,13068,10476,13013,23090,4
0.0,0.0,0.0,15710,13095,10441,13013,23112,4
0.0,0.0,0.0,15726,13095,10464,13040,23090,4
0.0,0.0,0.0,15710,13122,10453,13040,23112,4
0.0,0.0,0.0,15726,13122,10453,13040,23044,4
0.0,0.0,0.0,15726,13122,10464,13054,23044,4
0.0,0.0,0.0,15710,13122,10453,13040,23067,4
0.0,0.0,0.0,15710,13095,10453,13054,23067,4
0.0,0.0,0.0,15710,13150,10453,13027,23112,4
0.0,0.0,0.0,15710,13150,10464,13054,23157,4
0.0,0.0,0.0,15710,13150,10441,13040,23112,4
0.0,0.0,0.0,15710,13136,10464,13013,23112,4
0.0,0.0,0.0,15773,13177,10441,13013,23067,4
0.0,0.0,0.0,15741,13136,10464,13027,23112,4
0.0,0.0,0.0,15789,13122,10453,13013,23112,4
0.0,0.0,0.0,15726,13109,10453,13013,23180,4
0.0,0.0,0.0,15584,13081,10453,13013,23522,4
0.0,0.0,0.0,15366,13095,10453,13040,24105,4
0.0,0.0,0.0,15089,13068,10441,13150,24606,4
0.0,0.0,0.0,14876,13081,10441,13232,24873,4
0.0,0.0,0.0,14756,13122,10441,13287,25118,4
0.0,0.0,0.0,14726,13068,10406,13260,25044,4
0.0,0.0,0.0,14696,13068,10418,13260,25142,4
0.0,0.0,0.0,14726,13027,10394,13246,25093,4
0.0,0.0,0.0,14726,13068,10394,13232,25093,4
0.0,0.0,0.0,14726,13040,10394,13205,25044,4
0.0,0.0,0.0,14741,13040,10359,13177,24946,4
0.0,0.0,0.0,14726,13068,10394,13177,24921,4
0.0,0.0,0.0,14786,13068,10488,13122,24946,4
0.0,0.0,0.0,15058,13246,10617,13177,26461,4
0.0,0.0,0.0,15584,13398,10676,13343,27911,4
0.0,0.0,0.0,15900,13398,10605,13040,27828,4
0.0,0.0,0.0,15916,13343,10582,12851,28049,4
0.0,0.0,0.0,15980,13274,10582,12810,28245,4
0.0,0.0,0.0,16157,13287,10582,12824,28583,4
0.0,0.0,0.0,16319,13329,10582,13287,30165,4
0.0,0.0,0.0,16254,13398,10582,13978,30838,4
0.0,0.0,0.0,16238,13398,10594,13863,30317,4
0.0,0.0,0.0,16516,13412,10629,13538,30377,4
0.0,0.0,0.0,16765,13454,10676,13426,30377,4
0.0,0.0,0.0,16915,13454,10676,13287,30962,4
0.0,0.0,0.0,17220,13482,10676,13232,31434,4
0.0,0.0,0.0,17845,13608,10676,13205,31946,4
0.0,0.0,0.0,18344,13764,10724,13205,32238,4
0.0,0.0,0.0,18931,13778,10748,13232,32467,4
0.0,0.0,0.0,19080,13693,10724,13068,32369,4
0.0,0.0,0.0,19005,13566,10724,12583,32566,4
0.0,0.0,0.0,18912,13343,10676,12112,33033,4
0.0,0.0,0.0,18764,13136,10629,11804,33337,4
0.0,0.0,0.0,18727,13013,10594,11678,33439,4
0.0,0.0,0.0,18599,12851,10535,11578,33303,4
0.0,0.0,0.0,18508,12743,10488,11565,32932,4
0.0,0.0,0.0,18489,12636,10441,11528,32765,4
0.0,0.0,0.0,18709,12530,10418,11528,32899,4
0.0,0.0,0.0,18857,12556,10488,11478,33269,4
0.0,0.0,0.0,18727,12438,10511,11453,33405,4
0.0,0.0,0.0,18635,12530,10418,11428,33236,4
0.0,0.0,0.0,18489,12451,10418,11403,32832,4
0.0,0.0,0.0,18435,12477,10441,11379,32633,4
0.0,0.0,0.0,18417,12490,10453,11379,32500,4
0.0,0.0,0.0,18380,12372,10464,11403,32336,4
0.0,0.0,0.0,18344,12346,10453,11403,32238,4
0.0,0.0,0.0,18308,12267,10418,11317,31881,4
0.0,0.0,0.0,18308,12241,10336,11317,31785,4
0.0,0.0,0.0,18290,12202,10325,11304,31849,4
0.0,0.0,0.0,18236,12163,10313,11268,31656,4
0.0,0.0,0.0,18200,12060,10209,11255,31465,4
0.0,0.0,0.0,18164,12060,10117,11255,31244,4
0.0,0.0,0.0,18164,12034,10014,11219,31213,4
0.0,0.0,0.0,18200,12009,9958,11231,31339,4
0.0,0.0,0.0,18129,12021,9958,11255,31465,4
0.0,0.0,0.0,18182,11983,9946,11255,31529,4
0.0,0.0,0.0,18147,11983,9935,11231,31339,4
0.0,0.0,0.0,18129,11957,9935,11243,31213,4
0.0,0.0,0.0,18164,11957,9867,11231,31150,4
0.0,0.0,0.0,18164,11906,9867,11219,31087,4
0.0,0.0,0.0,18164,11881,9845,11255,31150,4
0.0,0.0,0.0,18147,11881,9867,11255,31213,4
0.0,0.0,0.0,18236,11868,9980,11317,31529,4
0.0,0.0,0.0,18308,11855,10003,11354,31529,4
0.0,0.0,0.0,18308,11881,10026,11354,31465,4
0.0,0.0,0.0,18308,11868,10026,11354,31339,4
0.0,0.0,0.0,18290,11881,10060,11354,31276,4
0.0,0.0,0.0,18308,11868,10129,11317,31213,4
0.0,0.0,0.0,18272,11906,10174,11317,31150,4
0.0,0.0,0.0,18236,11868,10163,11304,31119,4
0.0,0.0,0.0,18236,11906,10174,11317,30994,4
0.0,0.0,0.0,18218,11906,10163,11317,31025,4
0.0,0.0,0.0,18272,11932,10221,11329,31087,4
0.0,0.0,0.0,18290,11932,10221,11329,31213,4
0.0,0.0,0.0,18290,11957,10186,11329,31087,4
0.0,0.0,0.0,18272,11983,10117,11354,31150,4
0.0,0.0,0.0,18218,11983,10094,11354,31025,4
0.0,0.0,0.0,18164,11957,10083,11329,31119,4
0.0,0.0,0.0,18147,11983,10071,11341,31025,4
0.0,0.0,0.0,18147,11957,10094,11304,31056,4
0.0,0.0,0.0,18147,11983,10071,11304,30994,4
0.0,0.0,0.0,18093,11983,10071,11304,30931,4
0.0,0.0,0.0,18057,12021,10071,11317,30962,4
0.0,0.0,0.0,18057,12034,10083,11317,30962,4
0.0,0.0,0.0,18057,12021,10094,11304,30962,4
0.0,0.0,0.0,18022,12047,10071,11268,30962,4
0.0,0.0,0.0,18057,12034,10071,11317,30994,4
0.0,0.0,0.0,18022,12060,10083,11317,30869,4
0.0,0.0,0.0,18039,12060,10094,11354,30900,4
0.0,0.0,0.0,18004,12009,10106,11354,30838,4
0.0,0.0,0.0,17968,12009,10071,11354,30869,4
0.0,0.0,0.0,17933,11970,10071,11354,30715,4
0.0,0.0,0.0,17933,11957,10049,11354,30715,4
0.0,0.0,0.0,17915,11957,10026,11354,30776,4
0.0,0.0,0.0,17915,11957,10026,11317,30776,4
0.0,0.0,0.0,17915,11957,10026,11304,30715,4
0.0,0.0,0.0,17898,11970,10026,11304,30715,4
0.0,0.0,0.0,17862,11970,10026,11354,30653,4
0.0,0.0,0.0,17880,11983,10026,11329,30653,4
0.0,0.0,0.0,17862,11970,10037,11329,30653,4
0.0,0.0,0.0,17880,11983,10026,11329,30776,4
0.0,0.0,0.0,17880,11983,10037,11354,30715,4
0.0,0.0,0.0,17880,11957,10026,11354,30715,4
0.0,0.0,0.0,17915,11957,10049,11329,30715,4
0.0,0.0,0.0,17880,11970,10037,11317,30653,4
0.0,0.0,0.0,17862,11983,10037,11329,30622,4
0.0,0.0,0.0,17862,11983,10049,11304,30591,4
0.0,0.0,0.0,17845,11983,10049,11329,30715,4
0.0,0.0,0.0,17880,11983,10026,11317,30591,4
0.0,0.0,0.0,17915,12021,10049,11329,30653,4
0.0,0.0,0.0,17915,12009,10037,11354,30653,4
0.0,0.0,0.0,17915,12060,10037,11329,30715,4
0.0,0.0,0.0,17915,12047,10037,11354,30715,4
0.0,0.0,0.0,17898,12009,10071,11354,30653,4
0.0,0.0,0.0,17915,12021,10049,11354,30653,4
0.0,0.0,0.0,17915,12060,10026,11354,30622,4
0.0,0.0,0.0,17933,12060,10071,11354,30622,4
0.0,0.0,0.0,17933,12073,10049,11379,30622,4
0.0,0.0,0.0,17880,12073,10071,11391,30653,4
0.0,0.0,0.0,17862,12086,10071,11403,30653,4
0.0,0.0,0.0,17845,12112,10071,11403,30591,4
0.0,0.0,0.0,17845,12112,10083,11403,30622,4
0.0,0.0,0.0,17809,12112,10071,11403,30591,4
0.0,0.0,0.0,17792,12124,10071,11428,30530,4
0.0,0.0,0.0,17809,12124,10071,11403,30499,4
0.0,0.0,0.0,17739,12112,10071,11428,30561,4
0.0,0.0,0.0,17809,12086,10071,11416,30499,4
0.0,0.0,0.0,17827,12086,10049,11416,30469,4
0.0,0.0,0.0,17774,12086,10071,11416,30591,4
0.0,0.0,0.0,17809,12073,10071,11416,30530,4
0.0,0.0,0.0,17809,12086,10049,11416,30469,4
0.0,0.0,0.0,17809,12112,10037,11416,30499,4
0.0,0.0,0.0,17774,12124,10049,11453,30530,4
0.0,0.0,0.0,17809,12176,10060,11428,30622,4
0.0,0.0,0.0,17774,12163,10071,11428,30622,4
0.0,0.0,0.0,17774,12163,10049,11453,30591,4
0.0,0.0,0.0,17792,12163,10071,11465,30499,4
0.0,0.0,0.0,17774,12163,10094,11478,30530,4
0.0,0.0,0.0,17845,12163,10117,11503,30591,4
0.0,0.0,0.0,17792,12163,10163,11528,30591,4
0.0,0.0,0.0,17809,12124,10209,11515,30561,4
0.0,0.0,0.0,17845,12150,10232,11528,30530,4
0.0,0.0,0.0,17933,12228,10348,11553,30530,4
0.0,0.0,0.0,17986,12215,10394,11553,30653,4
0.0,0.0,0.0,17986,12215,10348,11528,30715,4
0.0,0.0,0.0,17933,12267,10301,11528,30653,4
0.0,0.0,0.0,17933,12267,10325,11515,30684,4
0.0,0.0,0.0,17933,12267,10336,11515,30653,4
0.0,0.0,0.0,17933,12280,10313,11503,30530,4
0.0,0.0,0.0,17915,12293,10301,11503,30622,4
0.0,0.0,0.0,17915,12293,10301,11503,30622,4
0.0,0.0,0.0,17933,12346,10301,11503,30622,4
0.0,0.0,0.0,17915,12372,10301,11503,30530,4
0.0,0.0,0.0,17915,12372,10301,11478,30591,4
0.0,0.0,0.0,17880,12411,10301,11478,30591,4
0.0,0.0,0.0,17845,12424,10301,11465,30591,4
0.0,0.0,0.0,17827,12424,10278,11453,30591,4
0.0,0.0,0.0,17792,12477,10278,11465,30469,4
0.0,0.0,0.0,17827,12477,10290,11478,30530,4
0.0,0.0,0.0,17862,12477,10301,11478,30530,4
0.0,0.0,0.0,17845,12477,10301,11453,30499,4
0.0,0.0,0.0,17845,12477,10301,11465,30530,4
0.0,0.0,0.0,17845,12464,10301,11453,30499,4
0.0,0.0,0.0,17827,12477,10325,11478,30530,4
0.0,0.0,0.0,17809,12504,10301,11465,30438,4
0.0,0.0,0.0,17845,12490,10278,11478,30438,4
0.0,0.0,0.0,17845,12504,10290,11478,30408,4
0.0,0.0,0.0,17827,12530,10278,11478,30469,4
0.0,0.0,0.0,17792,12583,10301,11503,30499,4
0.0,0.0,0.0,17845,12583,10301,11565,30499,4
0.0,0.0,0.0,17774,12596,10301,11603,30469,4
0.0,0.0,0.0,17827,12583,10313,11615,30469,4
0.0,0.0,0.0,17845,12636,10301,11716,30530,4
0.0,0.0,0.0,17845,12663,10313,11804,30499,4
0.0,0.0,0.0,17809,12636,10313,11779,30530,4
0.0,0.0,0.0,17845,12743,10325,11830,30530,4
0.0,0.0,0.0,17845,12797,10348,11881,30469,4
0.0,0.0,0.0,17827,12851,10359,11906,30469,4
0.0,0.0,0.0,17845,12878,10394,11970,30408,4
0.0,0.0,0.0,17792,12878,10406,12124,30469,4
0.0,0.0,0.0,17845,12878,10394,12163,30408,4
0.0,0.0,0.0,17845,12864,10394,12189,30408,4
0.0,0.0,0.0,17809,12851,10394,12293,30408,4
0.0,0.0,0.0,17845,12864,10406,12346,30286,4
0.0,0.0,0.0,17845,12878,10418,12372,30256,4
0.0,0.0,0.0,17827,12878,10394,12398,30347,4
0.0,0.0,0.0,17845,12864,10418,12398,30226,4
0.0,0.0,0.0,17774,12878,10406,12398,30226,4
0.0,0.0,0.0,17862,12810,10418,12411,30286,4
0.0,0.0,0.0,17915,12837,10441,12320,30347,4
0.0,0.0,0.0,17933,12810,10441,12241,30469,4
0.0,0.0,0.0,17986,12824,10453,12215,30530,4
0.0,0.0,0.0,18039,12797,10464,12073,30530,4
0.0,0.0,0.0,18057,12756,10488,12034,30530,4
0.0,0.0,0.0,18057,12743,10511,11996,30469,4
0.0,0.0,0.0,18129,12730,10488,11957,30347,4
0.0,0.0,0.0,18147,12690,10488,11957,30347,4
0.0,0.0,0.0,18164,12690,10488,11957,30377,4
0.0,0.0,0.0,18147,12636,10511,11906,30347,4
0.0,0.0,0.0,18129,12583,10511,11817,30347,4
0.0,0.0,0.0,18093,12583,10570,11779,30347,4
0.0,0.0,0.0,18129,12556,10582,11779,30226,4
0.0,0.0,0.0,18057,12583,10582,11754,30226,4
0.0,0.0,0.0,18057,12596,10594,11703,30165,4
0.0,0.0,0.0,18057,12583,10582,11678,30165,4
0.0,0.0,0.0,18022,12583,10570,11653,30165,4
0.0,0.0,0.0,18039,12556,10546,11678,30105,4
0.0,0.0,0.0,18057,12596,10546,11653,30045,4
0.0,0.0,0.0,18057,12596,10570,11653,30165,4
0.0,0.0,0.0,17986,12623,10535,11665,30105,4
0.0,0.0,0.0,18022,12636,10535,11628,30045,4
0.0,0.0,0.0,18022,12690,10535,11615,30105,4
0.0,0.0,0.0,18004,12663,10511,11628,30075,4
0.0,0.0,0.0,17986,12663,10488,11603,30135,4
0.0,0.0,0.0,17968,12690,10464,11603,30105,4
0.0,0.0,0.0,17968,12743,10464,11578,30015,4
0.0,0.0,0.0,17968,12743,10488,11603,30045,4
0.0,0.0,0.0,17915,12716,10464,11603,30015,4
0.0,0.0,0.0,17898,12797,10453,11578,30045,4
0.0,0.0,0.0,17933,12797,10488,11603,30075,4
0.0,0.0,0.0,17915,12770,10488,11603,29984,4
0.0,0.0,0.0,17898,12797,10499,11603,29984,4
0.0,0.0,0.0,17915,12797,10488,11603,29984,4
0.0,0.0,0.0,17915,12851,10488,11578,29984,4
0.0,0.0,0.0,17862,12783,10488,11603,29984,4
0.0,0.0,0.0,17880,12756,10488,11603,29984,4
0.0,0.0,0.0,17862,12770,10488,11603,29984,4
0.0,0.0,0.0,17862,12797,10488,11578,29895,4
0.0,0.0,0.0,17862,12810,10488,11603,29865,4
0.0,0.0,0.0,17880,12797,10488,11603,29865,4
0.0,0.0,0.0,17880,12824,10464,11578,29984,4
0.0,0.0,0.0,17845,12878,10499,11578,29865,4
0.0,0.0,0.0,17845,12878,10488,11603,29865,4
0.0,0.0,0.0,17809,12905,10476,11603,29925,4
0.0,0.0,0.0,17809,12905,10488,11578,29925,4
0.0,0.0,0.0,17809,12905,10488,11578,29955,4
0.0,0.0,0.0,17827,12932,10488,11615,29865,4
0.0,0.0,0.0,17809,12972,10499,11603,29865,4
0.0,0.0,0.0,17809,13013,10488,11578,29895,4
0.0,0.0,0.0,17792,13013,10488,11578,29895,4
0.0,0.0,0.0,17792,13040,10488,11603,29955,4
0.0,0.0,0.0,17827,13068,10499,11615,29984,4
0.0,0.0,0.0,17792,13068,10499,11603,29925,4
0.0,0.0,0.0,17809,13081,10499,11603,29895,4
0.0,0.0,0.0,17774,13136,10511,11628,29895,4
0.0,0.0,0.0,17774,13136,10511,11703,29865,4
0.0,0.0,0.0,17809,13150,10523,11703,29865,4
0.0,0.0,0.0,17774,13177,10535,11703,29835,4
0.0,0.0,0.0,17739,13136,10511,11703,29805,4
0.0,0.0,0.0,17757,13150,10535,11703,29775,4
0.0,0.0,0.0,17774,13136,10546,11678,29746,4
0.0,0.0,0.0,17774,13122,10511,11678,29805,4
0.0,0.0,0.0,17774,13136,10535,11703,29686,4
0.0,0.0,0.0,17845,13109,10546,11703,29775,4
0.0,0.0,0.0,17845,13068,10546,11728,29805,4
0.0,0.0,0.0,17809,13068,10546,11716,29746,4
0.0,0.0,0.0,17845,13068,10535,11703,29686,4
0.0,0.0,0.0,17809,13068,10535,11703,29746,4
0.0,0.0,0.0,17774,13040,10546,11703,29686,4
0.0,0.0,0.0,17792,13054,10535,11703,29657,4
0.0,0.0,0.0,17792,13054,10535,11703,29627,4
0.0,0.0,0.0,17792,13054,10535,11703,29627,4
0.0,0.0,0.0,17774,13095,10535,11703,29775,4
0.0,0.0,0.0,17809,13095,10546,11766,29865,4
0.0,0.0,0.0,17845,13150,10535,11804,29925,4
0.0,0.0,0.0,17774,13177,10535,11868,30075,4
0.0,0.0,0.0,17809,13177,10535,11906,29984,4
0.0,0.0,0.0,17809,13191,10535,11906,29895,4
0.0,0.0,0.0,17739,13205,10535,11855,29835,4
0.0,0.0,0.0,17739,13205,10523,11855,29805,4
0.0,0.0,0.0,17739,13205,10511,11830,29746,4
0.0,0.0,0.0,17757,13232,10535,11932,29805,4
0.0,0.0,0.0,17704,13246,10535,12034,29775,4
0.0,0.0,0.0,17704,13260,10535,12477,30347,4
0.0,0.0,0.0,17565,13287,10523,12824,30745,4
0.0,0.0,0.0,17513,13287,10511,12797,30653,4
0.0,0.0,0.0,17289,13260,10488,12504,30347,4
0.0,0.0,0.0,16882,13191,10453,12372,30347,4
0.0,0.0,0.0,16648,13136,10418,12267,30653,4
0.0,0.0,0.0,16076,12864,10313,12163,30591,4
0.0,0.0,0.0,15600,12649,10267,12060,30165,4
0.0,0.0,0.0,15089,12372,10174,11983,28869,4
0.0,0.0,0.0,14651,12215,10117,11970,27472,4
0.0,0.0,0.0,14253,12124,10071,11983,26202,4
0.0,0.0,0.0,13964,12034,10049,12021,24946,4
0.0,0.0,0.0,13693,11919,10003,12086,23385,4
0.0,0.0,0.0,13594,11766,9912,12060,22754,4
0.0,0.0,0.0,13735,11691,9935,11957,23022,4
0.0,0.0,0.0,14108,11653,9946,11906,23615,4
0.0,0.0,0.0,14253,11628,10014,11970,23847,4
0.0,0.0,0.0,14297,11653,10209,11855,23707,4
0.0,0.0,0.0,14311,11817,10290,11615,23847,4
0.0,0.0,0.0,14458,11957,10301,11503,24294,4
0.0,0.0,0.0,14547,11983,10301,11453,24510,4
0.0,0.0,0.0,14547,11970,10278,11416,24510,4
0.0,0.0,0.0,14607,11983,10301,11403,24510,4
0.0,0.0,0.0,14607,11957,10301,11403,24582,4
0.0,0.0,0.0,14666,11932,10301,11366,24702,4
0.0,0.0,0.0,14681,11919,10267,11366,24727,4
0.0,0.0,0.0,14696,11919,10232,11379,24727,4
0.0,0.0,0.0,14696,11906,10209,11354,24848,4
0.0,0.0,0.0,14621,11868,10163,11329,24678,4
0.0,0.0,0.0,14562,11855,10071,11329,24534,4
0.0,0.0,0.0,14458,11804,10071,11304,24414,4
0.0,0.0,0.0,14326,11766,10049,11317,24223,4
0.0,0.0,0.0,14195,11754,10026,11379,24152,4
0.0,0.0,0.0,14122,11754,10026,11366,24034,4
0.0,0.0,0.0,14137,11703,10003,11403,24176,4
0.0,0.0,0.0,14108,11703,9958,11379,24152,4
0.0,0.0,0.0,14108,11678,9946,11354,24342,4
0.0,0.0,0.0,14166,11703,9935,11354,24366,4
0.0,0.0,0.0,14137,11653,9912,11354,23964,4
0.0,0.0,0.0,14137,11653,9935,11329,23615,4
0.0,0.0,0.0,14166,11653,9935,11317,23569,4
0.0,0.0,0.0,14166,11653,9935,11304,23569,4
0.0,0.0,0.0,14180,11640,9912,11280,23522,4
0.0,0.0,0.0,14151,11615,9867,11304,23477,4
0.0,0.0,0.0,14166,11628,9856,11268,23431,4
0.0,0.0,0.0,14137,11603,9845,11268,23385,4
0.0,0.0,0.0,14137,11615,9811,11280,23431,4
0.0,0.0,0.0,14122,11578,9800,11317,23385,4
0.0,0.0,0.0,14151,11578,9811,11317,23385,4
0.0,0.0,0.0,14137,11603,9811,11329,23339,4
0.0,0.0,0.0,14108,11653,10026,11329,23203,4
0.0,0.0,0.0,14137,12267,10232,11366,22932,4
0.0,0.0,0.0,14180,12797,10394,11379,22357,4
0.0,0.0,0.0,14108,13287,10418,11403,22010,4
0.0,0.0,0.0,14311,13906,10453,11403,21796,4
0.0,0.0,0.0,14341,13622,10464,11379,21458,4
0.0,0.0,0.0,14282,12797,10511,11329,21146,4
0.0,0.0,0.0,14297,12490,10582,11354,20475,4
0.0,0.0,0.0,14326,12543,10605,11403,20315,4
0.0,0.0,0.0,14399,12649,10641,11403,20078,4
0.0,0.0,0.0,14370,12610,10629,11379,19921,4
0.0,0.0,0.0,14311,12346,10676,11416,19785,4
0.0,0.0,0.0,14326,12346,10724,11428,19650,4
0.0,0.0,0.0,14326,12477,10771,11416,19497,4
0.0,0.0,0.0,14385,12451,10795,11453,19554,4
0.0,0.0,0.0,14458,12438,10819,11503,19805,4
0.0,0.0,0.0,14488,12346,10771,11540,19921,4
0.0,0.0,0.0,14532,12267,10771,11503,20039,4
0.0,0.0,0.0,14666,12060,10676,11428,20275,4
0.0,0.0,0.0,14756,11906,10605,11416,20555,4
0.0,0.0,0.0,14922,11817,10535,11478,20798,4
0.0,0.0,0.0,15013,11766,10511,11503,20415,4
0.0,0.0,0.0,14922,11741,10511,11465,20275,4
0.0,0.0,0.0,14846,11716,10535,11503,20335,4
0.0,0.0,0.0,14726,11703,10499,11503,20315,4
0.0,0.0,0.0,14666,11691,10499,11553,20256,4
0.0,0.0,0.0,14636,11703,10476,11553,20275,4
0.0,0.0,0.0,14786,11754,10488,11728,20961,4
0.0,0.0,0.0,14786,11703,10535,12372,22010,4
0.0,0.0,0.0,14861,11628,10511,12556,22401,4
0.0,0.0,0.0,15013,11653,10535,12530,22313,4
0.0,0.0,0.0,15089,11615,10499,12372,21882,4
0.0,0.0,0.0,14982,11728,10488,11919,21375,4
0.0,0.0,0.0,14967,11919,10441,11741,21125,4
0.0,0.0,0.0,15028,12202,10464,11603,20961,4
0.0,0.0,0.0,14982,12346,10464,11528,20879,4
0.0,0.0,0.0,14997,12530,10582,11416,20920,4
0.0,0.0,0.0,15028,12716,10712,11403,20879,4
0.0,0.0,0.0,15028,12972,10831,11379,20899,4
0.0,0.0,0.0,15013,12905,10831,11354,20859,4
0.0,0.0,0.0,15028,12797,10724,11354,20757,4
0.0,0.0,0.0,14982,12743,10748,11329,20798,4
0.0,0.0,0.0,15028,12756,10724,11304,20838,4
0.0,0.0,0.0,14997,12690,10724,11354,20818,4
0.0,0.0,0.0,15043,12636,10724,11329,20798,4
0.0,0.0,0.0,15089,12583,10688,11329,20798,4
0.0,0.0,0.0,15089,12610,10676,11354,20798,4
0.0,0.0,0.0,15104,12703,10676,11317,20899,4
0.0,0.0,0.0,15119,12743,10653,11304,20899,4
0.0,0.0,0.0,15089,12690,10641,11304,20879,4
0.0,0.0,0.0,15043,12610,10641,11304,20838,4
0.0,0.0,0.0,15058,12570,10629,11354,20838,4
0.0,0.0,0.0,15058,12530,10629,11366,20879,4
0.0,0.0,0.0,15043,12530,10629,11403,20838,4
0.0,0.0,0.0,15089,12530,10617,11403,20899,4
0.0,0.0,0.0,15058,12504,10594,11403,20879,4
0.0,0.0,0.0,15150,12477,10535,11391,20899,4
0.0,0.0,0.0,15165,12424,10535,11403,20838,4
0.0,0.0,0.0,15181,12372,10535,11403,20879,4
0.0,0.0,0.0,15211,12346,10511,11403,20940,4
0.0,0.0,0.0,15273,12372,10488,11391,20961,4
0.0,0.0,0.0,15242,12372,10488,11366,20940,4
0.0,0.0,0.0,15273,12372,10488,11354,20899,4
0.0,0.0,0.0,15258,12372,10464,11354,20879,4
0.0,0.0,0.0,15258,12411,10488,11354,20879,4
0.0,0.0,0.0,15288,12477,10535,11354,20961,4
0.0,0.0,0.0,15459,12636,10629,11341,21270,4
0.0,0.0,0.0,15459,12690,10700,11304,21375,4
0.0,0.0,0.0,15428,12690,10688,11329,21250,4
0.0,0.0,0.0,15397,12716,10641,11317,21146,4
0.0,0.0,0.0,15350,12743,10641,11304,21187,4
0.0,0.0,0.0,15397,12972,10688,11304,21229,4
0.0,0.0,0.0,15381,13081,10771,11317,21291,4
0.0,0.0,0.0,15350,13122,10795,11304,21333,4
0.0,0.0,0.0,15335,13218,10831,11304,21375,4
0.0,0.0,0.0,15304,13205,10819,11304,21416,4
0.0,0.0,0.0,15288,13191,10819,11280,21312,4
0.0,0.0,0.0,15304,13136,10819,11280,21333,4
0.0,0.0,0.0,15288,13068,10771,11304,21333,4
0.0,0.0,0.0,15304,12972,10771,11304,21250,4
0.0,0.0,0.0,15335,12959,10748,11304,21208,4
0.0,0.0,0.0,15350,12959,10748,11304,21208,4
0.0,0.0,0.0,15350,12959,10748,11280,21208,4
0.0,0.0,0.0,15397,12959,10748,11280,21229,4
0.0,0.0,0.0,15397,12959,10748,11304,21146,4
0.0,0.0,0.0,15335,12932,10724,11304,21167,4
0.0,0.0,0.0,15366,12878,10724,11304,21125,4
0.0,0.0,0.0,15412,12851,10700,11317,21208,4
0.0,0.0,0.0,15459,12851,10736,11341,21291,4
0.0,0.0,0.0,15521,12851,10724,11366,21458,4
0.0,0.0,0.0,15615,12851,10700,11416,21627,4
0.0,0.0,0.0,15584,12824,10724,11515,22010,4
0.0,0.0,0.0,15678,12824,10724,11553,22096,4
0.0,0.0,0.0,15678,12783,10700,11553,22183,4
0.0,0.0,0.0,15647,12756,10688,11528,22053,4
0.0,0.0,0.0,15773,12743,10700,11503,21818,4
0.0,0.0,0.0,15726,12716,10700,11503,21775,4
0.0,0.0,0.0,15726,12690,10676,11515,21733,4
0.0,0.0,0.0,15710,12649,10676,11578,21733,4
0.0,0.0,0.0,15647,12636,10653,11653,21627,4
0.0,0.0,0.0,15663,12636,10629,11665,21627,4
0.0,0.0,0.0,15663,12636,10629,11665,21648,4
0.0,0.0,0.0,15710,12636,10641,11628,21627,4
0.0,0.0,0.0,15757,12596,10629,11578,21606,4
0.0,0.0,0.0,15773,12556,10605,11503,21606,4
0.0,0.0,0.0,15726,12583,10558,11428,21563,4
0.0,0.0,0.0,15710,12636,10546,11379,21627,4
0.0,0.0,0.0,15647,12610,10546,11354,21690,4
0.0,0.0,0.0,15647,12636,10582,11354,21627,4
0.0,0.0,0.0,15647,12690,10641,11329,21648,4
0.0,0.0,0.0,15615,12743,10688,11329,21711,4
0.0,0.0,0.0,15584,12756,10676,11329,21627,4
0.0,0.0,0.0,15521,12703,10676,11317,21542,4
0.0,0.0,0.0,15521,12690,10676,11329,21584,4
0.0,0.0,0.0,15490,12743,10724,11329,21627,4
0.0,0.0,0.0,15490,12770,10748,11354,21584,4
0.0,0.0,0.0,15459,12690,10748,11354,21627,4
0.0,0.0,0.0,15459,12649,10724,11329,21521,4
0.0,0.0,0.0,15397,12583,10676,11317,21375,4
0.0,0.0,0.0,15381,12530,10676,11317,21291,4
0.0,0.0,0.0,15304,12530,10629,11317,21291,4
0.0,0.0,0.0,15273,12477,10582,11292,21229,4
0.0,0.0,0.0,15227,12438,10535,11292,21208,4
0.0,0.0,0.0,15211,12320,10476,11255,21167,4
0.0,0.0,0.0,15211,12267,10464,11255,21167,4
0.0,0.0,0.0,15211,12228,10464,11280,21084,4
0.0,0.0,0.0,15211,12267,10453,11268,21043,4
0.0,0.0,0.0,15211,12267,10464,11280,21043,4
0.0,0.0,0.0,15211,12241,10476,11255,21043,4
0.0,0.0,0.0,15211,12267,10464,11268,21084,4
0.0,0.0,0.0,15211,12267,10464,11280,21043,4
0.0,0.0,0.0,15211,12293,10476,11280,21064,4
0.0,0.0,0.0,15181,12346,10499,11280,21125,4
0.0,0.0,0.0,15196,12346,10499,11280,21125,4
0.0,0.0,0.0,15135,12346,10511,11280,21064,4
0.0,0.0,0.0,15150,12346,10499,11304,21064,4
0.0,0.0,0.0,15135,12346,10511,11304,21064,4
0.0,0.0,0.0,15150,12372,10511,11304,21084,4
0.0,0.0,0.0,15119,12346,10535,11280,21064,4
0.0,0.0,0.0,15150,12372,10511,11304,21084,4
0.0,0.0,0.0,15135,12372,10523,11317,21084,4
0.0,0.0,0.0,15150,12372,10535,11304,21043,4
0.0,0.0,0.0,15150,12398,10523,11317,21125,4
0.0,0.0,0.0,15150,12398,10546,11317,21064,4
0.0,0.0,0.0,15150,12411,10535,11354,21105,4
0.0,0.0,0.0,15181,12398,10535,11379,21146,4
0.0,0.0,0.0,15181,12424,10535,11366,21125,4
0.0,0.0,0.0,15227,12372,10546,11403,21125,4
0.0,0.0,0.0,15242,12424,10546,11403,21146,4
0.0,0.0,0.0,15242,12424,10546,11403,21146,4
0.0,0.0,0.0,15242,12438,10546,11453,21146,4
0.0,0.0,0.0,15211,12451,10546,11403,21146,4
0.0,0.0,0.0,15242,12477,10546,11416,21167,4
0.0,0.0,0.0,15211,12477,10546,11440,21146,4
0.0,0.0,0.0,15273,12451,10582,11453,21146,4
0.0,0.0,0.0,15273,12477,10582,11465,21167,4
0.0,0.0,0.0,15242,12477,10582,11453,21146,4
0.0,0.0,0.0,15242,12451,10546,11503,21229,4
0.0,0.0,0.0,15242,12477,10582,11503,21167,4
0.0,0.0,0.0,15227,12451,10605,11553,21208,4
0.0,0.0,0.0,15242,12477,10582,11565,21208,4
0.0,0.0,0.0,15242,12477,10582,11553,21208,4
0.0,0.0,0.0,15242,12451,10582,11553,21229,4
0.0,0.0,0.0,15242,12477,10582,11528,21167,4
0.0,0.0,0.0,15242,12477,10582,11528,21146,4
0.0,0.0,0.0,15288,12424,10582,11528,21146,4
0.0,0.0,0.0,15288,12451,10582,11528,21146,4
0.0,0.0,0.0,15288,12477,10582,11528,21125,4
0.0,0.0,0.0,15304,12451,10582,11553,21208,4
0.0,0.0,0.0,15288,12477,10582,11528,21125,4
0.0,0.0,0.0,15288,12451,10582,11553,21146,4
0.0,0.0,0.0,15273,12438,10582,11553,21167,4
0.0,0.0,0.0,15273,12451,10582,11553,21208,4
0.0,0.0,0.0,15288,12477,10594,11578,21167,4
0.0,0.0,0.0,15288,12490,10582,11565,21208,4
0.0,0.0,0.0,15288,12438,10582,11578,21187,4
0.0,0.0,0.0,15335,12477,10582,11565,21208,4
0.0,0.0,0.0,15335,12451,10582,11578,21208,4
0.0,0.0,0.0,15335,12477,10582,11578,21208,4
0.0,0.0,0.0,15335,12477,10582,11578,21208,4
0.0,0.0,0.0,15397,12477,10582,11565,21250,4
0.0,0.0,0.0,15397,12477,10582,11565,21208,4
0.0,0.0,0.0,15428,12477,10605,11578,21250,4
0.0,0.0,0.0,15397,12477,10582,11603,21229,4
0.0,0.0,0.0,15428,12490,10582,11640,21270,4
0.0,0.0,0.0,15428,12504,10594,11653,21250,4
0.0,0.0,0.0,15412,12490,10582,11653,21291,4
0.0,0.0,0.0,15459,12517,10605,11678,21250,4
0.0,0.0,0.0,15459,12504,10594,11703,21312,4
0.0,0.0,0.0,15443,12504,10594,11703,21291,4
0.0,0.0,0.0,15459,12490,10582,11703,21291,4
0.0,0.0,0.0,15459,12530,10582,11728,21312,4
0.0,0.0,0.0,15412,12504,10594,11703,21291,4
0.0,0.0,0.0,15412,12504,10582,11716,21291,4
0.0,0.0,0.0,15412,12490,10605,11728,21291,4
0.0,0.0,0.0,15397,12490,10605,11728,21312,4
0.0,0.0,0.0,15350,12490,10605,11728,21291,4
0.0,0.0,0.0,15350,12477,10605,11728,21312,4
0.0,0.0,0.0,15319,12504,10605,11754,21250,4
0.0,0.0,0.0,15335,12504,10594,11754,21250,4
0.0,0.0,0.0,15350,12477,10582,11754,21291,4
0.0,0.0,0.0,15335,12438,10582,11754,21229,4
0.0,0.0,0.0,15335,12424,10582,11716,21208,4
0.0,0.0,0.0,15335,12411,10605,11728,21229,4
0.0,0.0,0.0,15335,12385,10594,11754,21250,4
0.0,0.0,0.0,15366,12372,10594,11766,21312,4
0.0,0.0,0.0,15350,12372,10582,11817,21312,4
0.0,0.0,0.0,15350,12359,10594,11842,21312,4
0.0,0.0,0.0,15350,12346,10594,11881,21291,4
0.0,0.0,0.0,15350,12372,10605,11932,21333,4
0.0,0.0,0.0,15397,12372,10605,12009,21354,4
0.0,0.0,0.0,15412,12359,10594,12060,21312,4
0.0,0.0,0.0,15428,12372,10582,12060,21250,4
0.0,0.0,0.0,15459,12372,10605,12034,21229,4
0.0,0.0,0.0,15459,12346,10605,12021,21270,4
0.0,0.0,0.0,15490,12346,10594,12009,21229,4
0.0,0.0,0.0,15459,12372,10605,12009,21229,4
0.0,0.0,0.0,15428,12346,10605,12009,21208,4
0.0,0.0,0.0,15397,12346,10605,12009,21250,4
0.0,0.0,0.0,15397,12372,10594,12009,21291,4
0.0,0.0,0.0,15350,12372,10605,12009,21354,4
0.0,0.0,0.0,15350,12372,10605,11983,21291,4
0.0,0.0,0.0,15288,12385,10594,12009,21291,4
0.0,0.0,0.0,15273,12372,10594,12009,21229,4
0.0,0.0,0.0,15181,12346,10594,12021,21167,4
0.0,0.0,0.0,15150,12372,10582,12021,21125,4
0.0,0.0,0.0,15150,12372,10605,12060,21125,4
0.0,0.0,0.0,15165,12372,10605,12060,21064,4
0.0,0.0,0.0,15150,12398,10605,12047,21064,4
0.0,0.0,0.0,15150,12398,10594,12060,20981,4
0.0,0.0,0.0,15150,12398,10629,12073,21002,4
0.0,0.0,0.0,15150,12424,10594,12060,21043,4
0.0,0.0,0.0,15181,12438,10629,12073,21064,4
0.0,0.0,0.0,15150,12477,10605,12086,21064,4
0.0,0.0,0.0,15150,12477,10605,12073,21064,4
0.0,0.0,0.0,15150,12477,10629,12112,21084,4
0.0,0.0,0.0,15181,12504,10629,12163,21125,4
0.0,0.0,0.0,15150,12530,10629,12228,21064,4
0.0,0.0,0.0,15043,12530,10641,12320,21043,4
0.0,0.0,0.0,15089,12530,10629,12267,20961,4
0.0,0.0,0.0,15043,12530,10629,12320,20920,4
0.0,0.0,0.0,15089,12530,10641,12280,20879,4
0.0,0.0,0.0,15058,12504,10641,12267,20838,4
0.0,0.0,0.0,14982,12504,10641,12267,20757,4
0.0,0.0,0.0,14982,12504,10641,12009,20575,4
0.0,0.0,0.0,14967,12477,10641,11957,20555,4
0.0,0.0,0.0,14967,12490,10629,11906,20475,4
0.0,0.0,0.0,14952,12490,10641,11868,20475,4
0.0,0.0,0.0,14967,12490,10629,11817,20435,4
0.0,0.0,0.0,14907,12477,10629,11779,20415,4
0.0,0.0,0.0,14907,12477,10653,11741,20355,4
0.0,0.0,0.0,14922,12451,10629,11703,19941,4
0.0,0.0,0.0,14861,12477,10629,11628,19785,4
0.0,0.0,0.0,14846,12451,10629,11603,19843,4
0.0,0.0,0.0,14831,12451,10629,11615,19785,4
0.0,0.0,0.0,14831,12451,10641,11603,19766,4
0.0,0.0,0.0,14907,12451,10641,11603,19727,4
0.0,0.0,0.0,14907,12438,10676,11578,19766,4
0.0,0.0,0.0,14861,12424,10676,11615,19843,4
0.0,0.0,0.0,14846,12398,10688,11678,19999,4
0.0,0.0,0.0,14967,12346,10653,11728,19999,4
0.0,0.0,0.0,15119,12320,10629,11665,19941,4
0.0,0.0,0.0,15366,12490,10629,11478,20475,4
0.0,0.0,0.0,15428,12477,10676,11366,20636,4
0.0,0.0,0.0,15335,12477,10641,11354,20475,4
0.0,0.0,0.0,15258,12398,10464,11317,20395,4
0.0,0.0,0.0,15119,12254,10371,11317,20275,4
0.0,0.0,0.0,15058,12163,10278,11304,20117,4
0.0,0.0,0.0,15089,11817,10174,11280,19669,4
0.0,0.0,0.0,15028,11603,10117,11255,19458,4
0.0,0.0,0.0,14997,11528,10003,11243,19382,4
0.0,0.0,0.0,14967,11565,9958,11219,19344,4
0.0,0.0,0.0,15043,11653,9958,11231,19573,4
0.0,0.0,0.0,15521,11665,9980,11255,20475,4
0.0,0.0,0.0,15805,11665,9980,11231,20818,4
0.0,0.0,0.0,16028,11728,9958,11231,21043,4
0.0,0.0,0.0,16060,11754,9946,11231,21084,4
0.0,0.0,0.0,16125,11817,9935,11206,21043,4
0.0,0.0,0.0,16125,11868,9890,11170,20940,4
0.0,0.0,0.0,16093,11868,9890,11170,20899,4
0.0,0.0,0.0,16093,11919,9867,11157,20798,4
0.0,0.0,0.0,16060,11932,9867,11157,20757,4
0.0,0.0,0.0,16028,11906,9890,11170,20676,4
0.0,0.0,0.0,15964,11906,9890,11157,20555,4
0.0,0.0,0.0,15932,11893,9890,11157,20475,4
0.0,0.0,0.0,15964,11881,9867,11170,20415,4
0.0,0.0,0.0,15948,11881,9890,11182,20395,4
0.0,0.0,0.0,15852,11868,9890,11170,20415,4
0.0,0.0,0.0,15789,11906,9901,11182,20415,4
0.0,0.0,0.0,15678,11906,9935,11194,20176,4
0.0,0.0,0.0,15663,11881,9935,11219,19843,4
0.0,0.0,0.0,15647,11881,9958,11231,19669,4
0.0,0.0,0.0,15631,11855,9958,11206,19631,4
0.0,0.0,0.0,15600,11893,9980,11206,19689,4
0.0,0.0,0.0,15647,11932,9969,11206,19689,4
0.0,0.0,0.0,15600,11919,9980,11219,19689,4
0.0,0.0,0.0,15615,11906,10003,11255,19650,4
0.0,0.0,0.0,15647,11957,10037,11379,20078,4
0.0,0.0,0.0,15789,11932,10071,11465,20335,4
0.0,0.0,0.0,15980,11996,10117,11528,20355,4
0.0,0.0,0.0,16060,12009,10117,11528,20157,4
0.0,0.0,0.0,16060,12009,10117,11503,20117,4
0.0,0.0,0.0,16093,11983,10094,11465,19941,4
0.0,0.0,0.0,16173,12021,10094,11416,19535,4
0.0,0.0,0.0,16189,12009,10094,11403,19231,4
0.0,0.0,0.0,16173,12021,10094,11403,19174,4
0.0,0.0,0.0,16189,12034,10106,11416,19155,4
0.0,0.0,0.0,16385,12086,10117,11416,19193,4
0.0,0.0,0.0,16632,12060,10163,11503,19306,4
0.0,0.0,0.0,16748,12073,10209,11578,19960,4
0.0,0.0,0.0,16831,12124,10232,11653,20117,4
0.0,0.0,0.0,16898,12189,10255,11703,19766,4
0.0,0.0,0.0,17118,12228,10301,11678,19080,4
0.0,0.0,0.0,16848,12228,10301,11653,19099,4
0.0,0.0,0.0,16748,12189,10301,11703,19155,4
0.0,0.0,0.0,16582,12137,10301,11741,19231,4
0.0,0.0,0.0,16499,12163,10301,11855,19420,4
0.0,0.0,0.0,16352,12137,10301,11906,19650,4
0.0,0.0,0.0,16254,12163,10290,11957,19554,4
0.0,0.0,0.0,16222,12137,10301,11804,19401,4
0.0,0.0,0.0,16157,12163,10348,11703,19287,4
0.0,0.0,0.0,16222,12112,10371,11703,19382,4
0.0,0.0,0.0,16157,11996,10325,11628,19401,4
0.0,0.0,0.0,16093,11957,10301,11628,19325,4
0.0,0.0,0.0,16125,11932,10278,11603,19268,4
0.0,0.0,0.0,16271,11957,10325,11478,19155,4
0.0,0.0,0.0,16287,11932,10383,11403,19099,4
0.0,0.0,0.0,16368,11906,10371,11329,19174,4
0.0,0.0,0.0,16467,11906,10348,11304,19231,4
0.0,0.0,0.0,16483,11881,10174,11280,19155,4
0.0,0.0,0.0,16385,11855,10094,11255,19080,4
0.0,0.0,0.0,16385,11906,10049,11231,19043,4
0.0,0.0,0.0,16417,11906,9980,11231,19136,4
0.0,0.0,0.0,16368,11906,9912,11219,19306,4
0.0,0.0,0.0,16368,11957,9890,11206,19249,4
0.0,0.0,0.0,16271,11957,9890,11231,19268,4
0.0,0.0,0.0,16303,12009,9856,11182,19193,4
0.0,0.0,0.0,16222,12060,9856,11231,19249,4
0.0,0.0,0.0,16173,12112,9867,11231,19231,4
0.0,0.0,0.0,16173,12137,9856,11206,19193,4
0.0,0.0,0.0,16189,12163,9890,11206,19231,4
0.0,0.0,0.0,16222,12137,9890,11231,19155,4
0.0,0.0,0.0,16254,12163,9890,11206,19268,4
0.0,0.0,0.0,16368,12112,9901,11231,19420,4
0.0,0.0,0.0,16467,12163,9935,11243,19458,4
0.0,0.0,0.0,16483,12215,9958,11255,19458,4
0.0,0.0,0.0,16467,12254,9980,11255,19477,4
0.0,0.0,0.0,16483,12333,10003,11255,19497,4
0.0,0.0,0.0,16450,12372,10003,11280,19497,4
0.0,0.0,0.0,16417,12385,10026,11304,19497,4
0.0,0.0,0.0,16401,12398,10026,11304,19477,4
0.0,0.0,0.0,16352,12451,10037,11304,19458,4
0.0,0.0,0.0,16303,12504,10049,11317,19401,4
0.0,0.0,0.0,16287,12477,10071,11366,19458,4
0.0,0.0,0.0,16287,12490,10049,11354,19382,4
0.0,0.0,0.0,16287,12477,10083,11354,19401,4
0.0,0.0,0.0,16319,12530,10083,11354,19382,4
0.0,0.0,0.0,16303,12517,10117,11379,19401,4
0.0,0.0,0.0,16287,12477,10094,11366,19458,4
0.0,0.0,0.0,16287,12517,10117,11403,19401,4
0.0,0.0,0.0,16287,12504,10117,11416,19458,4
0.0,0.0,0.0,16287,12504,10129,11428,19458,4
0.0,0.0,0.0,16254,12543,10140,11428,19439,4
0.0,0.0,0.0,16222,12636,10140,11453,19458,4
0.0,0.0,0.0,16222,12690,10163,11465,19401,4
0.0,0.0,0.0,16222,12690,10163,11528,19401,4
0.0,0.0,0.0,16189,12690,10163,11515,19477,4
0.0,0.0,0.0,16173,12649,10174,11478,19458,4
0.0,0.0,0.0,16173,12610,10163,11515,19477,4
0.0,0.0,0.0,16189,12596,10163,11478,19516,4
0.0,0.0,0.0,16254,12610,10140,11453,19535,4
0.0,0.0,0.0,16238,12623,10094,11453,19573,4
0.0,0.0,0.0,16254,12610,10106,11416,19554,4
0.0,0.0,0.0,16254,12676,10117,11403,19535,4
0.0,0.0,0.0,16287,12716,10117,11403,19573,4
0.0,0.0,0.0,16254,12690,10117,11403,19535,4
0.0,0.0,0.0,16222,12690,10117,11403,19554,4
0.0,0.0,0.0,16254,12636,10140,11428,19516,4
0.0,0.0,0.0,16222,12636,10117,11416,19477,4
0.0,0.0,0.0,16222,12636,10140,11416,19497,4
0.0,0.0,0.0,16238,12596,10129,11403,19497,4
0.0,0.0,0.0,16222,12583,10140,11428,19535,4
0.0,0.0,0.0,16254,12610,10129,11403,19612,4
0.0,0.0,0.0,16238,12596,10140,11440,19592,4
0.0,0.0,0.0,16254,12596,10140,11453,19612,4
0.0,0.0,0.0,16303,12583,10140,11453,19650,4
0.0,0.0,0.0,16287,12583,10129,11453,19631,4
0.0,0.0,0.0,16303,12583,10163,11453,19650,4
0.0,0.0,0.0,16303,12583,10140,11453,19650,4
0.0,0.0,0.0,16287,12583,10129,11453,19612,4
0.0,0.0,0.0,16303,12583,10140,11453,19612,4
0.0,0.0,0.0,16287,12583,10117,11453,19631,4
0.0,0.0,0.0,16287,12583,10129,11478,19650,4
0.0,0.0,0.0,16287,12583,10163,11465,19669,4
0.0,0.0,0.0,16287,12583,10163,11465,19631,4
0.0,0.0,0.0,16287,12610,10163,11465,19612,4
0.0,0.0,0.0,16287,12583,10163,11478,19612,4
0.0,0.0,0.0,16336,12583,10174,11490,19612,4
0.0,0.0,0.0,16303,12583,10174,11490,19612,4
0.0,0.0,0.0,16287,12596,10174,11503,19612,4
0.0,0.0,0.0,16287,12610,10197,11515,19612,4
0.0,0.0,0.0,16352,12596,10209,11515,19631,4
0.0,0.0,0.0,16319,12596,10209,11528,19612,4
0.0,0.0,0.0,16352,12583,10209,11503,19631,4
0.0,0.0,0.0,16352,12636,10221,11528,19650,4
0.0,0.0,0.0,16368,12596,10221,11528,19650,4
0.0,0.0,0.0,16385,12596,10221,11553,19650,4
0.0,0.0,0.0,16450,12596,10209,11528,19631,4
0.0,0.0,0.0,16450,12556,10209,11553,19650,4
0.0,0.0,0.0,16450,12543,10209,11553,19689,4
0.0,0.0,0.0,16450,12490,10174,11528,19650,4
0.0,0.0,0.0,16483,12530,10163,11528,19612,4
0.0,0.0,0.0,16483,12477,10129,11503,19612,4
0.0,0.0,0.0,16467,12504,10163,11478,19612,4
0.0,0.0,0.0,16450,12477,10129,11503,19554,4
0.0,0.0,0.0,16483,12490,10129,11465,19554,4
0.0,0.0,0.0,16516,12477,10129,11478,19612,4
0.0,0.0,0.0,16532,12477,10117,11465,19573,4
0.0,0.0,0.0,16499,12438,10117,11478,19612,4
0.0,0.0,0.0,16549,12451,10117,11453,19612,4
0.0,0.0,0.0,16516,12438,10117,11465,19612,4
0.0,0.0,0.0,16549,12464,10140,11503,19612,4
0.0,0.0,0.0,16549,12464,10140,11478,19573,4
0.0,0.0,0.0,16549,12451,10129,11503,19650,4
0.0,0.0,0.0,16549,12490,10140,11503,19535,4
0.0,0.0,0.0,16532,12477,10152,11503,19612,4
0.0,0.0,0.0,16516,12451,10129,11503,19573,4
0.0,0.0,0.0,16516,12464,10117,11503,19573,4
0.0,0.0,0.0,16532,12464,10140,11490,19573,4
0.0,0.0,0.0,16549,12424,10117,11465,19573,4
0.0,0.0,0.0,16549,12438,10117,11503,19573,4
0.0,0.0,0.0,16615,12451,10117,11478,19612,4
0.0,0.0,0.0,16615,12451,10129,11503,19592,4
0.0,0.0,0.0,16615,12451,10117,11503,19631,4
0.0,0.0,0.0,16648,12490,10140,11503,19592,4
0.0,0.0,0.0,16615,12477,10117,11503,19573,4
0.0,0.0,0.0,16615,12504,10129,11503,19631,4
0.0,0.0,0.0,16648,12477,10117,11503,19631,4
0.0,0.0,0.0,16648,12477,10129,11503,19612,4
0.0,0.0,0.0,16632,12490,10117,11478,19612,4
0.0,0.0,0.0,16615,12477,10117,11478,19612,4
0.0,0.0,0.0,16615,12517,10117,11478,19650,4
0.0,0.0,0.0,16615,12504,10117,11465,19612,4
0.0,0.0,0.0,16615,12530,10083,11465,19669,4
0.0,0.0,0.0,16615,12530,10083,11453,19631,4
0.0,0.0,0.0,16582,12504,10106,11465,19612,4
0.0,0.0,0.0,16565,12504,10094,11478,19573,4
0.0,0.0,0.0,16598,12530,10106,11453,19612,4
0.0,0.0,0.0,16615,12530,10117,11453,19573,4
0.0,0.0,0.0,16615,12570,10117,11453,19612,4
0.0,0.0,0.0,16648,12530,10117,11465,19612,4
0.0,0.0,0.0,16632,12543,10117,11465,19631,4
0.0,0.0,0.0,16681,12570,10140,11465,19669,4
0.0,0.0,0.0,16665,12543,10117,11478,19708,4
0.0,0.0,0.0,16698,12543,10129,11528,19689,4
0.0,0.0,0.0,16748,12583,10129,11503,19708,4
0.0,0.0,0.0,16748,12583,10163,11515,19727,4
0.0,0.0,0.0,16781,12636,10174,11553,19727,4
0.0,0.0,0.0,16831,12690,10209,11578,19805,4
0.0,0.0,0.0,16831,12743,10209,11578,19805,4
0.0,0.0,0.0,16848,12770,10232,11603,19785,4
0.0,0.0,0.0,16865,12743,10255,11615,19843,4
0.0,0.0,0.0,16848,12770,10232,11615,19843,4
0.0,0.0,0.0,16882,12797,10255,11628,19843,4
0.0,0.0,0.0,16915,12797,10255,11665,19863,4
0.0,0.0,0.0,16915,12797,10267,11703,19882,4
