GyroX,GyroY,GyroZ,Thumb,Index,Middle,Ring,Pinky,Gesture
0.0,0.0,0.0,13287,25894,25996,36160,17220,5
0.0,0.0,0.0,13260,25945,25971,35935,17203,5
0.0,0.0,0.0,13232,25945,25996,35972,17101,5
0.0,0.0,0.0,13191,25894,25920,35898,17118,5
0.0,0.0,0.0,13177,25894,25945,36010,17792,5
0.0,0.0,0.0,13163,25869,25894,35935,17704,5
0.0,0.0,0.0,13177,25843,25894,35898,17443,5
0.0,0.0,0.0,13177,25818,25843,35898,17101,5
0.0,0.0,0.0,13177,25793,25742,36085,16715,5
0.0,0.0,0.0,13191,25793,25742,36197,16385,5
0.0,0.0,0.0,13191,25793,25666,36047,16287,5
0.0,0.0,0.0,13177,25742,25641,36010,16303,5
0.0,0.0,0.0,13177,25717,25641,35898,16352,5
0.0,0.0,0.0,13177,25691,25591,35935,16287,5
0.0,0.0,0.0,13163,25691,25616,35935,16287,5
0.0,0.0,0.0,13177,25641,25591,35898,16303,5
0.0,0.0,0.0,13150,25666,25591,35861,16254,5
0.0,0.0,0.0,13122,25742,25591,35898,16287,5
0.0,0.0,0.0,13095,25691,25515,35787,16271,5
0.0,0.0,0.0,13013,25691,25540,35824,16287,5
0.0,0.0,0.0,12972,25691,25515,35824,16352,5
0.0,0.0,0.0,12972,25616,25490,35787,16385,5
0.0,0.0,0.0,12945,25591,25515,35824,16434,5
0.0,0.0,0.0,12905,25616,25490,35861,16516,5
0.0,0.0,0.0,12824,25591,25540,35898,16615,5
0.0,0.0,0.0,12824,25591,25490,35898,16582,5
0.0,0.0,0.0,12797,25591,25465,35861,16748,5
0.0,0.0,0.0,12770,25515,25490,35861,16765,5
0.0,0.0,0.0,12770,25591,25440,35935,16831,5
0.0,0.0,0.0,12756,25540,25440,35935,16882,5
0.0,0.0,0.0,12743,25515,25490,35898,16898,5
0.0,0.0,0.0,12690,25591,25390,35787,16915,5
0.0,0.0,0.0,12663,25540,25440,35861,16915,5
0.0,0.0,0.0,12636,25565,25440,35861,16983,5
0.0,0.0,0.0,12636,25490,25390,35898,16949,5
0.0,0.0,0.0,12623,25465,25415,35787,16966,5
0.0,0.0,0.0,12610,25515,25390,35824,16932,5
0.0,0.0,0.0,12636,25490,25390,35712,16949,5
0.0,0.0,0.0,12636,25415,25390,35787,16915,5
0.0,0.0,0.0,12596,25440,25390,35712,16898,5
0.0,0.0,0.0,12596,25440,25390,35712,16848,5
0.0,0.0,0.0,12610,25440,25316,35676,16898,5
0.0,0.0,0.0,12596,25490,25390,35639,16848,5
0.0,0.0,0.0,12583,25440,25316,35565,16831,5
0.0,0.0,0.0,12583,25390,25341,35712,16831,5
0.0,0.0,0.0,12543,25490,25316,35602,16848,5
0.0,0.0,0.0,12530,25390,25291,35602,16815,5
0.0,0.0,0.0,12543,25415,25316,35602,16815,5
0.0,0.0,0.0,12543,25390,25341,35639,16781,5
0.0,0.0,0.0,12517,25390,25341,35565,16831,5
0.0,0.0,0.0,12504,25390,25291,35602,16831,5
0.0,0.0,0.0,12530,25390,25291,35492,16831,5
0.0,0.0,0.0,12504,25390,25341,35565,16815,5
0.0,0.0,0.0,12543,25390,25266,35492,16815,5
0.0,0.0,0.0,12490,25390,25316,35565,16781,5
0.0,0.0,0.0,12504,25390,25316,35639,16831,5
0.0,0.0,0.0,12504,25390,25316,35455,16815,5
0.0,0.0,0.0,12517,25390,25341,35492,16815,5
0.0,0.0,0.0,12490,25390,25316,35418,16765,5
0.0,0.0,0.0,12504,25341,25291,35565,16798,5
0.0,0.0,0.0,12477,25316,25316,35492,16815,5
0.0,0.0,0.0,12504,25341,25241,35382,16848,5
0.0,0.0,0.0,12477,25341,25291,35418,16831,5
0.0,0.0,0.0,12596,25341,25291,35382,16882,5
0.0,0.0,0.0,12690,25291,25316,35418,16882,5
0.0,0.0,0.0,12716,25291,25291,35418,16915,5
0.0,0.0,0.0,12743,25291,25291,35418,16966,5
0.0,0.0,0.0,12716,25266,25291,35418,16949,5
0.0,0.0,0.0,12730,25216,25192,35418,17050,5
0.0,0.0,0.0,12743,25241,25241,35418,17101,5
0.0,0.0,0.0,12690,25241,25241,35418,17101,5
0.0,0.0,0.0,12703,25192,25241,35309,17152,5
0.0,0.0,0.0,12636,25216,25216,35272,17101,5
0.0,0.0,0.0,12610,25241,25241,35309,17135,5
0.0,0.0,0.0,12543,25192,25216,35272,17084,5
0.0,0.0,0.0,12543,25167,25192,35272,17101,5
0.0,0.0,0.0,12543,25192,25167,35236,17152,5
0.0,0.0,0.0,12517,25142,25192,35199,17152,5
0.0,0.0,0.0,12490,25192,25192,35272,17220,5
0.0,0.0,0.0,12530,25192,25142,35236,17289,5
0.0,0.0,0.0,12530,25142,25142,35272,17374,5
0.0,0.0,0.0,12530,25142,25093,35199,17652,5
0.0,0.0,0.0,12530,25167,25118,35236,17739,5
0.0,0.0,0.0,12504,25118,25093,35127,18093,5
0.0,0.0,0.0,12477,25093,25093,35199,18164,5
0.0,0.0,0.0,12464,25093,25044,35236,18164,5
0.0,0.0,0.0,12424,25142,25118,35163,18362,5
0.0,0.0,0.0,12398,25118,25093,35127,18764,5
0.0,0.0,0.0,12372,25142,25068,35127,18746,5
0.0,0.0,0.0,12372,25142,25093,35163,18709,5
0.0,0.0,0.0,12333,25093,25044,35055,18654,5
0.0,0.0,0.0,12346,25118,25044,35127,18635,5
0.0,0.0,0.0,12320,25093,24995,35018,18635,5
0.0,0.0,0.0,12320,25093,24995,35055,18654,5
0.0,0.0,0.0,12346,25093,25044,34982,18709,5
0.0,0.0,0.0,12346,25093,25044,34982,18727,5
0.0,0.0,0.0,12293,25044,25019,35055,18709,5
0.0,0.0,0.0,12320,25044,25019,34982,18709,5
0.0,0.0,0.0,12320,24995,24995,34910,18727,5
0.0,0.0,0.0,12320,25019,25044,34874,18727,5
0.0,0.0,0.0,12293,25044,24995,34910,18672,5
0.0,0.0,0.0,12254,25044,25019,34839,18727,5
0.0,0.0,0.0,12176,24995,24995,34839,18709,5
0.0,0.0,0.0,12163,24995,24995,34839,18820,5
0.0,0.0,0.0,12176,25019,24995,34839,18727,5
0.0,0.0,0.0,12124,24946,24946,34839,18709,5
0.0,0.0,0.0,12189,24946,24995,34767,18746,5
0.0,0.0,0.0,12124,24995,24897,34767,18746,5
0.0,0.0,0.0,12124,24995,24921,34696,18672,5
0.0,0.0,0.0,12112,24995,24897,34731,18562,5
0.0,0.0,0.0,12060,24946,24897,34696,18508,5
0.0,0.0,0.0,12047,24946,24897,34696,18471,5
0.0,0.0,0.0,12034,24946,24897,34589,18453,5
0.0,0.0,0.0,12060,24995,24824,34624,18489,5
0.0,0.0,0.0,12009,24946,24897,34696,18489,5
0.0,0.0,0.0,12009,24921,24824,34624,18508,5
0.0,0.0,0.0,12021,24921,24897,34696,18508,5
0.0,0.0,0.0,12009,24946,24873,34660,18508,5
0.0,0.0,0.0,11983,24897,24848,34624,18599,5
0.0,0.0,0.0,11970,24946,24799,34624,18727,5
0.0,0.0,0.0,11957,24897,24824,34589,18801,5
0.0,0.0,0.0,11957,24897,24799,34624,18857,5
0.0,0.0,0.0,11932,24848,24824,34589,18801,5
0.0,0.0,0.0,11906,24897,24799,34660,18857,5
0.0,0.0,0.0,11906,24848,24799,34624,18783,5
0.0,0.0,0.0,11906,24873,24751,34553,18783,5
0.0,0.0,0.0,11868,24848,24751,34589,18654,5
0.0,0.0,0.0,11868,24799,24727,34553,18489,5
0.0,0.0,0.0,11868,24799,24799,34518,18453,5
0.0,0.0,0.0,11881,24799,24751,34482,18489,5
0.0,0.0,0.0,11881,24799,24727,34482,18489,5
0.0,0.0,0.0,11868,24824,24702,34518,18453,5
0.0,0.0,0.0,11868,24799,24727,34447,18526,5
0.0,0.0,0.0,11855,24848,24751,34553,18544,5
0.0,0.0,0.0,11881,24799,24702,34589,18581,5
0.0,0.0,0.0,11855,24824,24702,34518,18672,5
0.0,0.0,0.0,11881,24824,24702,34553,18635,5
0.0,0.0,0.0,11906,24775,24702,34553,18635,5
0.0,0.0,0.0,11906,24824,24702,34412,18709,5
0.0,0.0,0.0,11906,24799,24702,34482,18709,5
0.0,0.0,0.0,11906,24751,24630,34412,18727,5
0.0,0.0,0.0,11893,24799,24702,34412,18783,5
0.0,0.0,0.0,11881,24702,24654,34412,18783,5
0.0,0.0,0.0,11881,24727,24630,34412,18857,5
0.0,0.0,0.0,11893,24727,24678,34412,18820,5
0.0,0.0,0.0,11881,24702,24654,34341,18912,5
0.0,0.0,0.0,11881,24678,24702,34341,18931,5
0.0,0.0,0.0,11868,24727,24678,34341,18949,5
0.0,0.0,0.0,11881,24702,24727,34412,18968,5
0.0,0.0,0.0,11906,24702,24678,34341,19005,5
0.0,0.0,0.0,11881,24678,24630,34271,19080,5
0.0,0.0,0.0,11881,24654,24606,34271,19193,5
0.0,0.0,0.0,11881,24702,24630,34341,19401,5
0.0,0.0,0.0,11868,24702,24654,34341,19612,5
0.0,0.0,0.0,11881,24654,24654,34341,20039,5
0.0,0.0,0.0,11881,24654,24606,34271,20039,5
0.0,0.0,0.0,11855,24630,24606,34200,19999,5
0.0,0.0,0.0,11817,24654,24606,34271,19960,5
0.0,0.0,0.0,11792,24606,24534,34165,19882,5
0.0,0.0,0.0,11779,24678,24582,34165,19843,5
0.0,0.0,0.0,11792,24654,24606,34165,19843,5
0.0,0.0,0.0,11792,24606,24606,34165,19843,5
0.0,0.0,0.0,11779,24654,24606,34130,19805,5
0.0,0.0,0.0,11754,24630,24606,34130,19805,5
0.0,0.0,0.0,11779,24558,24606,34165,19843,5
0.0,0.0,0.0,11754,24606,24606,34200,19785,5
0.0,0.0,0.0,11754,24678,24558,34130,19843,5
0.0,0.0,0.0,11754,24606,24606,34095,19805,5
0.0,0.0,0.0,11754,24606,24510,34095,19863,5
0.0,0.0,0.0,11716,24606,24510,34095,19805,5
0.0,0.0,0.0,11716,24606,24510,34060,19882,5
0.0,0.0,0.0,11703,24558,24510,33991,19863,5
0.0,0.0,0.0,11665,24558,24486,33991,19999,5
0.0,0.0,0.0,11665,24510,24510,33991,19960,5
0.0,0.0,0.0,11653,24510,24462,33921,19960,5
0.0,0.0,0.0,11665,24510,24462,33991,19999,5
0.0,0.0,0.0,11653,24510,24414,33991,20039,5
0.0,0.0,0.0,11615,24462,24414,33956,20019,5
0.0,0.0,0.0,11665,24438,24390,33887,20039,5
0.0,0.0,0.0,11628,24462,24414,33991,20098,5
0.0,0.0,0.0,11628,24462,24366,33991,20117,5
0.0,0.0,0.0,11603,24510,24366,33956,20157,5
0.0,0.0,0.0,11578,24462,24318,33991,20176,5
0.0,0.0,0.0,11578,24390,24342,33852,20236,5
0.0,0.0,0.0,11578,24390,24318,33991,20196,5
0.0,0.0,0.0,11578,24414,24271,33852,20236,5
0.0,0.0,0.0,11553,24390,24271,33921,20236,5
0.0,0.0,0.0,11553,24414,24247,33817,20256,5
0.0,0.0,0.0,11553,24390,24271,33783,20295,5
0.0,0.0,0.0,11528,24318,24223,33714,20335,5
0.0,0.0,0.0,11515,24271,24152,33714,20275,5
0.0,0.0,0.0,11528,24318,24152,33645,20335,5
0.0,0.0,0.0,11528,24271,24129,33645,20395,5
0.0,0.0,0.0,11503,24223,24081,33576,20455,5
0.0,0.0,0.0,11478,24223,24081,33542,20495,5
0.0,0.0,0.0,11478,24223,24081,33474,20555,5
0.0,0.0,0.0,11528,24176,24081,33474,20495,5
0.0,0.0,0.0,11503,24223,24081,33439,20555,5
0.0,0.0,0.0,11503,24223,24034,33371,20535,5
0.0,0.0,0.0,11478,24199,24058,33439,20575,5
0.0,0.0,0.0,11503,24223,24011,33337,20636,5
0.0,0.0,0.0,11478,24176,23964,33371,20696,5
0.0,0.0,0.0,11490,24105,23964,33303,20656,5
0.0,0.0,0.0,11453,24081,23917,33337,20716,5
0.0,0.0,0.0,11465,24129,23894,33236,20716,5
0.0,0.0,0.0,11453,24058,23847,33168,20656,5
0.0,0.0,0.0,11453,24058,23870,33134,20716,5
0.0,0.0,0.0,11453,24034,23824,33033,20676,5
0.0,0.0,0.0,11453,23987,23777,33067,20676,5
0.0,0.0,0.0,11453,23987,23754,33067,20636,5
0.0,0.0,0.0,11416,23987,23754,33033,20615,5
0.0,0.0,0.0,11416,24011,23754,32899,20636,5
0.0,0.0,0.0,11403,23987,23684,32932,20535,5
0.0,0.0,0.0,11403,23964,23684,32932,20455,5
0.0,0.0,0.0,11379,23940,23661,32932,20315,5
0.0,0.0,0.0,11403,23940,23684,32932,20335,5
0.0,0.0,0.0,11379,23940,23707,33033,20315,5
0.0,0.0,0.0,11403,23987,23684,32899,20157,5
0.0,0.0,0.0,11428,23940,23684,32932,19941,5
0.0,0.0,0.0,11403,23964,23707,32832,19843,5
0.0,0.0,0.0,11428,23964,23684,32832,19766,5
0.0,0.0,0.0,11428,23940,23661,32899,19477,5
0.0,0.0,0.0,11428,23940,23661,32966,18654,5
0.0,0.0,0.0,11403,23964,23661,32999,18057,5
0.0,0.0,0.0,11403,23964,23661,32899,17617,5
0.0,0.0,0.0,11379,23964,23615,32765,17237,5
0.0,0.0,0.0,11403,23940,23615,32533,16882,5
0.0,0.0,0.0,11478,23964,23569,32238,16368,5
0.0,0.0,0.0,11603,23940,23522,32043,15868,5
0.0,0.0,0.0,11754,23847,23522,31946,15710,5
0.0,0.0,0.0,12060,23847,23477,31785,15412,5
0.0,0.0,0.0,12320,23894,23431,31752,15150,5
0.0,0.0,0.0,12610,23847,23385,31720,14967,5
0.0,0.0,0.0,12770,23800,23431,31881,14726,5
0.0,0.0,0.0,12851,23777,23408,31946,14607,5
0.0,0.0,0.0,12864,23777,23431,32075,14636,5
0.0,0.0,0.0,12851,23777,23431,32140,14607,5
0.0,0.0,0.0,13384,23847,23431,32108,14577,5
0.0,0.0,0.0,14021,23777,23454,31978,14621,5
0.0,0.0,0.0,14473,23800,23454,31913,14607,5
0.0,0.0,0.0,14696,23754,23385,31752,14577,5
0.0,0.0,0.0,14666,23661,23431,31624,14577,5
0.0,0.0,0.0,14488,23615,23385,31656,14547,5
0.0,0.0,0.0,14341,23569,23339,31656,14547,5
0.0,0.0,0.0,14268,23592,23316,31656,14547,5
0.0,0.0,0.0,14195,23592,23339,31720,14547,5
0.0,0.0,0.0,14151,23615,23385,31785,14577,5
0.0,0.0,0.0,14036,23730,23477,31881,14636,5
0.0,0.0,0.0,13749,23847,23522,31881,14726,5
0.0,0.0,0.0,13454,23847,23569,32010,14786,5
0.0,0.0,0.0,12918,23917,23661,32108,14907,5
0.0,0.0,0.0,12517,24034,23661,32010,14967,5
0.0,0.0,0.0,12438,24105,23707,32108,15089,5
0.0,0.0,0.0,12451,24318,23824,32238,15273,5
0.0,0.0,0.0,12583,24462,23894,32271,15366,5
0.0,0.0,0.0,12543,24534,24011,32271,15428,5
0.0,0.0,0.0,12918,24510,23987,32271,15521,5
0.0,0.0,0.0,13260,24534,24034,32369,15490,5
0.0,0.0,0.0,13538,24486,24034,32402,15490,5
0.0,0.0,0.0,13821,24510,23964,32566,15521,5
0.0,0.0,0.0,13636,24414,23940,32500,15553,5
0.0,0.0,0.0,12851,24414,23894,32566,15521,5
0.0,0.0,0.0,12215,24247,23707,32566,15553,5
0.0,0.0,0.0,12320,24223,23684,32732,15568,5
0.0,0.0,0.0,12060,24176,23638,32699,15553,5
0.0,0.0,0.0,11830,24152,23569,32732,15647,5
0.0,0.0,0.0,11665,24129,23569,32699,15710,5
0.0,0.0,0.0,11578,24129,23522,32732,15773,5
0.0,0.0,0.0,11453,24081,23522,32699,15884,5
0.0,0.0,0.0,11416,24081,23477,32699,16012,5
0.0,0.0,0.0,11403,24081,23477,32732,16044,5
0.0,0.0,0.0,11528,24129,23431,32699,16141,5
0.0,0.0,0.0,11515,24058,23477,32699,16189,5
0.0,0.0,0.0,11478,24034,23431,32633,16189,5
0.0,0.0,0.0,11403,24034,23431,32633,16254,5
0.0,0.0,0.0,11379,24081,23431,32633,16254,5
0.0,0.0,0.0,11354,24034,23431,32599,16238,5
0.0,0.0,0.0,11453,24034,23431,32566,16222,5
0.0,0.0,0.0,11553,24011,23385,32533,16222,5
0.0,0.0,0.0,11503,24034,23385,32566,16222,5
0.0,0.0,0.0,11503,23964,23385,32533,16254,5
0.0,0.0,0.0,11453,23987,23385,32533,16028,5
0.0,0.0,0.0,11366,24034,23362,32500,15631,5
0.0,0.0,0.0,11329,23940,23385,32435,15490,5
0.0,0.0,0.0,11317,23940,23339,32533,15366,5
0.0,0.0,0.0,11280,23940,23316,32699,15227,5
0.0,0.0,0.0,11292,23847,23339,32699,15058,5
0.0,0.0,0.0,11243,23894,23339,32633,14861,5
0.0,0.0,0.0,11206,23940,23294,32500,14666,5
0.0,0.0,0.0,11170,23870,23248,32369,14547,5
0.0,0.0,0.0,11157,23800,23203,32271,14458,5
0.0,0.0,0.0,11109,23754,23225,32173,14385,5
0.0,0.0,0.0,11060,23754,23225,32173,14282,5
0.0,0.0,0.0,10987,23777,23203,32271,14253,5
0.0,0.0,0.0,10915,23707,23203,32633,14137,5
0.0,0.0,0.0,10843,23754,23157,32799,14137,5
0.0,0.0,0.0,10807,23730,23135,32932,14166,5
0.0,0.0,0.0,10783,23707,23112,32633,14224,5
0.0,0.0,0.0,10807,23707,23022,32303,14786,5
0.0,0.0,0.0,10867,23661,22932,31785,15150,5
0.0,0.0,0.0,10927,23615,22932,31624,15242,5
0.0,0.0,0.0,10927,23615,22910,31434,15165,5
0.0,0.0,0.0,10915,23569,22865,31402,15058,5
0.0,0.0,0.0,10891,23569,22865,31370,14997,5
0.0,0.0,0.0,10915,23569,22887,31497,14922,5
0.0,0.0,0.0,11012,23615,22932,31720,14816,5
0.0,0.0,0.0,10987,23661,22955,31881,14786,5
0.0,0.0,0.0,10999,23661,23022,32140,14711,5
0.0,0.0,0.0,11012,23661,22932,32238,14636,5
0.0,0.0,0.0,10963,23661,22955,32140,14636,5
0.0,0.0,0.0,10963,23661,22977,32303,14636,5
0.0,0.0,0.0,10927,23661,22887,32238,14636,5
0.0,0.0,0.0,10939,23661,22932,32205,14666,5
0.0,0.0,0.0,10915,23592,22932,32108,14696,5
0.0,0.0,0.0,10927,23661,22932,32075,14741,5
0.0,0.0,0.0,10759,23615,22932,32140,15058,5
0.0,0.0,0.0,10700,23592,22932,32108,15181,5
0.0,0.0,0.0,10688,23661,22955,32043,15150,5
0.0,0.0,0.0,10676,23615,22977,31978,15135,5
0.0,0.0,0.0,10688,23592,22932,31978,15211,5
0.0,0.0,0.0,10748,23522,22977,31978,15258,5
0.0,0.0,0.0,10819,23546,22977,32108,15273,5
0.0,0.0,0.0,10867,23569,22932,32205,15304,5
0.0,0.0,0.0,10867,23592,22977,32238,15273,5
0.0,0.0,0.0,10915,23569,23044,32369,15304,5
0.0,0.0,0.0,10927,23569,23022,32369,15273,5
0.0,0.0,0.0,10915,23569,23022,32369,15242,5
0.0,0.0,0.0,10879,23546,22977,32303,15242,5
0.0,0.0,0.0,10879,23522,23022,32303,15242,5
0.0,0.0,0.0,10867,23522,22977,32303,15211,5
0.0,0.0,0.0,10867,23522,22955,32303,15227,5
0.0,0.0,0.0,10867,23522,23022,32271,15165,5
0.0,0.0,0.0,10831,23499,22932,32271,15165,5
0.0,0.0,0.0,10819,23477,22932,32238,15150,5
0.0,0.0,0.0,10783,23477,22932,32303,15150,5
0.0,0.0,0.0,10783,23522,22977,32238,15150,5
0.0,0.0,0.0,10783,23499,22932,32238,15150,5
0.0,0.0,0.0,10771,23499,22910,32140,15181,5
0.0,0.0,0.0,10795,23477,22910,32173,15211,5
0.0,0.0,0.0,10759,23499,22910,32140,15165,5
0.0,0.0,0.0,10783,23477,22932,32238,15211,5
0.0,0.0,0.0,10783,23477,22932,32173,15211,5
0.0,0.0,0.0,10783,23477,22932,32108,15181,5
0.0,0.0,0.0,10795,23477,22955,32205,15227,5
0.0,0.0,0.0,10771,23522,22887,32173,15227,5
0.0,0.0,0.0,10771,23499,22887,32140,15165,5
0.0,0.0,0.0,10783,23477,22887,32043,15150,5
0.0,0.0,0.0,10795,23477,22865,31913,15227,5
0.0,0.0,0.0,10795,23431,22843,31849,15227,5
0.0,0.0,0.0,10783,23477,22865,31849,15181,5
0.0,0.0,0.0,10795,23431,22820,31881,15150,5
0.0,0.0,0.0,10795,23477,22843,31913,15150,5
0.0,0.0,0.0,10795,23477,22843,31946,15119,5
0.0,0.0,0.0,10783,23431,22843,31946,15150,5
0.0,0.0,0.0,10783,23454,22843,31913,15135,5
0.0,0.0,0.0,10771,23431,22820,31978,15150,5
0.0,0.0,0.0,10771,23431,22820,31978,15165,5
0.0,0.0,0.0,10771,23431,22843,31913,15211,5
0.0,0.0,0.0,10783,23454,22843,31849,15242,5
0.0,0.0,0.0,10771,23431,22843,31849,15273,5
0.0,0.0,0.0,10748,23431,22843,31785,15304,5
0.0,0.0,0.0,10771,23431,22798,31849,15304,5
0.0,0.0,0.0,10748,23431,22798,31913,15350,5
0.0,0.0,0.0,10748,23454,22843,31881,15366,5
0.0,0.0,0.0,10748,23385,22798,31849,15412,5
0.0,0.0,0.0,10700,23385,22843,31849,15428,5
0.0,0.0,0.0,10676,23431,22798,31978,15397,5
0.0,0.0,0.0,10688,23431,22798,31849,15412,5
0.0,0.0,0.0,10641,23385,22798,31849,15412,5
0.0,0.0,0.0,10653,23431,22798,31849,15428,5
0.0,0.0,0.0,10664,23362,22798,31817,15459,5
0.0,0.0,0.0,10676,23431,22798,31817,15459,5
0.0,0.0,0.0,10641,23385,22798,31785,15412,5
0.0,0.0,0.0,10605,23385,22776,31785,15475,5
0.0,0.0,0.0,10605,23339,22776,31785,15475,5
0.0,0.0,0.0,10605,23362,22798,31785,15490,5
0.0,0.0,0.0,10594,23385,22754,31785,15521,5
0.0,0.0,0.0,10605,23362,22798,31752,15506,5
0.0,0.0,0.0,10582,23362,22798,31849,15553,5
0.0,0.0,0.0,10582,23339,22754,31720,15568,5
0.0,0.0,0.0,10582,23316,22798,31752,15647,5
0.0,0.0,0.0,10594,23339,22754,31785,15615,5
0.0,0.0,0.0,10582,23339,22709,31720,15663,5
0.0,0.0,0.0,10582,23339,22709,31785,15663,5
0.0,0.0,0.0,10582,23339,22754,31720,15726,5
0.0,0.0,0.0,10582,23294,22798,31720,15741,5
0.0,0.0,0.0,10582,23316,22754,31752,15726,5
0.0,0.0,0.0,10582,23294,22776,31785,15741,5
0.0,0.0,0.0,10582,23271,22754,31752,15726,5
0.0,0.0,0.0,10558,23294,22709,31720,15757,5
0.0,0.0,0.0,10546,23294,22776,31720,15773,5
0.0,0.0,0.0,10546,23294,22754,31720,15773,5
0.0,0.0,0.0,10546,23294,22776,31688,15805,5
0.0,0.0,0.0,10594,23316,22754,31720,15805,5
0.0,0.0,0.0,10891,23294,22709,31656,15773,5
0.0,0.0,0.0,11182,23248,22709,31785,15773,5
0.0,0.0,0.0,11428,23203,22709,31849,15678,5
0.0,0.0,0.0,11553,23157,22643,31978,15443,5
0.0,0.0,0.0,11578,23112,22621,31913,15211,5
0.0,0.0,0.0,11553,23203,22576,31913,14997,5
0.0,0.0,0.0,11528,23339,22621,31849,14846,5
0.0,0.0,0.0,11515,23431,22754,31881,14756,5
0.0,0.0,0.0,11528,23477,22843,31849,14726,5
0.0,0.0,0.0,11528,23522,22977,31849,14607,5
0.0,0.0,0.0,11578,23569,23090,31785,14547,5
0.0,0.0,0.0,11615,23522,23157,31656,14547,5
0.0,0.0,0.0,11603,23477,23157,31624,14562,5
0.0,0.0,0.0,11565,23477,23135,31593,14562,5
0.0,0.0,0.0,11603,23477,23157,31561,14547,5
0.0,0.0,0.0,11603,23431,23157,31465,14607,5
0.0,0.0,0.0,11603,23522,23157,31465,14621,5
0.0,0.0,0.0,11603,23385,23157,31465,14577,5
0.0,0.0,0.0,11565,23431,23203,31465,14666,5
0.0,0.0,0.0,11553,23431,23203,31434,14636,5
0.0,0.0,0.0,11528,23431,23248,31497,14696,5
0.0,0.0,0.0,11478,23431,23248,31434,14816,5
0.0,0.0,0.0,11453,23431,23248,31402,14801,5
0.0,0.0,0.0,11453,23431,23294,31370,14846,5
0.0,0.0,0.0,11416,23431,23294,31370,14907,5
0.0,0.0,0.0,11428,23431,23271,31339,14876,5
0.0,0.0,0.0,11403,23431,23225,31307,14861,5
0.0,0.0,0.0,11416,23385,23225,31276,14846,5
0.0,0.0,0.0,11416,23316,23203,31276,14846,5
0.0,0.0,0.0,11416,23339,23203,31276,14816,5
0.0,0.0,0.0,11453,23294,23203,31307,14861,5
0.0,0.0,0.0,11416,23316,23135,31276,14846,5
0.0,0.0,0.0,11403,23294,23203,31276,14861,5
0.0,0.0,0.0,11403,23294,23203,31244,14876,5
0.0,0.0,0.0,11403,23294,23180,31244,14876,5
0.0,0.0,0.0,11403,23316,23157,31307,14937,5
0.0,0.0,0.0,11379,23294,23157,31213,14967,5
0.0,0.0,0.0,11391,23271,23157,31213,14937,5
0.0,0.0,0.0,11403,23294,23112,31213,14967,5
0.0,0.0,0.0,11366,23248,23157,31213,14982,5
0.0,0.0,0.0,11379,23294,23157,31213,14997,5
0.0,0.0,0.0,11354,23271,23180,31244,14982,5
0.0,0.0,0.0,11391,23203,23157,31276,15074,5
0.0,0.0,0.0,11354,23225,23203,31213,15028,5
0.0,0.0,0.0,11329,23248,23157,31213,15043,5
0.0,0.0,0.0,11317,23225,23157,31244,15135,5
0.0,0.0,0.0,11317,23248,23135,31181,15089,5
0.0,0.0,0.0,11304,23203,23112,31213,15089,5
0.0,0.0,0.0,11304,23294,23135,31119,15089,5
0.0,0.0,0.0,11317,23203,23112,31181,15104,5
0.0,0.0,0.0,11317,23203,23135,31150,15104,5
0.0,0.0,0.0,11329,23203,23112,31119,15089,5
0.0,0.0,0.0,11317,23203,23112,31150,15104,5
0.0,0.0,0.0,11304,23203,23112,31087,15119,5
0.0,0.0,0.0,11292,23203,23067,31087,15119,5
0.0,0.0,0.0,11304,23225,23112,31087,15150,5
0.0,0.0,0.0,11304,23157,23112,31056,15104,5
0.0,0.0,0.0,11304,23203,23044,31056,15119,5
0.0,0.0,0.0,11304,23112,23044,31056,15058,5
0.0,0.0,0.0,11304,23157,23044,31025,15028,5
0.0,0.0,0.0,11304,23135,23044,31087,14997,5
0.0,0.0,0.0,11317,23157,23044,31025,15058,5
0.0,0.0,0.0,11304,23090,23044,31025,15058,5
0.0,0.0,0.0,11304,23112,22999,31025,15074,5
0.0,0.0,0.0,11304,23112,23022,30962,15058,5
0.0,0.0,0.0,11292,23067,22999,30994,15058,5
0.0,0.0,0.0,11304,23135,23022,31025,15058,5
0.0,0.0,0.0,11292,23135,23022,31056,15058,5
0.0,0.0,0.0,11304,23090,23022,31025,15058,5
0.0,0.0,0.0,11304,23090,22977,31025,15058,5
0.0,0.0,0.0,11304,23067,22999,30994,15058,5
0.0,0.0,0.0,11292,23112,22955,30994,15104,5
0.0,0.0,0.0,11304,23067,22999,30962,15104,5
0.0,0.0,0.0,11304,23067,22977,30994,15089,5
0.0,0.0,0.0,11268,23067,23022,30962,15150,5
0.0,0.0,0.0,11317,23022,22977,30962,15119,5
0.0,0.0,0.0,11280,23112,22955,31025,15150,5
0.0,0.0,0.0,11304,23067,23022,30994,15135,5
0.0,0.0,0.0,11292,23044,23022,30994,15119,5
0.0,0.0,0.0,11268,23044,22955,30962,15150,5
0.0,0.0,0.0,11280,23044,22955,30962,15135,5
0.0,0.0,0.0,11280,23067,22977,30962,15165,5
0.0,0.0,0.0,11304,23022,22932,30962,15150,5
0.0,0.0,0.0,11304,23022,22932,30962,15150,5
0.0,0.0,0.0,11280,23022,22932,30962,15150,5
0.0,0.0,0.0,11280,23044,22955,30962,15165,5
0.0,0.0,0.0,11280,23022,22977,30962,15196,5
0.0,0.0,0.0,11280,23067,22910,30931,15165,5
0.0,0.0,0.0,11280,23022,22932,30869,15165,5
0.0,0.0,0.0,11280,23022,22932,30900,15211,5
0.0,0.0,0.0,11304,23022,22932,30900,15211,5
0.0,0.0,0.0,11304,23022,22932,30962,15242,5
0.0,0.0,0.0,11292,22977,22887,30900,15211,5
0.0,0.0,0.0,11255,23022,22932,30900,15242,5
0.0,0.0,0.0,11255,23022,22865,30900,15273,5
0.0,0.0,0.0,11268,23022,22932,30962,15227,5
0.0,0.0,0.0,11255,23022,22932,30900,15227,5
0.0,0.0,0.0,11255,22977,22932,30869,15227,5
0.0,0.0,0.0,11268,22977,22932,30900,15242,5
0.0,0.0,0.0,11304,22999,22887,30931,15211,5
0.0,0.0,0.0,11255,22955,22932,30931,15273,5
0.0,0.0,0.0,11255,23022,22887,30869,15242,5
0.0,0.0,0.0,11268,22955,22887,30838,15258,5
0.0,0.0,0.0,11255,22977,22932,30900,15273,5
0.0,0.0,0.0,11268,22955,22865,30776,15273,5
0.0,0.0,0.0,11255,22932,22887,30838,15273,5
0.0,0.0,0.0,11268,22955,22887,30900,15273,5
0.0,0.0,0.0,11255,22932,22910,30869,15273,5
0.0,0.0,0.0,11268,22977,22865,30869,15242,5
0.0,0.0,0.0,11255,22955,22887,30838,15242,5
0.0,0.0,0.0,11255,22932,22887,30931,15288,5
0.0,0.0,0.0,11255,22932,22865,30838,15273,5
0.0,0.0,0.0,11255,22977,22887,30900,15288,5
0.0,0.0,0.0,11255,23022,22865,30838,15288,5
0.0,0.0,0.0,11255,23022,22865,30869,15273,5
0.0,0.0,0.0,11268,22955,22910,30838,15227,5
0.0,0.0,0.0,11255,22932,22887,30838,15242,5
0.0,0.0,0.0,11206,22932,22887,30838,15242,5
0.0,0.0,0.0,11255,22910,22865,30807,15227,5
0.0,0.0,0.0,11255,22887,22865,30807,15227,5
0.0,0.0,0.0,11255,22932,22865,30807,15227,5
0.0,0.0,0.0,11255,22887,22843,30838,15273,5
0.0,0.0,0.0,11255,22887,22865,30745,15273,5
0.0,0.0,0.0,11243,22887,22843,30745,15211,5
0.0,0.0,0.0,11255,22932,22865,30776,15273,5
0.0,0.0,0.0,11219,22932,22887,30776,15288,5
0.0,0.0,0.0,11255,22910,22843,30776,15258,5
0.0,0.0,0.0,11255,22932,22865,30838,15304,5
0.0,0.0,0.0,11231,22887,22843,30838,15288,5
0.0,0.0,0.0,11255,22843,22843,30807,15273,5
0.0,0.0,0.0,11231,22887,22843,30745,15273,5
0.0,0.0,0.0,11255,22843,22843,30715,15273,5
0.0,0.0,0.0,11231,22887,22887,30745,15273,5
0.0,0.0,0.0,11231,22865,22887,30776,15242,5
0.0,0.0,0.0,11231,22887,22910,30684,15242,5
0.0,0.0,0.0,11219,22843,22887,30776,15258,5
0.0,0.0,0.0,11231,22820,22843,30745,15273,5
0.0,0.0,0.0,11231,22843,22843,30745,15258,5
0.0,0.0,0.0,11219,22754,22820,30653,15227,5
0.0,0.0,0.0,11231,22820,22843,30715,15273,5
0.0,0.0,0.0,11219,22776,22820,30653,15273,5
0.0,0.0,0.0,11219,22776,22776,30715,15181,5
0.0,0.0,0.0,11219,22843,22843,30653,15227,5
0.0,0.0,0.0,11219,22843,22843,30745,15211,5
0.0,0.0,0.0,11219,22776,22843,30776,15242,5
0.0,0.0,0.0,11231,22798,22798,30715,15211,5
0.0,0.0,0.0,11219,22798,22820,30715,15196,5
0.0,0.0,0.0,11231,22843,22798,30715,15211,5
0.0,0.0,0.0,11206,22798,22843,30715,15196,5
0.0,0.0,0.0,11231,22798,22798,30622,15211,5
0.0,0.0,0.0,11243,22820,22776,30591,15211,5
0.0,0.0,0.0,11206,22798,22798,30715,15211,5
0.0,0.0,0.0,11231,22820,22820,30715,15258,5
0.0,0.0,0.0,11231,22798,22798,30653,15227,5
0.0,0.0,0.0,11219,22798,22820,30622,15273,5
0.0,0.0,0.0,11219,22843,22843,30715,15273,5
0.0,0.0,0.0,11206,22843,22776,30591,15304,5
0.0,0.0,0.0,11231,22820,22798,30715,15397,5
0.0,0.0,0.0,11243,22843,22843,30715,15537,5
0.0,0.0,0.0,11268,22932,22887,30838,15678,5
0.0,0.0,0.0,11255,22955,22843,30807,15837,5
0.0,0.0,0.0,11255,23112,22932,30900,16189,5
0.0,0.0,0.0,11280,23180,22932,30994,16516,5
0.0,0.0,0.0,11268,23225,22999,31087,16765,5
0.0,0.0,0.0,11170,23339,22955,31213,17067,5
0.0,0.0,0.0,11012,23431,22977,31339,17357,5
0.0,0.0,0.0,10891,23385,23022,31465,17634,5
0.0,0.0,0.0,10795,23431,23044,31561,17792,5
0.0,0.0,0.0,10748,23477,23044,31529,17986,5
0.0,0.0,0.0,10605,23477,23112,31720,18290,5
0.0,0.0,0.0,10499,23522,23157,31720,18635,5
0.0,0.0,0.0,10371,23661,23180,31817,18801,5
0.0,0.0,0.0,10209,23707,23203,31913,18875,5
0.0,0.0,0.0,10174,23730,23203,31913,18931,5
0.0,0.0,0.0,10209,23754,23248,31978,18949,5
0.0,0.0,0.0,10209,23730,23203,31978,18949,5
0.0,0.0,0.0,10209,23754,23203,31913,18949,5
0.0,0.0,0.0,10163,23777,23248,31913,18894,5
0.0,0.0,0.0,9958,23754,23225,32010,19005,5
0.0,0.0,0.0,9980,23730,23225,32108,19080,5
0.0,0.0,0.0,9980,23707,23248,32173,19155,5
0.0,0.0,0.0,9980,23707,23248,32108,19287,5
0.0,0.0,0.0,10014,23684,23248,32238,19420,5
0.0,0.0,0.0,10071,23730,23294,32271,19382,5
0.0,0.0,0.0,10117,23707,23316,32369,19382,5
0.0,0.0,0.0,10209,23661,23294,32369,19401,5
0.0,0.0,0.0,10232,23684,23339,32369,19382,5
0.0,0.0,0.0,10209,23661,23339,32369,19382,5
0.0,0.0,0.0,10174,23661,23339,32369,19420,5
0.0,0.0,0.0,10174,23638,23294,32303,19458,5
0.0,0.0,0.0,10152,23615,23339,32369,19420,5
0.0,0.0,0.0,10140,23615,23339,32435,19535,5
0.0,0.0,0.0,10152,23638,23431,32732,19689,5
0.0,0.0,0.0,10152,23707,23385,32666,19631,5
0.0,0.0,0.0,10140,23661,23385,32633,19573,5
0.0,0.0,0.0,10140,23638,23362,32500,19554,5
0.0,0.0,0.0,10163,23569,23339,32500,19554,5
0.0,0.0,0.0,10174,23569,23294,32369,19477,5
0.0,0.0,0.0,10163,23569,23294,32303,19477,5
0.0,0.0,0.0,10152,23615,23316,32271,19439,5
0.0,0.0,0.0,10129,23592,23225,32303,19439,5
0.0,0.0,0.0,10117,23569,23294,32271,19382,5
0.0,0.0,0.0,10106,23592,23294,32303,19458,5
0.0,0.0,0.0,10094,23569,23248,32303,19420,5
0.0,0.0,0.0,10083,23615,23294,32271,19401,5
0.0,0.0,0.0,10071,23615,23316,32238,19420,5
0.0,0.0,0.0,10049,23615,23294,32271,19420,5
0.0,0.0,0.0,10071,23522,23294,32238,19382,5
0.0,0.0,0.0,10071,23638,23248,32238,19401,5
0.0,0.0,0.0,10060,23592,23248,32271,19420,5
0.0,0.0,0.0,10071,23569,23248,32238,19420,5
0.0,0.0,0.0,10071,23592,23248,32303,19401,5
0.0,0.0,0.0,10071,23569,23294,32238,19401,5
0.0,0.0,0.0,10071,23569,23203,32173,19401,5
0.0,0.0,0.0,10071,23615,23248,32238,19458,5
0.0,0.0,0.0,10071,23569,23271,32238,19458,5
0.0,0.0,0.0,10060,23569,23225,32238,19420,5
0.0,0.0,0.0,10071,23569,23225,32140,19497,5
0.0,0.0,0.0,10071,23569,23203,32173,19516,5
0.0,0.0,0.0,10071,23569,23203,32140,19497,5
0.0,0.0,0.0,10049,23569,23203,32140,19458,5
0.0,0.0,0.0,10049,23569,23203,32173,19535,5
0.0,0.0,0.0,10049,23569,23225,32173,19458,5
0.0,0.0,0.0,10060,23569,23203,32140,19458,5
0.0,0.0,0.0,10071,23569,23203,32173,19458,5
0.0,0.0,0.0,10049,23569,23203,32108,19420,5
0.0,0.0,0.0,10060,23522,23203,32140,19439,5
0.0,0.0,0.0,10071,23522,23225,32173,19382,5
0.0,0.0,0.0,10071,23522,23203,32140,19420,5
0.0,0.0,0.0,10060,23522,23203,32140,19420,5
0.0,0.0,0.0,10037,23522,23203,32140,19458,5
0.0,0.0,0.0,10037,23569,23203,32108,19401,5
0.0,0.0,0.0,10049,23499,23180,32043,19458,5
0.0,0.0,0.0,10026,23569,23180,32108,19420,5
0.0,0.0,0.0,10037,23546,23180,32140,19401,5
0.0,0.0,0.0,10049,23522,23157,32108,19458,5
0.0,0.0,0.0,10037,23477,23157,32075,19497,5
0.0,0.0,0.0,10026,23522,23203,32108,19477,5
0.0,0.0,0.0,10026,23499,23112,32140,19420,5
0.0,0.0,0.0,10060,23522,23135,32108,19458,5
0.0,0.0,0.0,10049,23522,23180,32108,19382,5
0.0,0.0,0.0,10026,23477,23180,32108,19382,5
0.0,0.0,0.0,10026,23499,23135,32140,19344,5
0.0,0.0,0.0,10026,23499,23157,32173,19325,5
0.0,0.0,0.0,10037,23499,23157,32043,19306,5
0.0,0.0,0.0,10026,23546,23157,32108,19287,5
0.0,0.0,0.0,10026,23522,23180,32043,19325,5
0.0,0.0,0.0,10026,23499,23135,32108,19344,5
0.0,0.0,0.0,10014,23522,23157,32043,19344,5
0.0,0.0,0.0,10026,23522,23157,32043,19344,5
0.0,0.0,0.0,10026,23522,23157,32043,19306,5
0.0,0.0,0.0,10026,23522,23157,32043,19306,5
0.0,0.0,0.0,10026,23477,23112,32043,19249,5
0.0,0.0,0.0,10026,23499,23135,32108,19306,5
0.0,0.0,0.0,10026,23499,23135,31978,19249,5
0.0,0.0,0.0,10049,23522,23112,32043,19193,5
0.0,0.0,0.0,10026,23522,23157,32043,19080,5
0.0,0.0,0.0,10026,23477,23112,32010,18838,5
0.0,0.0,0.0,10026,23477,23112,32010,18783,5
0.0,0.0,0.0,10037,23477,23112,32010,18727,5
0.0,0.0,0.0,10026,23477,23112,32010,18654,5
0.0,0.0,0.0,10026,23477,23112,31978,18581,5
0.0,0.0,0.0,10026,23499,23112,31978,18435,5
0.0,0.0,0.0,10026,23477,23067,31946,17915,5
0.0,0.0,0.0,10037,23522,23112,32173,17237,5
0.0,0.0,0.0,10026,23477,23044,32173,16949,5
0.0,0.0,0.0,10037,23477,23022,32010,16882,5
0.0,0.0,0.0,10026,23522,22999,31946,16815,5
0.0,0.0,0.0,10026,23477,22977,31913,16815,5
0.0,0.0,0.0,10049,23477,23022,31881,16815,5
0.0,0.0,0.0,10037,23477,22977,31913,16815,5
0.0,0.0,0.0,10026,23477,23022,31913,16815,5
0.0,0.0,0.0,10026,23454,23022,31881,16882,5
0.0,0.0,0.0,10026,23431,22977,31849,16848,5
0.0,0.0,0.0,10037,23431,22977,31881,16882,5
0.0,0.0,0.0,10026,23477,22977,31785,16882,5
0.0,0.0,0.0,10026,23431,22977,31849,16848,5
0.0,0.0,0.0,10003,23454,22955,31785,16898,5
0.0,0.0,0.0,10014,23385,22977,31849,16882,5
0.0,0.0,0.0,10026,23431,22955,31849,16915,5
0.0,0.0,0.0,10003,23431,22932,31817,16898,5
0.0,0.0,0.0,10003,23431,22955,31785,16915,5
0.0,0.0,0.0,10026,23477,22955,31849,16898,5
0.0,0.0,0.0,9980,23477,22955,31849,16915,5
0.0,0.0,0.0,9980,23431,22932,31817,16882,5
0.0,0.0,0.0,10003,23477,22932,31785,16949,5
0.0,0.0,0.0,9980,23431,22932,31785,16949,5
0.0,0.0,0.0,10003,23431,22955,31752,16966,5
0.0,0.0,0.0,9980,23454,22932,31785,16966,5
0.0,0.0,0.0,9969,23431,22932,31720,17016,5
0.0,0.0,0.0,9980,23454,22932,31624,17050,5
0.0,0.0,0.0,9946,23431,22887,31656,17084,5
0.0,0.0,0.0,9958,23431,22932,31752,17101,5
0.0,0.0,0.0,9958,23385,22932,31720,17152,5
0.0,0.0,0.0,9958,23431,22932,31720,17118,5
0.0,0.0,0.0,9935,23431,22932,31624,17152,5
0.0,0.0,0.0,9958,23431,22932,31720,17169,5
0.0,0.0,0.0,9935,23385,22932,31688,17203,5
0.0,0.0,0.0,9946,23431,22932,31593,17220,5
0.0,0.0,0.0,9958,23431,22932,31720,17272,5
0.0,0.0,0.0,9946,23385,22932,31720,17323,5
0.0,0.0,0.0,9946,23431,22932,31593,17374,5
0.0,0.0,0.0,9935,23431,22910,31656,17357,5
0.0,0.0,0.0,9935,23385,22932,31593,17426,5
0.0,0.0,0.0,9935,23408,22932,31624,17443,5
0.0,0.0,0.0,9935,23431,22932,31593,17461,5
0.0,0.0,0.0,9935,23431,22887,31720,17565,5
0.0,0.0,0.0,9935,23431,22932,31593,17565,5
0.0,0.0,0.0,9946,23385,22865,31593,17634,5
0.0,0.0,0.0,9935,23385,22865,31593,17704,5
0.0,0.0,0.0,9935,23431,22865,31656,17669,5
0.0,0.0,0.0,9935,23339,22932,31656,17739,5
0.0,0.0,0.0,9935,23339,22887,31688,17704,5
0.0,0.0,0.0,9935,23339,22865,31593,17687,5
0.0,0.0,0.0,9935,23385,22865,31593,17704,5
0.0,0.0,0.0,9935,23385,22865,31593,17704,5
0.0,0.0,0.0,9935,23385,22843,31497,17669,5
0.0,0.0,0.0,9935,23385,22865,31593,17704,5
0.0,0.0,0.0,9935,23339,22843,31593,17634,5
0.0,0.0,0.0,9946,23294,22887,31624,17669,5
0.0,0.0,0.0,9935,23339,22865,31593,17739,5
0.0,0.0,0.0,9935,23339,22843,31593,17774,5
0.0,0.0,0.0,9935,23362,22843,31593,17774,5
0.0,0.0,0.0,9935,23362,22843,31561,17845,5
0.0,0.0,0.0,9935,23339,22865,31593,17898,5
0.0,0.0,0.0,9935,23294,22843,31561,17862,5
0.0,0.0,0.0,9935,23294,22865,31593,17933,5
0.0,0.0,0.0,9935,23294,22843,31529,17933,5
0.0,0.0,0.0,9935,23294,22843,31593,17968,5
0.0,0.0,0.0,9935,23339,22843,31593,17986,5
0.0,0.0,0.0,9935,23316,22843,31529,17968,5
0.0,0.0,0.0,9946,23339,22843,31593,18004,5
0.0,0.0,0.0,9935,23339,22820,31561,18022,5
0.0,0.0,0.0,9935,23362,22843,31529,18057,5
0.0,0.0,0.0,9912,23339,22843,31593,18004,5
0.0,0.0,0.0,9935,23294,22820,31593,18039,5
0.0,0.0,0.0,9924,23294,22843,31561,18093,5
0.0,0.0,0.0,9912,23316,22798,31529,18093,5
0.0,0.0,0.0,9935,23294,22843,31561,18075,5
0.0,0.0,0.0,9912,23316,22820,31529,18129,5
0.0,0.0,0.0,9935,23294,22843,31529,18129,5
0.0,0.0,0.0,9935,23339,22798,31497,18111,5
0.0,0.0,0.0,9935,23294,22776,31497,18164,5
0.0,0.0,0.0,9935,23271,22776,31593,18147,5
0.0,0.0,0.0,9912,23294,22776,31497,18129,5
0.0,0.0,0.0,9935,23294,22776,31497,18129,5
0.0,0.0,0.0,9935,23294,22754,31497,18200,5
0.0,0.0,0.0,9935,23294,22776,31529,18200,5
0.0,0.0,0.0,9935,23294,22820,31593,18236,5
0.0,0.0,0.0,9935,23316,22754,31561,18200,5
0.0,0.0,0.0,9935,23294,22776,31593,18254,5
0.0,0.0,0.0,9935,23294,22798,31529,18344,5
0.0,0.0,0.0,9935,23248,22798,31529,18290,5
0.0,0.0,0.0,9935,23248,22776,31529,18362,5
0.0,0.0,0.0,9935,23294,22754,31497,18380,5
0.0,0.0,0.0,9935,23294,22798,31529,18435,5
0.0,0.0,0.0,9935,23294,22754,31465,18489,5
0.0,0.0,0.0,9935,23294,22754,31497,18526,5
0.0,0.0,0.0,9946,23271,22776,31465,18654,5
0.0,0.0,0.0,9935,23248,22798,31529,18672,5
0.0,0.0,0.0,9946,23294,22754,31497,18453,5
0.0,0.0,0.0,9980,23294,22754,31593,18417,5
0.0,0.0,0.0,10003,23294,22754,31465,18380,5
0.0,0.0,0.0,9980,23248,22798,31402,18380,5
0.0,0.0,0.0,9980,23294,22754,31497,18344,5
0.0,0.0,0.0,9980,23225,22798,31434,18417,5
0.0,0.0,0.0,10003,23248,22731,31465,18417,5
0.0,0.0,0.0,10003,23271,22754,31465,18417,5
0.0,0.0,0.0,10003,23294,22754,31465,18489,5
0.0,0.0,0.0,9992,23225,22754,31497,18489,5
0.0,0.0,0.0,10003,23271,22754,31465,18526,5
0.0,0.0,0.0,10003,23248,22754,31465,18599,5
0.0,0.0,0.0,10026,23225,22754,31465,18672,5
0.0,0.0,0.0,10026,23294,22709,31434,18801,5
0.0,0.0,0.0,10026,23248,22709,31465,18801,5
0.0,0.0,0.0,10037,23248,22709,31465,18968,5
0.0,0.0,0.0,10060,23271,22709,31339,19024,5
0.0,0.0,0.0,10049,23294,22643,31339,19005,5
0.0,0.0,0.0,10049,23248,22665,31339,19118,5
0.0,0.0,0.0,10026,23225,22665,31339,19080,5
0.0,0.0,0.0,10037,23225,22576,31339,19099,5
0.0,0.0,0.0,10037,23203,22665,31339,19043,5
0.0,0.0,0.0,10026,23203,22665,31307,18912,5
0.0,0.0,0.0,10037,23180,22665,31339,18727,5
0.0,0.0,0.0,10026,23225,22665,31434,18417,5
0.0,0.0,0.0,10140,23248,22665,31624,17915,5
0.0,0.0,0.0,10174,23294,22576,31881,17426,5
0.0,0.0,0.0,10209,23294,22576,32173,16966,5
0.0,0.0,0.0,10221,23203,22576,32500,16499,5
0.0,0.0,0.0,10255,23294,22510,32533,16189,5
0.0,0.0,0.0,10290,23316,22510,32467,15916,5
0.0,0.0,0.0,10278,23271,22532,32435,15647,5
0.0,0.0,0.0,10267,23294,22576,32238,15381,5
0.0,0.0,0.0,10255,23248,22621,31720,14861,5
0.0,0.0,0.0,10232,23294,22576,30962,14607,5
0.0,0.0,0.0,10197,23294,22576,30347,14621,5
0.0,0.0,0.0,10209,23225,22576,29984,14741,5
0.0,0.0,0.0,10186,23225,22532,29746,14846,5
0.0,0.0,0.0,10209,23225,22510,29627,14876,5
0.0,0.0,0.0,10174,23203,22510,29421,14967,5
0.0,0.0,0.0,10209,23157,22488,29274,14952,5
0.0,0.0,0.0,10163,23135,22488,29245,14922,5
0.0,0.0,0.0,10174,23135,22401,29158,14876,5
0.0,0.0,0.0,10174,23112,22401,29158,14891,5
0.0,0.0,0.0,10163,23112,22401,29042,14922,5
0.0,0.0,0.0,10140,23090,22423,29071,15089,5
0.0,0.0,0.0,10163,23067,22401,29042,15135,5
0.0,0.0,0.0,10140,23044,22423,29245,15288,5
0.0,0.0,0.0,10163,23022,22423,29216,15273,5
0.0,0.0,0.0,10174,23022,22401,29158,15242,5
0.0,0.0,0.0,10255,23022,22444,29158,15227,5
0.0,0.0,0.0,10255,22955,22444,29158,15273,5
0.0,0.0,0.0,10267,22977,22444,29158,15273,5
0.0,0.0,0.0,10267,22910,22401,29158,15304,5
0.0,0.0,0.0,10325,22955,22423,29042,15304,5
0.0,0.0,0.0,10359,22977,22335,29129,15397,5
0.0,0.0,0.0,10394,22932,22270,29391,15521,5
0.0,0.0,0.0,10441,22932,22248,29627,15868,5
0.0,0.0,0.0,10453,22887,22183,29627,16093,5
0.0,0.0,0.0,10453,22887,22248,29274,16125,5
0.0,0.0,0.0,10441,22932,22488,29216,16157,5
0.0,0.0,0.0,10499,23022,22576,29333,16222,5
0.0,0.0,0.0,10511,23044,22754,29865,16499,5
0.0,0.0,0.0,10582,23135,22887,30165,16831,5
0.0,0.0,0.0,10629,23157,22977,30226,16898,5
0.0,0.0,0.0,10653,23135,22932,30105,16898,5
0.0,0.0,0.0,10641,23157,22999,30105,16915,5
0.0,0.0,0.0,10629,23112,22955,30045,16915,5
0.0,0.0,0.0,10535,23090,22932,29925,16882,5
0.0,0.0,0.0,10535,23067,22932,30015,16898,5
0.0,0.0,0.0,10499,23090,22887,29925,16882,5
0.0,0.0,0.0,10476,23067,22887,29895,16831,5
0.0,0.0,0.0,10488,23022,22865,29895,16815,5
0.0,0.0,0.0,10453,23067,22865,29865,16865,5
0.0,0.0,0.0,10441,23022,22865,29835,16882,5
0.0,0.0,0.0,10441,23044,22843,29805,16848,5
0.0,0.0,0.0,10418,23022,22843,29746,16882,5
0.0,0.0,0.0,10406,23067,22798,29775,16848,5
0.0,0.0,0.0,10394,23022,22754,29775,16882,5
0.0,0.0,0.0,10394,22977,22776,29775,16898,5
0.0,0.0,0.0,10406,22977,22754,29775,16949,5
0.0,0.0,0.0,10371,22977,22754,29746,16915,5
0.0,0.0,0.0,10394,22977,22754,29805,16949,5
0.0,0.0,0.0,10394,23022,22754,29746,16915,5
0.0,0.0,0.0,10371,22977,22687,29775,16865,5
0.0,0.0,0.0,10371,22955,22709,29775,16848,5
0.0,0.0,0.0,10348,22955,22687,29657,16848,5
0.0,0.0,0.0,10348,22932,22665,29746,16848,5
0.0,0.0,0.0,10348,22955,22665,29716,16882,5
0.0,0.0,0.0,10348,22955,22665,29746,16882,5
0.0,0.0,0.0,10336,22932,22687,29746,16882,5
0.0,0.0,0.0,10348,22932,22709,29746,16882,5
0.0,0.0,0.0,10325,22932,22665,29746,16831,5
0.0,0.0,0.0,10348,22887,22665,29746,16882,5
0.0,0.0,0.0,10348,22887,22599,29686,16882,5
0.0,0.0,0.0,10301,22887,22665,29716,16831,5
0.0,0.0,0.0,10301,22932,22665,29686,16815,5
0.0,0.0,0.0,10313,22932,22621,29716,16831,5
0.0,0.0,0.0,10325,22887,22621,29746,16848,5
0.0,0.0,0.0,10301,22887,22621,29657,16815,5
0.0,0.0,0.0,10359,22955,22599,29805,16882,5
0.0,0.0,0.0,10348,22932,22576,30015,16882,5
0.0,0.0,0.0,10348,22932,22510,30286,16698,5
0.0,0.0,0.0,10336,22932,22532,30530,16516,5
0.0,0.0,0.0,10371,22887,22576,30653,16352,5
0.0,0.0,0.0,10371,22932,22576,30776,16222,5
0.0,0.0,0.0,10371,22865,22576,30776,16222,5
0.0,0.0,0.0,10348,22865,22532,30715,16222,5
0.0,0.0,0.0,10348,22887,22576,30715,16189,5
0.0,0.0,0.0,10359,22932,22554,30653,16206,5
0.0,0.0,0.0,10418,22887,22599,30653,16189,5
0.0,0.0,0.0,10441,22932,22576,30653,16222,5
0.0,0.0,0.0,10464,22887,22532,30591,16222,5
0.0,0.0,0.0,10594,22887,22576,30530,16222,5
0.0,0.0,0.0,10771,22955,22576,30622,16222,5
0.0,0.0,0.0,10879,22977,22576,30591,16189,5
0.0,0.0,0.0,10963,22977,22576,30591,16238,5
0.0,0.0,0.0,11084,22977,22599,30530,16238,5
0.0,0.0,0.0,11157,23022,22665,30561,16222,5
0.0,0.0,0.0,11379,23112,22621,30591,16303,5
0.0,0.0,0.0,11728,23248,22754,30715,16352,5
0.0,0.0,0.0,12150,23477,22955,30776,16303,5
0.0,0.0,0.0,12228,23661,23022,30653,16254,5
0.0,0.0,0.0,12189,23615,23022,30653,16254,5
0.0,0.0,0.0,12228,23592,23022,30530,16238,5
0.0,0.0,0.0,12267,23592,23044,30469,16206,5
0.0,0.0,0.0,12215,23522,22955,30469,16222,5
0.0,0.0,0.0,12189,23477,22955,30377,16222,5
0.0,0.0,0.0,12176,23499,22932,30347,16222,5
0.0,0.0,0.0,12189,23499,22910,30317,16222,5
0.0,0.0,0.0,12124,23431,22887,30256,16173,5
0.0,0.0,0.0,12112,23477,22865,30226,16206,5
0.0,0.0,0.0,12112,23477,22887,30226,16173,5
0.0,0.0,0.0,12112,23522,22932,30286,16222,5
0.0,0.0,0.0,12124,23569,22887,30256,16222,5
0.0,0.0,0.0,12202,23684,22999,30377,16254,5
0.0,0.0,0.0,12280,23754,23112,30347,16222,5
0.0,0.0,0.0,12320,23847,23022,30256,16287,5
0.0,0.0,0.0,12267,23777,23022,30195,16319,5
0.0,0.0,0.0,12241,23661,22955,30165,16287,5
0.0,0.0,0.0,12189,23569,22999,30075,16238,5
0.0,0.0,0.0,12215,23661,22977,30105,16157,5
0.0,0.0,0.0,12202,23661,23044,30286,16060,5
0.0,0.0,0.0,12215,23684,22999,30226,16060,5
0.0,0.0,0.0,12228,23661,23044,30165,16093,5
0.0,0.0,0.0,12215,23661,22999,30165,16093,5
0.0,0.0,0.0,12176,23569,23022,30135,16093,5
0.0,0.0,0.0,12163,23661,23022,30105,16093,5
0.0,0.0,0.0,12176,23615,22999,30075,16060,5
0.0,0.0,0.0,12163,23638,22977,30165,16093,5
0.0,0.0,0.0,12189,23638,22999,30045,16060,5
0.0,0.0,0.0,12163,23592,22955,30045,16060,5
0.0,0.0,0.0,12124,23661,23022,30045,16093,5
0.0,0.0,0.0,12112,23615,23022,30045,16189,5
0.0,0.0,0.0,12086,23569,22999,30015,16222,5
0.0,0.0,0.0,12073,23569,22999,29925,16287,5
0.0,0.0,0.0,12086,23569,23022,29925,16254,5
0.0,0.0,0.0,12060,23569,23067,29895,16287,5
0.0,0.0,0.0,12060,23522,23022,29865,16287,5
0.0,0.0,0.0,12047,23569,23022,29805,16254,5
0.0,0.0,0.0,12060,23522,23022,29895,16238,5
0.0,0.0,0.0,12009,23522,23044,29835,16222,5
0.0,0.0,0.0,12034,23615,23044,29865,16287,5
0.0,0.0,0.0,12060,23707,23112,30015,16303,5
0.0,0.0,0.0,12060,23707,23135,29955,16303,5
0.0,0.0,0.0,12021,23661,23135,29895,16352,5
0.0,0.0,0.0,12034,23661,23112,29865,16287,5
0.0,0.0,0.0,12009,23569,23044,29805,16287,5
0.0,0.0,0.0,11983,23592,23112,29865,16319,5
0.0,0.0,0.0,11983,23592,23044,29627,16648,5
0.0,0.0,0.0,11983,23546,23022,29450,16882,5
0.0,0.0,0.0,11983,23592,23022,29362,16898,5
0.0,0.0,0.0,12009,23569,23022,29362,16882,5
0.0,0.0,0.0,11983,23569,22955,29333,16781,5
0.0,0.0,0.0,11983,23522,23022,29245,16815,5
0.0,0.0,0.0,12009,23499,22932,29304,16781,5
0.0,0.0,0.0,12009,23546,22977,29274,16815,5
0.0,0.0,0.0,11983,23454,22932,29304,16748,5
0.0,0.0,0.0,11970,23477,22977,29274,16748,5
0.0,0.0,0.0,11970,23477,22932,29274,16781,5
0.0,0.0,0.0,11957,23431,22932,29274,16765,5
0.0,0.0,0.0,11932,23431,22932,29216,16715,5
0.0,0.0,0.0,11906,23477,22932,29274,16681,5
0.0,0.0,0.0,11932,23385,22932,29304,16698,5
0.0,0.0,0.0,11932,23431,22932,29274,16698,5
0.0,0.0,0.0,11906,23385,22910,29274,16698,5
0.0,0.0,0.0,11881,23385,22887,29274,16681,5
0.0,0.0,0.0,11906,23385,22932,29274,16681,5
0.0,0.0,0.0,11868,23431,22910,29304,16681,5
0.0,0.0,0.0,11893,23385,22910,29245,16681,5
0.0,0.0,0.0,11868,23294,22887,29274,16748,5
0.0,0.0,0.0,11881,23431,22932,29274,16748,5
0.0,0.0,0.0,11881,23431,22887,29187,16748,5
0.0,0.0,0.0,11868,23339,22932,29216,16615,5
0.0,0.0,0.0,11881,23362,22887,29362,16450,5
0.0,0.0,0.0,11868,23339,22887,29333,16368,5
0.0,0.0,0.0,11855,23339,22887,29450,16352,5
0.0,0.0,0.0,11855,23316,22865,29568,16254,5
0.0,0.0,0.0,11855,23294,22887,29627,16254,5
0.0,0.0,0.0,11855,23294,22887,29835,16189,5
0.0,0.0,0.0,11906,23294,22843,29865,16093,5
0.0,0.0,0.0,11855,23294,22843,30015,15980,5
0.0,0.0,0.0,11855,23316,22865,29925,15964,5
0.0,0.0,0.0,11855,23316,22843,29925,15964,5
0.0,0.0,0.0,11855,23316,22843,29984,15932,5
0.0,0.0,0.0,11868,23339,22887,29925,15900,5
0.0,0.0,0.0,11906,23385,22865,29895,15916,5
0.0,0.0,0.0,11881,23385,22820,29895,15964,5
0.0,0.0,0.0,11855,23339,22865,29895,16012,5
0.0,0.0,0.0,11855,23362,22887,29865,16028,5
0.0,0.0,0.0,11868,23339,22865,29835,16093,5
0.0,0.0,0.0,11855,23316,22820,29805,16093,5
0.0,0.0,0.0,11868,23316,22843,29746,16060,5
0.0,0.0,0.0,11855,23316,22820,29746,16093,5
0.0,0.0,0.0,11830,23316,22843,29746,16125,5
0.0,0.0,0.0,11868,23294,22798,29657,16093,5
0.0,0.0,0.0,11830,23294,22843,29716,16109,5
0.0,0.0,0.0,11804,23271,22798,29686,16125,5
0.0,0.0,0.0,11855,23294,22798,29627,16157,5
0.0,0.0,0.0,11855,23248,22798,29686,16157,5
0.0,0.0,0.0,11804,23294,22754,29657,16189,5
0.0,0.0,0.0,11804,23225,22798,29657,16206,5
0.0,0.0,0.0,11830,23248,22820,29627,16254,5
0.0,0.0,0.0,11817,23248,22754,29627,16189,5
0.0,0.0,0.0,11804,23225,22754,29568,16189,5
0.0,0.0,0.0,11817,23248,22754,29538,16254,5
0.0,0.0,0.0,11804,23225,22754,29627,16222,5
0.0,0.0,0.0,11792,23203,22798,29568,16238,5
0.0,0.0,0.0,11804,23225,22798,29568,16222,5
0.0,0.0,0.0,11804,23225,22798,29568,16222,5
0.0,0.0,0.0,11804,23157,22731,29509,16287,5
0.0,0.0,0.0,11804,23203,22776,29538,16238,5
0.0,0.0,0.0,11804,23203,22776,29509,16238,5
0.0,0.0,0.0,11766,23157,22776,29568,16287,5
0.0,0.0,0.0,11779,23203,22754,29479,16222,5
0.0,0.0,0.0,11779,23180,22754,29509,16222,5
0.0,0.0,0.0,11766,23157,22776,29509,16222,5
0.0,0.0,0.0,11766,23112,22754,29450,16189,5
0.0,0.0,0.0,11792,23112,22754,29509,16222,5
0.0,0.0,0.0,11779,23157,22754,29509,16189,5
0.0,0.0,0.0,11779,23112,22776,29450,16189,5
0.0,0.0,0.0,11779,23112,22798,29509,16238,5
0.0,0.0,0.0,11766,23157,22709,29509,16222,5
0.0,0.0,0.0,11716,23112,22687,29657,16287,5
0.0,0.0,0.0,11716,23112,22709,29657,16254,5
0.0,0.0,0.0,11754,23112,22709,29716,16287,5
0.0,0.0,0.0,11754,23157,22687,29657,16222,5
0.0,0.0,0.0,11754,23157,22687,29597,16189,5
0.0,0.0,0.0,11716,23112,22687,29657,16125,5
0.0,0.0,0.0,11716,23090,22687,29746,15980,5
0.0,0.0,0.0,11703,23067,22731,30015,15900,5
0.0,0.0,0.0,11754,23112,22621,30165,15916,5
0.0,0.0,0.0,11754,23112,22621,30377,15852,5
0.0,0.0,0.0,11766,23067,22599,30530,15964,5
0.0,0.0,0.0,11754,23022,22576,30469,16157,5
0.0,0.0,0.0,11754,22999,22576,30347,16060,5
0.0,0.0,0.0,11754,22999,22576,30377,16028,5
0.0,0.0,0.0,11754,22887,22576,30347,15996,5
0.0,0.0,0.0,11728,22955,22510,30256,15868,5
0.0,0.0,0.0,11716,22910,22532,30256,15789,5
0.0,0.0,0.0,11678,22887,22510,30226,15773,5
0.0,0.0,0.0,11703,22843,22510,30256,15710,5
0.0,0.0,0.0,11653,22865,22532,30317,15710,5
0.0,0.0,0.0,11653,22865,22510,30165,15647,5
0.0,0.0,0.0,11665,22820,22532,30165,15678,5
0.0,0.0,0.0,11628,22843,22488,30165,15615,5
0.0,0.0,0.0,11628,22843,22510,30105,15600,5
0.0,0.0,0.0,11603,22843,22532,30165,15600,5
0.0,0.0,0.0,11653,22843,22488,30105,15615,5
0.0,0.0,0.0,11615,22843,22488,30165,15615,5
0.0,0.0,0.0,11628,22820,22488,30105,15647,5
0.0,0.0,0.0,11653,22865,22488,30105,15647,5
0.0,0.0,0.0,11615,22887,22488,30105,15647,5
0.0,0.0,0.0,11615,22910,22488,30015,15663,5
0.0,0.0,0.0,11653,22887,22488,30105,15694,5
0.0,0.0,0.0,11615,22887,22576,30045,15678,5
0.0,0.0,0.0,11603,22865,22488,30075,15710,5
0.0,0.0,0.0,11603,22887,22554,30015,15773,5
0.0,0.0,0.0,11628,22910,22576,30045,15773,5
0.0,0.0,0.0,11615,22865,22576,30045,15773,5
0.0,0.0,0.0,11578,22843,22532,29984,15837,5
0.0,0.0,0.0,11615,22910,22488,29955,15805,5
0.0,0.0,0.0,11628,22843,22510,29984,15805,5
0.0,0.0,0.0,11603,22887,22488,29955,15837,5
0.0,0.0,0.0,11603,22887,22510,29895,15852,5
0.0,0.0,0.0,11603,22798,22510,29895,15900,5
0.0,0.0,0.0,11590,22776,22532,29865,15932,5
0.0,0.0,0.0,11603,22843,22576,29895,15964,5
0.0,0.0,0.0,11590,22798,22510,29865,15964,5
0.0,0.0,0.0,11578,22820,22488,29865,15964,5
0.0,0.0,0.0,11578,22843,22510,29835,15932,5
0.0,0.0,0.0,11603,22843,22532,29895,15868,5
0.0,0.0,0.0,11578,22843,22488,29865,15868,5
0.0,0.0,0.0,11553,22865,22488,29805,15980,5
0.0,0.0,0.0,11565,22865,22510,29895,15964,5
0.0,0.0,0.0,11578,22843,22488,29984,15821,5
0.0,0.0,0.0,11553,22798,22444,29925,15821,5
0.0,0.0,0.0,11578,22798,22488,29955,15773,5
0.0,0.0,0.0,11565,22798,22444,29925,15757,5
0.0,0.0,0.0,11565,22843,22488,29925,15741,5
0.0,0.0,0.0,11603,22820,22488,29925,15789,5
0.0,0.0,0.0,11553,22798,22488,29925,15821,5
0.0,0.0,0.0,11578,22754,22488,29895,15821,5
0.0,0.0,0.0,11578,22843,22488,29865,15868,5
0.0,0.0,0.0,11553,22798,22488,29865,15837,5
0.0,0.0,0.0,11553,22798,22466,29805,15837,5
0.0,0.0,0.0,11565,22798,22466,29865,15837,5
0.0,0.0,0.0,11565,22776,22488,29895,15852,5
0.0,0.0,0.0,11565,22798,22488,29865,15837,5
0.0,0.0,0.0,11553,22798,22466,29805,15837,5
0.0,0.0,0.0,11565,22798,22466,29865,15837,5
0.0,0.0,0.0,11528,22754,22423,29775,15852,5
0.0,0.0,0.0,11553,22798,22488,29775,15852,5
0.0,0.0,0.0,11553,22798,22466,29746,15868,5
0.0,0.0,0.0,11528,22754,22488,29805,15837,5
0.0,0.0,0.0,11553,22754,22488,29775,15789,5
0.0,0.0,0.0,11553,22798,22488,29775,15805,5
0.0,0.0,0.0,11528,22798,22488,29775,15789,5
0.0,0.0,0.0,11553,22776,22444,29805,15773,5
0.0,0.0,0.0,11528,22754,22444,29775,15757,5
0.0,0.0,0.0,11565,22754,22444,29746,15726,5
0.0,0.0,0.0,11553,22776,22444,29805,15741,5
0.0,0.0,0.0,11565,22754,22444,29805,15773,5
0.0,0.0,0.0,11553,22754,22444,29805,15773,5
0.0,0.0,0.0,11553,22754,22401,29805,15837,5
0.0,0.0,0.0,11528,22776,22444,29686,15821,5
0.0,0.0,0.0,11528,22754,22423,29775,15773,5
0.0,0.0,0.0,11528,22776,22423,29746,15789,5
0.0,0.0,0.0,11553,22754,22444,29746,15773,5
0.0,0.0,0.0,11528,22798,22444,29746,15789,5
0.0,0.0,0.0,11528,22754,22423,29775,15789,5
0.0,0.0,0.0,11528,22709,22444,29746,15837,5
0.0,0.0,0.0,11528,22754,22444,29746,15837,5
0.0,0.0,0.0,11528,22754,22466,29746,15852,5
0.0,0.0,0.0,11553,22754,22488,29865,15837,5
0.0,0.0,0.0,11553,22798,22423,29805,15900,5
0.0,0.0,0.0,11515,22754,22444,29775,15900,5
0.0,0.0,0.0,11528,22754,22423,29746,15964,5
0.0,0.0,0.0,11540,22754,22488,29775,15948,5
0.0,0.0,0.0,11528,22731,22401,29746,15900,5
0.0,0.0,0.0,11515,22709,22423,29775,15964,5
0.0,0.0,0.0,11528,22709,22444,29746,15964,5
0.0,0.0,0.0,11528,22754,22423,29746,15932,5
0.0,0.0,0.0,11515,22754,22401,29775,15900,5
0.0,0.0,0.0,11515,22709,22444,29805,15916,5
0.0,0.0,0.0,11528,22754,22423,29805,15932,5
0.0,0.0,0.0,11528,22776,22401,29686,15916,5
0.0,0.0,0.0,11515,22754,22466,29775,15916,5
0.0,0.0,0.0,11503,22754,22401,29686,15948,5
0.0,0.0,0.0,11528,22731,22401,29746,15900,5
0.0,0.0,0.0,11503,22709,22444,29775,15900,5
0.0,0.0,0.0,11528,22709,22423,29746,15916,5
0.0,0.0,0.0,11503,22754,22444,29746,15932,5
0.0,0.0,0.0,11528,22754,22423,29775,16012,5
0.0,0.0,0.0,11515,22754,22423,29686,16028,5
0.0,0.0,0.0,11528,22754,22488,29746,16060,5
0.0,0.0,0.0,11528,22754,22444,29746,16060,5
0.0,0.0,0.0,11503,22709,22444,29746,16060,5
0.0,0.0,0.0,11503,22754,22444,29775,16093,5
0.0,0.0,0.0,11528,22754,22444,29805,16109,5
0.0,0.0,0.0,11478,22820,22444,29805,16125,5
0.0,0.0,0.0,11528,22798,22444,29775,16157,5
0.0,0.0,0.0,11528,22820,22444,29865,16125,5
0.0,0.0,0.0,11515,22798,22488,29775,16157,5
0.0,0.0,0.0,11515,22798,22444,29746,16157,5
0.0,0.0,0.0,11515,22820,22444,29746,16222,5
0.0,0.0,0.0,11515,22820,22444,29746,16222,5
0.0,0.0,0.0,11503,22798,22466,29775,16303,5
0.0,0.0,0.0,11503,22843,22466,29716,16287,5
0.0,0.0,0.0,11503,22798,22488,29775,16303,5
0.0,0.0,0.0,11503,22776,22488,29746,16287,5
0.0,0.0,0.0,11503,22798,22466,29746,16319,5
0.0,0.0,0.0,11503,22798,22488,29775,16352,5
0.0,0.0,0.0,11528,22776,22444,29746,16319,5
0.0,0.0,0.0,11503,22843,22488,29805,16319,5
0.0,0.0,0.0,11528,22798,22488,29775,16352,5
0.0,0.0,0.0,11515,22798,22488,29716,16352,5
0.0,0.0,0.0,11515,22798,22488,29746,16385,5
0.0,0.0,0.0,11478,22798,22488,29775,16352,5
0.0,0.0,0.0,11503,22798,22488,29746,16385,5
0.0,0.0,0.0,11515,22798,22488,29716,16352,5
0.0,0.0,0.0,11503,22798,22488,29775,16352,5
0.0,0.0,0.0,11503,22798,22488,29657,16287,5
0.0,0.0,0.0,11528,22798,22488,29686,16287,5
0.0,0.0,0.0,11503,22754,22488,29746,16319,5
0.0,0.0,0.0,11515,22798,22444,29686,16303,5
0.0,0.0,0.0,11515,22754,22488,29746,16303,5
0.0,0.0,0.0,11503,22798,22488,29746,16352,5
0.0,0.0,0.0,11503,22798,22488,29686,16303,5
0.0,0.0,0.0,11428,22843,22466,29746,16352,5
0.0,0.0,0.0,11366,22843,22532,29865,16467,5
0.0,0.0,0.0,11366,22887,22510,29805,16532,5
0.0,0.0,0.0,11292,22932,22599,29865,16715,5
0.0,0.0,0.0,11219,22955,22621,29775,16798,5
0.0,0.0,0.0,11206,22932,22665,29686,16865,5
0.0,0.0,0.0,11243,23022,22643,29627,16865,5
0.0,0.0,0.0,10819,23090,22621,29657,16915,5
0.0,0.0,0.0,10831,23067,22488,29835,16898,5
0.0,0.0,0.0,10771,23135,22313,30135,16949,5
0.0,0.0,0.0,10807,23022,22335,30226,17084,5
0.0,0.0,0.0,11157,23044,22292,30226,17169,5
0.0,0.0,0.0,11553,23067,22357,30347,17374,5
0.0,0.0,0.0,11653,23112,22423,30347,17513,5
0.0,0.0,0.0,11354,23067,22401,30347,17704,5
0.0,0.0,0.0,10915,23067,22401,30286,17739,5
0.0,0.0,0.0,10700,23135,22357,30256,17845,5
0.0,0.0,0.0,10629,23112,22444,30256,17915,5
0.0,0.0,0.0,10629,23157,22401,30226,17792,5
0.0,0.0,0.0,10629,23135,22335,30226,17600,5
0.0,0.0,0.0,10629,23225,22357,30165,17340,5
0.0,0.0,0.0,10653,23225,22335,30165,17050,5
0.0,0.0,0.0,10546,23248,22313,30015,16781,5
0.0,0.0,0.0,10558,23248,22357,30015,16615,5
0.0,0.0,0.0,10831,23248,22401,30045,16615,5
0.0,0.0,0.0,11060,23294,22401,29925,16632,5
0.0,0.0,0.0,11206,23248,22444,29984,16648,5
0.0,0.0,0.0,11182,23339,22510,29865,16632,5
0.0,0.0,0.0,11109,23248,22510,29865,16715,5
0.0,0.0,0.0,11109,23294,22599,29775,16681,5
0.0,0.0,0.0,11170,23294,22621,29746,16681,5
0.0,0.0,0.0,11255,23294,22576,29746,16681,5
0.0,0.0,0.0,11255,23294,22621,29746,16748,5
0.0,0.0,0.0,11280,23316,22599,29746,16715,5
0.0,0.0,0.0,11280,23316,22576,29686,16815,5
0.0,0.0,0.0,11329,23385,22576,29686,16882,5
0.0,0.0,0.0,11304,23339,22576,29568,17704,5
0.0,0.0,0.0,11255,23316,22576,29216,18453,5
0.0,0.0,0.0,11206,23294,22532,28984,18057,5
0.0,0.0,0.0,11182,23180,22599,28812,17426,5
0.0,0.0,0.0,11157,23112,22576,28754,16999,5
0.0,0.0,0.0,11121,23067,22621,28840,16748,5
0.0,0.0,0.0,11133,23044,22599,28840,16450,5
0.0,0.0,0.0,11121,23022,22621,28927,16319,5
0.0,0.0,0.0,11084,23022,22599,28984,16222,5
0.0,0.0,0.0,11084,22932,22510,28898,16060,5
0.0,0.0,0.0,11084,22798,22488,28754,15980,5
0.0,0.0,0.0,11109,22798,22423,28812,15916,5
0.0,0.0,0.0,11084,22798,22401,29042,15900,5
0.0,0.0,0.0,11133,22798,22401,29274,15837,5
0.0,0.0,0.0,11133,22887,22488,29568,15789,5
0.0,0.0,0.0,11182,22955,22665,29925,15916,5
0.0,0.0,0.0,11219,23022,22776,30015,16028,5
0.0,0.0,0.0,11231,22977,22887,30347,16238,5
0.0,0.0,0.0,11304,23022,22977,30653,16582,5
0.0,0.0,0.0,11304,23022,22932,30900,16865,5
0.0,0.0,0.0,11354,23044,23112,31087,17600,5
0.0,0.0,0.0,11354,23022,23203,30838,18022,5
0.0,0.0,0.0,11354,22955,23157,30745,18093,5
0.0,0.0,0.0,11354,22977,23112,30653,18004,5
0.0,0.0,0.0,11304,22887,23067,30591,17774,5
0.0,0.0,0.0,11317,22865,23022,30438,17461,5
0.0,0.0,0.0,11255,22820,22932,30438,17186,5
0.0,0.0,0.0,11255,22754,22887,30530,16882,5
0.0,0.0,0.0,11243,22754,22776,30530,16748,5
0.0,0.0,0.0,11231,22709,22754,30591,16648,5
0.0,0.0,0.0,11206,22709,22754,30622,16648,5
0.0,0.0,0.0,11231,22731,22798,30591,16582,5
0.0,0.0,0.0,11231,22709,22709,30499,16615,5
0.0,0.0,0.0,11219,22687,22709,30499,16648,5
0.0,0.0,0.0,11219,22731,22709,30591,16632,5
0.0,0.0,0.0,11206,22709,22665,30530,16632,5
0.0,0.0,0.0,11206,22731,22687,30469,16632,5
0.0,0.0,0.0,11206,22709,22709,30591,16648,5
0.0,0.0,0.0,11182,22665,22665,30530,16582,5
0.0,0.0,0.0,11182,22665,22599,30591,16499,5
0.0,0.0,0.0,11170,22665,22665,30653,16516,5
0.0,0.0,0.0,11206,22687,22621,30653,16516,5
0.0,0.0,0.0,11182,22665,22665,30653,16516,5
0.0,0.0,0.0,11206,22665,22621,30591,16549,5
0.0,0.0,0.0,11182,22643,22621,30591,16549,5
0.0,0.0,0.0,11206,22665,22576,30591,16549,5
0.0,0.0,0.0,11182,22621,22599,30591,16549,5
0.0,0.0,0.0,11206,22621,22576,30530,16648,5
0.0,0.0,0.0,11182,22687,22576,30499,16748,5
0.0,0.0,0.0,11206,22621,22621,30408,16882,5
0.0,0.0,0.0,11206,22621,22576,30438,16882,5
0.0,0.0,0.0,11170,22599,22554,30408,16949,5
0.0,0.0,0.0,11182,22621,22532,30408,16898,5
0.0,0.0,0.0,11182,22599,22554,30499,17016,5
0.0,0.0,0.0,11157,22576,22576,30408,17084,5
0.0,0.0,0.0,11170,22576,22554,30347,17101,5
0.0,0.0,0.0,11170,22599,22532,30347,17050,5
0.0,0.0,0.0,11157,22576,22510,30347,17084,5
0.0,0.0,0.0,11133,22532,22444,30256,17118,5
0.0,0.0,0.0,11133,22599,22488,30256,17169,5
0.0,0.0,0.0,11109,22576,22488,30256,17186,5
0.0,0.0,0.0,11121,22599,22444,30226,17220,5
0.0,0.0,0.0,11109,22576,22466,30286,17169,5
0.0,0.0,0.0,11133,22554,22423,30226,17169,5
0.0,0.0,0.0,11084,22576,22401,30256,17152,5
0.0,0.0,0.0,11109,22532,22444,30226,17152,5
0.0,0.0,0.0,11072,22532,22423,30226,17152,5
0.0,0.0,0.0,11060,22554,22423,30226,17135,5
0.0,0.0,0.0,11060,22576,22401,30226,16983,5
0.0,0.0,0.0,11060,22532,22423,30226,16949,5
0.0,0.0,0.0,11060,22510,22444,30226,16781,5
0.0,0.0,0.0,11060,22576,22423,30377,16731,5
0.0,0.0,0.0,11060,22510,22444,30653,16549,5
0.0,0.0,0.0,11060,22599,22444,30776,16483,5
0.0,0.0,0.0,11072,22576,22488,30776,16417,5
0.0,0.0,0.0,11060,22576,22444,30838,16385,5
0.0,0.0,0.0,11060,22576,22423,30715,16287,5
0.0,0.0,0.0,11072,22599,22444,30653,16352,5
0.0,0.0,0.0,11060,22532,22401,30591,16368,5
0.0,0.0,0.0,11109,22532,22444,30530,16417,5
0.0,0.0,0.0,11133,22510,22357,30591,16499,5
0.0,0.0,0.0,11109,22466,22401,30408,16632,5
0.0,0.0,0.0,11084,22444,22335,30286,16698,5
0.0,0.0,0.0,11072,22423,22313,30226,16831,5
0.0,0.0,0.0,11109,22444,22313,30075,16865,5
0.0,0.0,0.0,11121,22401,22248,30015,16898,5
0.0,0.0,0.0,11206,22401,22183,30045,16898,5
0.0,0.0,0.0,11255,22401,22183,29984,16898,5
0.0,0.0,0.0,11329,22401,22140,29805,16898,5
0.0,0.0,0.0,11453,22423,22140,29746,16915,5
0.0,0.0,0.0,11503,22423,22140,29746,16949,5
0.0,0.0,0.0,11453,22423,22096,29627,16966,5
0.0,0.0,0.0,11453,22401,22140,29657,16983,5
0.0,0.0,0.0,11403,22357,22075,29657,17016,5
0.0,0.0,0.0,11354,22357,22053,29627,17084,5
0.0,0.0,0.0,11354,22335,22075,29716,17050,5
0.0,0.0,0.0,11341,22313,22096,29627,17067,5
0.0,0.0,0.0,11354,22313,22075,29686,17135,5
0.0,0.0,0.0,11354,22313,22053,29657,17118,5
0.0,0.0,0.0,11366,22313,22010,29627,17118,5
0.0,0.0,0.0,11354,22248,22053,29627,17169,5
0.0,0.0,0.0,11416,22313,22010,29627,17152,5
0.0,0.0,0.0,11578,22510,22118,29657,17101,5
0.0,0.0,0.0,11703,22643,22226,29686,16966,5
0.0,0.0,0.0,11804,22820,22357,29775,16898,5
0.0,0.0,0.0,11754,22865,22401,29775,16983,5
0.0,0.0,0.0,11728,22843,22444,29775,17033,5
0.0,0.0,0.0,11754,22843,22444,29746,17016,5
0.0,0.0,0.0,11804,22910,22444,29775,16999,5
0.0,0.0,0.0,11804,22932,22488,29835,17016,5
0.0,0.0,0.0,11830,22977,22532,29746,17033,5
0.0,0.0,0.0,11779,22955,22576,29805,17135,5
0.0,0.0,0.0,11754,22955,22510,29835,17220,5
0.0,0.0,0.0,11703,22932,22532,29805,17186,5
0.0,0.0,0.0,11703,22932,22510,29746,17186,5
0.0,0.0,0.0,11653,22887,22510,29746,17152,5
0.0,0.0,0.0,11628,22910,22532,29746,17220,5
0.0,0.0,0.0,11628,22955,22488,29746,17186,5
0.0,0.0,0.0,11628,22932,22576,29746,17203,5
0.0,0.0,0.0,11628,22887,22532,29775,17220,5
0.0,0.0,0.0,11603,22932,22510,29686,17237,5
0.0,0.0,0.0,11603,22910,22532,29746,17374,5
0.0,0.0,0.0,11553,22843,22532,29746,17426,5
0.0,0.0,0.0,11528,22820,22488,29746,17600,5
0.0,0.0,0.0,11528,22798,22488,29686,17600,5
0.0,0.0,0.0,11503,22754,22423,29686,17652,5
0.0,0.0,0.0,11528,22754,22444,29686,17669,5
0.0,0.0,0.0,11515,22754,22423,29716,17704,5
0.0,0.0,0.0,11515,22754,22444,29657,17634,5
0.0,0.0,0.0,11478,22709,22488,29746,17669,5
0.0,0.0,0.0,11503,22754,22423,29657,17634,5
0.0,0.0,0.0,11490,22754,22466,29657,17600,5
0.0,0.0,0.0,11503,22754,22488,29627,17565,5
0.0,0.0,0.0,11490,22754,22444,29686,17600,5
0.0,0.0,0.0,11465,22754,22466,29657,17600,5
0.0,0.0,0.0,11478,22709,22444,29627,17530,5
0.0,0.0,0.0,11478,22754,22423,29657,17547,5
0.0,0.0,0.0,11453,22709,22488,29627,17565,5
0.0,0.0,0.0,11453,22687,22444,29657,17634,5
0.0,0.0,0.0,11453,22709,22401,29657,17669,5
0.0,0.0,0.0,11453,22665,22401,29657,17792,5
0.0,0.0,0.0,11478,22665,22401,29657,17809,5
0.0,0.0,0.0,11428,22643,22379,29686,17880,5
0.0,0.0,0.0,11428,22665,22401,29746,17898,5
0.0,0.0,0.0,11453,22621,22357,29657,17951,5
0.0,0.0,0.0,11416,22621,22401,29627,17951,5
0.0,0.0,0.0,11403,22621,22401,29627,18004,5
0.0,0.0,0.0,11428,22576,22357,29657,18039,5
0.0,0.0,0.0,11416,22576,22313,29627,18022,5
0.0,0.0,0.0,11403,22532,22357,29657,18022,5
0.0,0.0,0.0,11403,22576,22357,29627,18057,5
0.0,0.0,0.0,11403,22576,22335,29568,18093,5
0.0,0.0,0.0,11403,22576,22335,29627,18129,5
0.0,0.0,0.0,11403,22576,22313,29686,18111,5
0.0,0.0,0.0,11379,22576,22313,29568,18093,5
0.0,0.0,0.0,11391,22554,22313,29627,18147,5
0.0,0.0,0.0,11379,22576,22335,29597,18129,5
0.0,0.0,0.0,11354,22488,22313,29657,18200,5
0.0,0.0,0.0,11354,22576,22335,29597,18164,5
0.0,0.0,0.0,11354,22510,22292,29597,18164,5
0.0,0.0,0.0,11354,22488,22313,29657,18200,5
0.0,0.0,0.0,11354,22510,22270,29568,18236,5
0.0,0.0,0.0,11354,22510,22270,29627,18272,5
0.0,0.0,0.0,11354,22466,22248,29597,18236,5
0.0,0.0,0.0,11379,22532,22270,29627,18236,5
0.0,0.0,0.0,11354,22488,22248,29597,18236,5
0.0,0.0,0.0,11354,22444,22248,29568,18308,5
0.0,0.0,0.0,11354,22510,22248,29568,18344,5
0.0,0.0,0.0,11354,22466,22226,29597,18326,5
0.0,0.0,0.0,11354,22466,22270,29597,18326,5
0.0,0.0,0.0,11354,22488,22248,29568,18272,5
0.0,0.0,0.0,11354,22444,22270,29509,18326,5
0.0,0.0,0.0,11354,22488,22226,29538,18272,5
0.0,0.0,0.0,11354,22444,22248,29538,18200,5
0.0,0.0,0.0,11354,22488,22248,29568,18075,5
0.0,0.0,0.0,11317,22488,22248,29597,17862,5
0.0,0.0,0.0,11354,22488,22292,29568,17845,5
0.0,0.0,0.0,11354,22488,22248,29568,17774,5
0.0,0.0,0.0,11354,22466,22226,29627,17634,5
0.0,0.0,0.0,11354,22510,22226,29657,17392,5
0.0,0.0,0.0,11317,22466,22313,29775,17203,5
0.0,0.0,0.0,11317,22488,22270,29955,16966,5
0.0,0.0,0.0,11354,22488,22335,29984,16815,5
0.0,0.0,0.0,11354,22488,22379,30165,16698,5
0.0,0.0,0.0,11329,22488,22357,30165,16565,5
0.0,0.0,0.0,11354,22444,22401,30165,16417,5
0.0,0.0,0.0,11317,22401,22401,30165,16352,5
0.0,0.0,0.0,11329,22444,22401,30165,16222,5
0.0,0.0,0.0,11354,22488,22444,30015,15964,5
0.0,0.0,0.0,11379,22466,22488,29895,15726,5
0.0,0.0,0.0,11416,22576,22510,29805,15631,5
0.0,0.0,0.0,11490,22643,22532,29657,15521,5
0.0,0.0,0.0,11578,22754,22576,29627,15490,5
0.0,0.0,0.0,11603,22932,22599,29657,15584,5
0.0,0.0,0.0,11578,23044,22665,29509,15663,5
0.0,0.0,0.0,11553,23022,22665,29509,15948,5
0.0,0.0,0.0,11553,23022,22709,29450,16157,5
0.0,0.0,0.0,11553,22977,22665,29627,16949,5
0.0,0.0,0.0,11528,22955,22687,29686,17426,5
0.0,0.0,0.0,11528,22865,22665,29686,17357,5
0.0,0.0,0.0,11503,22820,22576,29568,17169,5
0.0,0.0,0.0,11503,22776,22576,29509,16765,5
0.0,0.0,0.0,11465,22709,22532,29391,16417,5
0.0,0.0,0.0,11440,22709,22488,29509,16254,5
0.0,0.0,0.0,11465,22687,22444,29450,16189,5
0.0,0.0,0.0,11503,22665,22488,29509,16157,5
0.0,0.0,0.0,11515,22576,22488,29391,16060,5
0.0,0.0,0.0,11528,22599,22444,29391,16093,5
0.0,0.0,0.0,11515,22621,22488,29421,16076,5
0.0,0.0,0.0,11528,22687,22488,29333,16109,5
0.0,0.0,0.0,11503,22665,22444,29391,16141,5
0.0,0.0,0.0,11503,22665,22444,29391,16157,5
0.0,0.0,0.0,11453,22665,22423,29362,16141,5
0.0,0.0,0.0,11453,22621,22488,29421,16173,5
0.0,0.0,0.0,11453,22621,22444,29391,16125,5
0.0,0.0,0.0,11453,22576,22444,29391,16222,5
0.0,0.0,0.0,11440,22576,22444,29391,16222,5
0.0,0.0,0.0,11453,22554,22401,29421,16271,5
0.0,0.0,0.0,11416,22576,22444,29421,16287,5
0.0,0.0,0.0,11428,22510,22423,29421,16287,5
0.0,0.0,0.0,11403,22488,22401,29509,16401,5
0.0,0.0,0.0,11403,22510,22357,29509,16417,5
0.0,0.0,0.0,11366,22488,22357,29450,16417,5
0.0,0.0,0.0,11366,22488,22357,29450,16434,5
0.0,0.0,0.0,11379,22510,22357,29450,16450,5
0.0,0.0,0.0,11354,22488,22335,29450,16483,5
0.0,0.0,0.0,11366,22444,22335,29509,16499,5
0.0,0.0,0.0,11354,22444,22313,29509,16450,5
0.0,0.0,0.0,11354,22401,22313,29450,16499,5
0.0,0.0,0.0,11354,22401,22313,29509,16450,5
0.0,0.0,0.0,11354,22401,22313,29391,16516,5
0.0,0.0,0.0,11354,22401,22313,29509,16549,5
0.0,0.0,0.0,11354,22423,22313,29421,16549,5
0.0,0.0,0.0,11317,22401,22313,29450,16598,5
0.0,0.0,0.0,11317,22401,22270,29450,16582,5
0.0,0.0,0.0,11317,22401,22270,29450,16615,5
0.0,0.0,0.0,11317,22423,22270,29450,16565,5
0.0,0.0,0.0,11317,22379,22313,29479,16582,5
0.0,0.0,0.0,11304,22401,22270,29391,16385,5
0.0,0.0,0.0,11354,22444,22292,29391,16222,5
0.0,0.0,0.0,11354,22423,22270,29421,16173,5
0.0,0.0,0.0,11354,22401,22270,29391,16141,5
0.0,0.0,0.0,11354,22357,22292,29391,16109,5
0.0,0.0,0.0,11354,22401,22248,29391,16093,5
0.0,0.0,0.0,11354,22401,22270,29391,16157,5
0.0,0.0,0.0,11366,22357,22270,29391,16157,5
0.0,0.0,0.0,11403,22401,22226,29333,16173,5
0.0,0.0,0.0,11416,22379,22248,29304,16206,5
0.0,0.0,0.0,11478,22401,22248,29304,16287,5
0.0,0.0,0.0,11478,22488,22248,29304,16287,5
0.0,0.0,0.0,11465,22488,22313,29274,16303,5
0.0,0.0,0.0,11453,22488,22313,29391,16254,5
0.0,0.0,0.0,11453,22488,22313,29333,16254,5
0.0,0.0,0.0,11416,22554,22313,29333,16157,5
0.0,0.0,0.0,11453,22554,22335,29333,16157,5
0.0,0.0,0.0,11403,22576,22313,29421,16125,5
0.0,0.0,0.0,11317,22532,22292,29333,16157,5
0.0,0.0,0.0,11317,22466,22270,29333,16125,5
0.0,0.0,0.0,11317,22488,22270,29333,16125,5
0.0,0.0,0.0,11354,22488,22313,29362,16173,5
0.0,0.0,0.0,11379,22488,22248,29391,16157,5
0.0,0.0,0.0,11403,22510,22270,29274,16206,5
0.0,0.0,0.0,11403,22488,22248,29391,16222,5
0.0,0.0,0.0,11366,22488,22226,29391,16303,5
0.0,0.0,0.0,11317,22466,22226,29421,16434,5
0.0,0.0,0.0,11109,22444,22226,29538,16516,5
0.0,0.0,0.0,10653,22423,22226,29657,16681,5
0.0,0.0,0.0,10535,22576,22140,29775,16748,5
0.0,0.0,0.0,10535,22532,22161,29686,16815,5
0.0,0.0,0.0,10712,22510,22140,29538,16748,5
0.0,0.0,0.0,10795,22576,22161,29479,16715,5
0.0,0.0,0.0,10867,22488,22161,29450,16681,5
0.0,0.0,0.0,10867,22510,22140,29362,16698,5
0.0,0.0,0.0,10867,22532,22096,29391,16681,5
0.0,0.0,0.0,10867,22510,22140,29421,16681,5
0.0,0.0,0.0,10867,22576,22118,29391,16681,5
0.0,0.0,0.0,10927,22488,22161,29274,16582,5
0.0,0.0,0.0,10999,22510,22140,29274,16582,5
0.0,0.0,0.0,10963,22488,22140,29216,16549,5
0.0,0.0,0.0,10963,22488,22161,29274,16549,5
0.0,0.0,0.0,10963,22488,22140,29274,16549,5
0.0,0.0,0.0,10915,22401,22140,29274,16615,5
0.0,0.0,0.0,10915,22444,22140,29216,16615,5
0.0,0.0,0.0,10891,22444,22161,29274,16681,5
0.0,0.0,0.0,10879,22401,22096,29274,16698,5
0.0,0.0,0.0,10891,22401,22140,29274,16781,5
0.0,0.0,0.0,10867,22401,22140,29274,16781,5
0.0,0.0,0.0,10867,22444,22096,29274,16781,5
0.0,0.0,0.0,10843,22401,22075,29158,16765,5
0.0,0.0,0.0,10831,22357,22140,29274,16765,5
0.0,0.0,0.0,10843,22357,22140,29274,16715,5
0.0,0.0,0.0,10831,22401,22140,29216,16681,5
0.0,0.0,0.0,10843,22401,22096,29245,16681,5
0.0,0.0,0.0,10819,22401,22075,29245,16648,5
0.0,0.0,0.0,10819,22379,22075,29216,16681,5
0.0,0.0,0.0,10771,22357,22096,29274,16681,5
0.0,0.0,0.0,10771,22357,22053,29216,16681,5
0.0,0.0,0.0,10748,22335,22096,29158,16748,5
0.0,0.0,0.0,10771,22313,22183,29274,16681,5
0.0,0.0,0.0,10748,22357,22096,29216,16765,5
0.0,0.0,0.0,10771,22379,22075,29274,16815,5
0.0,0.0,0.0,10771,22335,22075,29216,17220,5
0.0,0.0,0.0,11121,22379,22183,29216,17289,5
0.0,0.0,0.0,11206,22423,22226,29158,17186,5
0.0,0.0,0.0,11255,22466,22270,29216,17084,5
0.0,0.0,0.0,11391,22665,22357,29391,17152,5
0.0,0.0,0.0,11653,22932,22488,29568,17289,5
0.0,0.0,0.0,11754,23067,22621,29538,17565,5
0.0,0.0,0.0,11640,22999,22510,29538,18022,5
0.0,0.0,0.0,11553,22798,22488,29450,18022,5
0.0,0.0,0.0,11465,22709,22466,29450,18075,5
0.0,0.0,0.0,11379,22621,22357,29421,18129,5
0.0,0.0,0.0,10867,22576,22335,29450,18272,5
0.0,0.0,0.0,10819,22554,22248,29391,18308,5
0.0,0.0,0.0,10819,22510,22226,29421,18290,5
0.0,0.0,0.0,10771,22510,22226,29333,18308,5
0.0,0.0,0.0,10819,22488,22183,29391,18362,5
0.0,0.0,0.0,10783,22488,22140,29333,18344,5
0.0,0.0,0.0,10795,22488,22183,29391,18308,5
0.0,0.0,0.0,10771,22357,22140,29333,18326,5
0.0,0.0,0.0,10819,22423,22161,29333,18344,5
0.0,0.0,0.0,10831,22444,22183,29362,18362,5
0.0,0.0,0.0,10867,22401,22140,29333,18362,5
0.0,0.0,0.0,10867,22401,22161,29333,18290,5
0.0,0.0,0.0,10867,22401,22161,29362,18272,5
0.0,0.0,0.0,10891,22401,22140,29274,18236,5
0.0,0.0,0.0,10915,22401,22140,29274,18147,5
0.0,0.0,0.0,10891,22335,22161,29274,18093,5
0.0,0.0,0.0,10903,22357,22140,29245,18129,5
0.0,0.0,0.0,10867,22379,22118,29245,18039,5
0.0,0.0,0.0,10867,22401,22140,29274,18075,5
0.0,0.0,0.0,10867,22357,22140,29274,18057,5
0.0,0.0,0.0,10867,22313,22140,29274,18129,5
0.0,0.0,0.0,10867,22357,22140,29216,18129,5
0.0,0.0,0.0,10867,22335,22161,29216,18111,5
0.0,0.0,0.0,10855,22379,22118,29187,18093,5
0.0,0.0,0.0,10867,22357,22140,29274,18129,5
0.0,0.0,0.0,10867,22357,22096,29216,18129,5
0.0,0.0,0.0,10867,22335,22096,29216,18129,5
0.0,0.0,0.0,10843,22335,22096,29274,18129,5
0.0,0.0,0.0,10831,22357,22075,29187,18164,5
0.0,0.0,0.0,10843,22313,22096,29245,18200,5
0.0,0.0,0.0,10843,22313,22096,29216,18200,5
0.0,0.0,0.0,10843,22313,22096,29216,18200,5
0.0,0.0,0.0,10819,22335,22053,29216,18236,5
0.0,0.0,0.0,10831,22270,22075,29216,18272,5
0.0,0.0,0.0,10831,22357,22053,29158,18272,5
0.0,0.0,0.0,10831,22357,22075,29158,18290,5
0.0,0.0,0.0,10831,22313,22096,29216,18308,5
0.0,0.0,0.0,10819,22313,22053,29216,18272,5
0.0,0.0,0.0,10795,22292,22053,29216,18236,5
0.0,0.0,0.0,10819,22313,22075,29187,18129,5
0.0,0.0,0.0,10819,22270,22053,29304,17951,5
0.0,0.0,0.0,10819,22335,22053,29274,17774,5
0.0,0.0,0.0,10819,22270,22075,29274,17774,5
0.0,0.0,0.0,10783,22357,22053,29274,17774,5
0.0,0.0,0.0,10831,22313,22053,29216,17704,5
0.0,0.0,0.0,10819,22335,22096,29158,17739,5
0.0,0.0,0.0,10807,22313,22053,29274,17704,5
0.0,0.0,0.0,10795,22292,22053,29216,17704,5
0.0,0.0,0.0,10819,22313,22053,29216,17704,5
0.0,0.0,0.0,10819,22313,22053,29216,17704,5
0.0,0.0,0.0,10795,22270,22010,29158,17739,5
0.0,0.0,0.0,10807,22335,22010,29216,17704,5
0.0,0.0,0.0,10795,22313,22053,29216,17739,5
0.0,0.0,0.0,10771,22313,22053,29216,17669,5
0.0,0.0,0.0,10771,22292,22075,29245,17652,5
0.0,0.0,0.0,10831,22292,22053,29274,17704,5
0.0,0.0,0.0,10879,22248,22053,29274,17704,5
0.0,0.0,0.0,10927,22270,22053,29245,17669,5
0.0,0.0,0.0,10915,22313,22053,29216,17704,5
0.0,0.0,0.0,10629,22313,22010,29333,17774,5
0.0,0.0,0.0,10348,22401,22010,29509,17774,5
0.0,0.0,0.0,10313,22423,22010,29746,17845,5
0.0,0.0,0.0,10336,22357,22010,29686,17862,5
0.0,0.0,0.0,10394,22357,22010,29627,17898,5
0.0,0.0,0.0,10488,22401,21903,29984,17845,5
0.0,0.0,0.0,10535,22401,22010,29538,17880,5
0.0,0.0,0.0,10464,22444,21924,29984,17880,5
0.0,0.0,0.0,10582,22444,21967,30105,17986,5
0.0,0.0,0.0,10641,22488,22010,29865,17986,5
0.0,0.0,0.0,10653,22357,22053,30045,17933,5
0.0,0.0,0.0,10676,22357,22053,29865,17915,5
0.0,0.0,0.0,10700,22313,22053,29895,17986,5
0.0,0.0,0.0,10700,22313,22053,29805,18039,5
0.0,0.0,0.0,10759,22313,22140,29657,18057,5
0.0,0.0,0.0,10843,22335,22118,29627,18093,5
0.0,0.0,0.0,10915,22313,22118,29597,18075,5
0.0,0.0,0.0,10975,22335,22096,29568,18057,5
0.0,0.0,0.0,11012,22313,22096,29509,18057,5
0.0,0.0,0.0,11012,22379,22118,29479,18057,5
0.0,0.0,0.0,11084,22444,22161,29450,18022,5
0.0,0.0,0.0,11109,22554,22226,29421,17915,5
0.0,0.0,0.0,11072,22510,22183,29450,17845,5
0.0,0.0,0.0,11072,22576,22183,29362,17809,5
0.0,0.0,0.0,11109,22554,22183,29391,17898,5
0.0,0.0,0.0,11109,22576,22248,29391,17845,5
0.0,0.0,0.0,11084,22576,22205,29333,17845,5
0.0,0.0,0.0,11060,22665,22226,29391,17739,5
0.0,0.0,0.0,11072,22754,22270,29274,17757,5
0.0,0.0,0.0,11206,22843,22248,29216,17722,5
0.0,0.0,0.0,11268,22932,22248,29245,17757,5
0.0,0.0,0.0,11255,22843,22270,29274,17809,5
0.0,0.0,0.0,11255,22843,22270,29216,17792,5
0.0,0.0,0.0,11206,22798,22270,29274,17880,5
0.0,0.0,0.0,11194,22754,22205,29274,17986,5
0.0,0.0,0.0,11182,22754,22248,29158,18057,5
0.0,0.0,0.0,11182,22731,22226,29158,18093,5
0.0,0.0,0.0,11182,22754,22226,29071,18129,5
0.0,0.0,0.0,11206,22687,22161,29071,18111,5
0.0,0.0,0.0,11206,22665,22140,28984,18129,5
0.0,0.0,0.0,11280,22621,22140,28984,18039,5
0.0,0.0,0.0,11304,22709,22140,28927,18004,5
0.0,0.0,0.0,11304,22731,22096,28955,18004,5
0.0,0.0,0.0,11268,22665,22096,28984,18022,5
0.0,0.0,0.0,11255,22709,22096,28927,18004,5
0.0,0.0,0.0,11231,22643,22053,28927,18057,5
0.0,0.0,0.0,11194,22643,22075,28955,18057,5
0.0,0.0,0.0,11182,22599,22053,28898,18075,5
0.0,0.0,0.0,11182,22621,22053,28955,18057,5
0.0,0.0,0.0,11157,22599,22053,28984,18057,5
0.0,0.0,0.0,11145,22599,22053,28927,18057,5
0.0,0.0,0.0,11133,22554,22053,28955,17986,5
0.0,0.0,0.0,11121,22576,22053,28984,18004,5
0.0,0.0,0.0,11133,22532,22053,28927,18022,5
0.0,0.0,0.0,11109,22532,22010,28927,18022,5
0.0,0.0,0.0,11084,22576,22010,28927,18022,5
0.0,0.0,0.0,11072,22576,22053,28927,18004,5
0.0,0.0,0.0,11024,22510,22053,28927,17986,5
0.0,0.0,0.0,10987,22576,22053,28927,17915,5
0.0,0.0,0.0,10927,22532,22032,28869,17862,5
0.0,0.0,0.0,10927,22576,22010,28927,17862,5
0.0,0.0,0.0,10891,22576,22032,28869,17845,5
0.0,0.0,0.0,10867,22576,21924,29333,17845,5
0.0,0.0,0.0,10795,22554,21967,29333,17845,5
0.0,0.0,0.0,10771,22510,22010,28927,17880,5
0.0,0.0,0.0,10771,22510,22010,28927,17933,5
0.0,0.0,0.0,10724,22488,22010,28927,17951,5
0.0,0.0,0.0,10724,22532,22010,28927,18200,5
0.0,0.0,0.0,10724,22510,22010,28927,18254,5
0.0,0.0,0.0,10724,22510,22010,28869,18236,5
