GyroX,GyroY,GyroZ,Thumb,Index,Middle,Ring,Pinky,Gesture
0.0,0.0,0.0,18709,11060,24775,41132,34874,2
0.0,0.0,0.0,18672,10975,24654,40955,34624,2
0.0,0.0,0.0,18709,11012,24702,41221,34624,2
0.0,0.0,0.0,18544,10939,24946,41577,34518,2
0.0,0.0,0.0,18326,10915,24946,41757,34553,2
0.0,0.0,0.0,18236,10891,24970,41622,34341,2
0.0,0.0,0.0,18200,10879,25192,42029,34482,2
0.0,0.0,0.0,18164,10879,25291,41757,34412,2
0.0,0.0,0.0,18129,10915,25291,41938,34553,2
0.0,0.0,0.0,18147,10891,25316,42029,34696,2
0.0,0.0,0.0,18129,10891,25291,41757,34518,2
0.0,0.0,0.0,18129,10927,25192,41622,34447,2
0.0,0.0,0.0,18075,10915,25291,41848,34341,2
0.0,0.0,0.0,18111,10939,25390,42212,34624,2
0.0,0.0,0.0,18129,10939,25440,42580,34731,2
0.0,0.0,0.0,18129,10939,25465,42488,34946,2
0.0,0.0,0.0,18129,10939,25490,42580,34982,2
0.0,0.0,0.0,18147,10939,25540,43046,35565,2
0.0,0.0,0.0,18164,10927,25490,42766,35127,2
0.0,0.0,0.0,18200,10963,25465,42766,35309,2
0.0,0.0,0.0,18111,10987,25490,42766,35345,2
0.0,0.0,0.0,18164,10867,25691,43235,35676,2
0.0,0.0,0.0,18236,10700,25894,43711,36310,2
0.0,0.0,0.0,18218,10653,25920,43472,35861,2
0.0,0.0,0.0,18236,10594,25920,43472,35861,2
0.0,0.0,0.0,18254,10605,25894,43282,36010,2
0.0,0.0,0.0,18254,10582,25945,43472,36010,2
0.0,0.0,0.0,18236,10511,25945,43329,36010,2
0.0,0.0,0.0,18182,10499,25996,43046,35749,2
0.0,0.0,0.0,18200,10488,25945,43046,35935,2
0.0,0.0,0.0,18200,10488,25945,42766,35861,2
0.0,0.0,0.0,18200,10488,25945,42719,35861,2
0.0,0.0,0.0,18200,10535,25894,42673,36010,2
0.0,0.0,0.0,18200,10499,25818,42673,35861,2
0.0,0.0,0.0,18236,10535,25793,42580,35861,2
0.0,0.0,0.0,18236,10546,25793,42580,35898,2
0.0,0.0,0.0,18164,10558,25767,42580,36010,2
0.0,0.0,0.0,18200,10570,25717,42580,36160,2
0.0,0.0,0.0,18236,10546,25691,42673,36010,2
0.0,0.0,0.0,18200,10523,25742,42626,36235,2
0.0,0.0,0.0,18200,10535,25691,42673,36010,2
0.0,0.0,0.0,18254,10535,25666,42673,36010,2
0.0,0.0,0.0,18147,10535,25641,42534,36085,2
0.0,0.0,0.0,18236,10535,25641,42673,36047,2
0.0,0.0,0.0,18236,10535,25641,42766,35898,2
0.0,0.0,0.0,18236,10523,25742,42719,36047,2
0.0,0.0,0.0,18272,10511,25920,42859,36235,2
0.0,0.0,0.0,18272,10535,25843,42906,36235,2
0.0,0.0,0.0,18326,10499,25843,42719,36160,2
0.0,0.0,0.0,18290,10488,25843,42766,36235,2
0.0,0.0,0.0,18308,10511,25894,42766,36160,2
0.0,0.0,0.0,18326,10511,25894,42766,36235,2
0.0,0.0,0.0,18308,10511,25843,42580,36085,2
0.0,0.0,0.0,18308,10511,25996,42673,36010,2
0.0,0.0,0.0,18326,10499,25945,42534,36010,2
0.0,0.0,0.0,18344,10511,25920,42349,35935,2
0.0,0.0,0.0,18326,10499,25945,42395,35972,2
0.0,0.0,0.0,18326,10511,25945,42304,36010,2
0.0,0.0,0.0,18344,10499,25894,42395,35861,2
0.0,0.0,0.0,18290,10523,25894,42304,35861,2
0.0,0.0,0.0,18290,10535,25920,42395,35787,2
0.0,0.0,0.0,18290,10535,25945,42304,35787,2
0.0,0.0,0.0,18308,10511,25996,42395,35787,2
0.0,0.0,0.0,18308,10511,25920,42258,35861,2
0.0,0.0,0.0,18272,10499,25945,42120,35861,2
0.0,0.0,0.0,18272,10499,25945,42212,35787,2
0.0,0.0,0.0,18326,10499,25971,42304,35787,2
0.0,0.0,0.0,18272,10535,25945,42120,35824,2
0.0,0.0,0.0,18272,10535,25920,42166,35639,2
0.0,0.0,0.0,18236,10535,25945,42212,35712,2
0.0,0.0,0.0,18272,10535,25894,42166,35712,2
0.0,0.0,0.0,18236,10546,25894,42120,35712,2
0.0,0.0,0.0,18236,10546,25869,42120,35824,2
0.0,0.0,0.0,18290,10546,25920,42258,35787,2
0.0,0.0,0.0,18344,10535,25920,42258,35935,2
0.0,0.0,0.0,18308,10546,25818,42166,36047,2
0.0,0.0,0.0,18290,10546,25793,42258,36010,2
0.0,0.0,0.0,18344,10582,25793,42120,36010,2
0.0,0.0,0.0,18290,10605,25742,42212,35935,2
0.0,0.0,0.0,18272,10629,25793,42212,35898,2
0.0,0.0,0.0,18308,10676,25894,42395,36197,2
0.0,0.0,0.0,18308,10664,25793,42349,36160,2
0.0,0.0,0.0,18290,10676,25767,42304,36160,2
0.0,0.0,0.0,18308,10641,25742,42304,36122,2
0.0,0.0,0.0,18344,10605,25742,42304,36010,2
0.0,0.0,0.0,18344,10605,25742,42395,36047,2
0.0,0.0,0.0,18308,10582,25717,42258,36085,2
0.0,0.0,0.0,18362,10605,25717,42212,36047,2
0.0,0.0,0.0,18344,10582,25717,42304,35972,2
0.0,0.0,0.0,18362,10582,25717,42212,36047,2
0.0,0.0,0.0,18380,10594,25717,42258,35972,2
0.0,0.0,0.0,18344,10594,25742,42212,36047,2
0.0,0.0,0.0,18362,10605,25742,42304,36085,2
0.0,0.0,0.0,18362,10582,25717,42212,36160,2
0.0,0.0,0.0,18417,10570,25717,42258,36160,2
0.0,0.0,0.0,18344,10605,25691,42258,36085,2
0.0,0.0,0.0,18380,10629,25666,42166,36122,2
0.0,0.0,0.0,18435,10629,25742,42304,36085,2
0.0,0.0,0.0,18344,10629,25767,42534,36462,2
0.0,0.0,0.0,18417,10629,25717,42304,36160,2
0.0,0.0,0.0,18380,10629,25691,42395,36197,2
0.0,0.0,0.0,18344,10641,25717,42304,36160,2
0.0,0.0,0.0,18380,10629,25691,42304,36122,2
0.0,0.0,0.0,18362,10629,25691,42304,36047,2
0.0,0.0,0.0,18344,10641,25717,42258,36085,2
0.0,0.0,0.0,18308,10676,25691,42120,36010,2
0.0,0.0,0.0,18308,10676,25666,42120,36010,2
0.0,0.0,0.0,18344,10700,25717,42166,35972,2
0.0,0.0,0.0,18344,10700,25691,42120,36010,2
0.0,0.0,0.0,18344,10724,25691,42029,36085,2
0.0,0.0,0.0,18344,10700,25691,42212,35972,2
0.0,0.0,0.0,18344,10676,25691,42120,35898,2
0.0,0.0,0.0,18290,10688,25666,42120,35972,2
0.0,0.0,0.0,18308,10676,25691,42166,35898,2
0.0,0.0,0.0,18326,10724,25666,42120,35749,2
0.0,0.0,0.0,18344,10748,25691,42075,35898,2
0.0,0.0,0.0,18326,10748,25691,42029,35787,2
0.0,0.0,0.0,18344,10771,25691,42029,35787,2
0.0,0.0,0.0,18380,10819,25742,42029,35749,2
0.0,0.0,0.0,18344,10819,25742,42120,35749,2
0.0,0.0,0.0,18344,10795,25641,42029,35712,2
0.0,0.0,0.0,18344,10759,25691,42029,35639,2
0.0,0.0,0.0,18272,10724,25641,41984,35639,2
0.0,0.0,0.0,18344,10653,25616,42029,35898,2
0.0,0.0,0.0,18344,10629,25616,42120,35935,2
0.0,0.0,0.0,18362,10629,25717,41893,35824,2
0.0,0.0,0.0,18344,10629,25742,41848,35639,2
0.0,0.0,0.0,18290,10582,25793,41984,35492,2
0.0,0.0,0.0,18272,10582,25742,41938,35418,2
0.0,0.0,0.0,18290,10605,25767,41803,35492,2
0.0,0.0,0.0,18308,10605,25767,41803,35382,2
0.0,0.0,0.0,18272,10605,25717,41622,35418,2
0.0,0.0,0.0,18290,10605,25717,41712,35418,2
0.0,0.0,0.0,18308,10594,25767,41667,35345,2
0.0,0.0,0.0,18308,10605,25742,41667,35382,2
0.0,0.0,0.0,18290,10605,25717,41577,35382,2
0.0,0.0,0.0,18272,10582,25666,41667,35272,2
0.0,0.0,0.0,18308,10605,25591,41533,35127,2
0.0,0.0,0.0,18344,10582,25616,41443,35272,2
0.0,0.0,0.0,18344,10594,25616,41488,35163,2
0.0,0.0,0.0,18272,10629,25540,41443,35199,2
0.0,0.0,0.0,18272,10629,25591,41399,35272,2
0.0,0.0,0.0,18236,10605,25540,41488,35199,2
0.0,0.0,0.0,18236,10629,25565,41622,35127,2
0.0,0.0,0.0,18200,10676,25565,41667,35127,2
0.0,0.0,0.0,18236,10676,25591,41622,35055,2
0.0,0.0,0.0,18236,10700,25515,41667,35018,2
0.0,0.0,0.0,18380,10724,25540,41577,34982,2
0.0,0.0,0.0,18344,10748,25440,41667,34982,2
0.0,0.0,0.0,18362,10748,25515,41577,34910,2
0.0,0.0,0.0,18362,10771,25490,41667,34946,2
0.0,0.0,0.0,18362,10759,25540,41622,34946,2
0.0,0.0,0.0,18380,10819,25540,41533,34910,2
0.0,0.0,0.0,18344,10819,25490,41443,34982,2
0.0,0.0,0.0,18380,10843,25540,41399,35055,2
0.0,0.0,0.0,18344,10867,25540,41443,35018,2
0.0,0.0,0.0,18344,10915,25515,41443,34910,2
0.0,0.0,0.0,18290,10891,25515,41488,34910,2
0.0,0.0,0.0,18272,10867,25490,41488,34910,2
0.0,0.0,0.0,18308,10819,25490,41488,34982,2
0.0,0.0,0.0,18308,10783,25490,41488,34946,2
0.0,0.0,0.0,18308,10819,25490,41399,34910,2
0.0,0.0,0.0,18308,10819,25440,41309,34910,2
0.0,0.0,0.0,18308,10819,25390,41443,34839,2
0.0,0.0,0.0,18272,10831,25490,41443,34803,2
0.0,0.0,0.0,18272,10843,25440,41399,34839,2
0.0,0.0,0.0,18236,10867,25440,41488,34803,2
0.0,0.0,0.0,18236,10843,25490,41399,34803,2
0.0,0.0,0.0,18272,10867,25490,41354,34767,2
0.0,0.0,0.0,18236,10795,25415,41488,34767,2
0.0,0.0,0.0,18200,10795,25490,41488,34767,2
0.0,0.0,0.0,18200,10819,25440,41577,34696,2
0.0,0.0,0.0,18218,10795,25440,41488,34731,2
0.0,0.0,0.0,18218,10867,25440,41577,34696,2
0.0,0.0,0.0,18218,10867,25490,41443,34624,2
0.0,0.0,0.0,18200,10795,25440,41354,34696,2
0.0,0.0,0.0,18236,10771,25390,41488,34589,2
0.0,0.0,0.0,18129,10748,25415,41399,34624,2
0.0,0.0,0.0,18200,10748,25415,41399,34696,2
0.0,0.0,0.0,18200,10748,25465,41399,34731,2
0.0,0.0,0.0,18236,10724,25490,41309,34589,2
0.0,0.0,0.0,18200,10748,25390,41354,34624,2
0.0,0.0,0.0,18147,10748,25440,41265,34589,2
0.0,0.0,0.0,18200,10771,25440,41399,34553,2
0.0,0.0,0.0,18182,10748,25415,41309,34589,2
0.0,0.0,0.0,18164,10795,25440,41309,34624,2
0.0,0.0,0.0,18164,10819,25390,41265,34696,2
0.0,0.0,0.0,18182,10843,25490,41399,34624,2
0.0,0.0,0.0,18147,10891,25490,41399,34553,2
0.0,0.0,0.0,18200,10891,25415,41309,34696,2
0.0,0.0,0.0,18200,10915,25440,41309,34589,2
0.0,0.0,0.0,18129,10915,25390,41399,34553,2
0.0,0.0,0.0,18111,10903,25440,41399,34553,2
0.0,0.0,0.0,18147,10927,25490,41399,34553,2
0.0,0.0,0.0,18129,10963,25490,41309,34553,2
0.0,0.0,0.0,18129,10939,25490,41399,34553,2
0.0,0.0,0.0,18129,10963,25490,41354,34589,2
0.0,0.0,0.0,18147,10963,25490,41265,34518,2
0.0,0.0,0.0,18147,10975,25465,41399,34589,2
0.0,0.0,0.0,18200,10987,25515,41354,34482,2
0.0,0.0,0.0,18200,10903,25515,41443,34553,2
0.0,0.0,0.0,18200,10891,25515,41399,34553,2
0.0,0.0,0.0,18200,10867,25490,41399,34482,2
0.0,0.0,0.0,18164,10831,25440,41309,34447,2
0.0,0.0,0.0,18182,10891,25490,41354,34482,2
0.0,0.0,0.0,18200,10927,25440,41221,34518,2
0.0,0.0,0.0,18164,10963,25490,41399,34518,2
0.0,0.0,0.0,18182,11012,25490,41399,34482,2
0.0,0.0,0.0,18164,11036,25515,41309,34518,2
0.0,0.0,0.0,18164,11060,25490,41399,34553,2
0.0,0.0,0.0,18147,11072,25490,41399,34553,2
0.0,0.0,0.0,18164,11084,25515,41309,34341,2
0.0,0.0,0.0,18164,11060,25490,41309,34412,2
0.0,0.0,0.0,18147,11060,25490,41354,34341,2
0.0,0.0,0.0,18147,11060,25490,41399,34376,2
0.0,0.0,0.0,18147,11072,25490,41309,34341,2
0.0,0.0,0.0,18111,11084,25515,41221,34341,2
0.0,0.0,0.0,18111,11084,25490,41354,34200,2
0.0,0.0,0.0,18129,10987,25440,41309,34341,2
0.0,0.0,0.0,18182,10879,25540,41309,34376,2
0.0,0.0,0.0,18129,10879,25440,41309,34271,2
0.0,0.0,0.0,18200,10879,25440,41176,34341,2
0.0,0.0,0.0,18147,10891,25440,41309,34235,2
0.0,0.0,0.0,18129,10963,25415,41309,34306,2
0.0,0.0,0.0,18129,11024,25440,41265,34271,2
0.0,0.0,0.0,18129,11036,25440,41221,34341,2
0.0,0.0,0.0,18075,11060,25440,41399,34341,2
0.0,0.0,0.0,18129,11084,25490,41221,34341,2
0.0,0.0,0.0,18129,11109,25465,41221,34271,2
0.0,0.0,0.0,18129,11121,25490,41309,34306,2
0.0,0.0,0.0,18075,11170,25490,41265,34271,2
0.0,0.0,0.0,18075,11206,25440,41176,34200,2
0.0,0.0,0.0,18129,11206,25465,41176,34271,2
0.0,0.0,0.0,18129,11206,25440,41132,34200,2
0.0,0.0,0.0,18093,11206,25390,41088,34165,2
0.0,0.0,0.0,18111,11206,25415,41132,34271,2
0.0,0.0,0.0,18057,11206,25440,41221,34130,2
0.0,0.0,0.0,18057,11194,25390,41132,34200,2
0.0,0.0,0.0,18057,11206,25440,41132,34165,2
0.0,0.0,0.0,18057,11219,25415,41176,34235,2
0.0,0.0,0.0,18057,11219,25440,41132,34235,2
0.0,0.0,0.0,18057,11231,25465,41176,34165,2
0.0,0.0,0.0,18039,11255,25490,41265,34235,2
0.0,0.0,0.0,18057,11206,25415,41265,34130,2
0.0,0.0,0.0,18022,11182,25415,41176,34235,2
0.0,0.0,0.0,18039,11072,25390,41132,34235,2
0.0,0.0,0.0,18075,10915,25465,41176,34271,2
0.0,0.0,0.0,18182,10795,25540,41354,34412,2
0.0,0.0,0.0,18147,10748,25591,41265,34482,2
0.0,0.0,0.0,18200,10748,25540,41221,34624,2
0.0,0.0,0.0,18200,10748,25515,41309,34589,2
0.0,0.0,0.0,18218,10736,25490,41176,34660,2
0.0,0.0,0.0,18164,10748,25591,41221,34553,2
0.0,0.0,0.0,18236,10724,25565,41176,34482,2
0.0,0.0,0.0,18236,10712,25591,41221,34624,2
0.0,0.0,0.0,18236,10676,25641,41221,34447,2
0.0,0.0,0.0,18236,10629,25742,41176,34589,2
0.0,0.0,0.0,18272,10605,25920,41132,34589,2
0.0,0.0,0.0,18417,10582,25996,41221,34982,2
0.0,0.0,0.0,18435,10582,25894,40955,35018,2
0.0,0.0,0.0,18453,10582,25843,40868,34982,2
0.0,0.0,0.0,18453,10594,25818,40780,35018,2
0.0,0.0,0.0,18435,10605,25793,40780,34910,2
0.0,0.0,0.0,18435,10582,25717,40868,34910,2
0.0,0.0,0.0,18417,10582,25691,40868,34982,2
0.0,0.0,0.0,18435,10605,25691,40736,34946,2
0.0,0.0,0.0,18453,10582,25591,40649,34839,2
0.0,0.0,0.0,18435,10582,25591,40736,34767,2
0.0,0.0,0.0,18399,10582,25616,40649,34803,2
0.0,0.0,0.0,18380,10629,25641,40693,34839,2
0.0,0.0,0.0,18362,10641,25616,40605,34874,2
0.0,0.0,0.0,18344,10676,25616,40693,34731,2
0.0,0.0,0.0,18344,10676,25591,40693,34731,2
0.0,0.0,0.0,18380,10700,25540,40605,34839,2
0.0,0.0,0.0,18362,10771,25540,40693,34731,2
0.0,0.0,0.0,18344,10748,25490,40605,34731,2
0.0,0.0,0.0,18344,10771,25490,40562,34589,2
0.0,0.0,0.0,18344,10771,25440,40519,34660,2
0.0,0.0,0.0,18290,10807,25415,40432,34589,2
0.0,0.0,0.0,18272,10843,25490,40562,34553,2
0.0,0.0,0.0,18326,10855,25440,40519,34553,2
0.0,0.0,0.0,18308,10843,25440,40519,34482,2
0.0,0.0,0.0,18254,10867,25415,40475,34412,2
0.0,0.0,0.0,18272,10795,25390,40519,34482,2
0.0,0.0,0.0,18272,10771,25415,40389,34447,2
0.0,0.0,0.0,18272,10676,25440,40475,34447,2
0.0,0.0,0.0,18290,10605,25540,40519,34447,2
0.0,0.0,0.0,18272,10605,25869,40736,34553,2
0.0,0.0,0.0,18290,10582,25793,40605,34553,2
0.0,0.0,0.0,18272,10582,25818,40605,34589,2
0.0,0.0,0.0,18326,10535,25843,40605,34412,2
0.0,0.0,0.0,18344,10488,25894,40693,34482,2
0.0,0.0,0.0,18344,10488,25742,40605,34412,2
0.0,0.0,0.0,18417,10488,25717,40389,34165,2
0.0,0.0,0.0,18380,10453,25691,40432,34200,2
0.0,0.0,0.0,18380,10464,25717,40346,34130,2
0.0,0.0,0.0,18344,10488,25793,40389,34130,2
0.0,0.0,0.0,18399,10453,25793,40389,34130,2
0.0,0.0,0.0,18344,10488,25767,40389,34130,2
0.0,0.0,0.0,18344,10464,25793,40432,34060,2
0.0,0.0,0.0,18344,10476,25742,40389,34130,2
0.0,0.0,0.0,18344,10453,25691,40432,34095,2
0.0,0.0,0.0,18344,10464,25691,40259,34200,2
0.0,0.0,0.0,18344,10464,25691,40389,34130,2
0.0,0.0,0.0,18380,10488,25666,40302,34130,2
0.0,0.0,0.0,18344,10488,25666,40302,34130,2
0.0,0.0,0.0,18380,10488,25641,40259,34060,2
0.0,0.0,0.0,18380,10488,25691,40302,33991,2
0.0,0.0,0.0,18362,10488,25691,40346,34130,2
0.0,0.0,0.0,18380,10499,25691,40259,34026,2
0.0,0.0,0.0,18362,10499,25641,40216,33991,2
0.0,0.0,0.0,18362,10488,25691,40259,33991,2
0.0,0.0,0.0,18362,10464,25591,40346,33991,2
0.0,0.0,0.0,18380,10523,25616,40302,34095,2
0.0,0.0,0.0,18344,10499,25641,40259,33991,2
0.0,0.0,0.0,18362,10488,25616,40259,34060,2
0.0,0.0,0.0,18344,10511,25666,40173,33991,2
0.0,0.0,0.0,18362,10511,25591,40259,34060,2
0.0,0.0,0.0,18344,10511,25591,40173,34026,2
0.0,0.0,0.0,18344,10535,25591,40259,34026,2
0.0,0.0,0.0,18344,10535,25540,40216,33991,2
0.0,0.0,0.0,18362,10582,25490,40302,33921,2
0.0,0.0,0.0,18344,10594,25490,40131,33991,2
0.0,0.0,0.0,18362,10641,25490,40131,33991,2
0.0,0.0,0.0,18417,10676,25440,40088,33991,2
0.0,0.0,0.0,18635,10748,25490,39917,34026,2
0.0,0.0,0.0,18838,10963,25390,39705,33991,2
0.0,0.0,0.0,19306,11012,25291,39494,33887,2
0.0,0.0,0.0,19960,11012,25316,39494,33887,2
0.0,0.0,0.0,21458,11060,25490,39747,34130,2
0.0,0.0,0.0,22010,11133,25616,39917,34060,2
0.0,0.0,0.0,22226,11206,25843,40002,33887,2
0.0,0.0,0.0,22010,11231,25945,39917,33783,2
0.0,0.0,0.0,21479,11231,26176,39917,33714,2
0.0,0.0,0.0,21043,11255,26124,39578,33576,2
0.0,0.0,0.0,20737,11292,26124,39536,33508,2
0.0,0.0,0.0,20575,11280,26073,39327,33542,2
0.0,0.0,0.0,20395,11280,26022,39077,33337,2
0.0,0.0,0.0,20275,11317,26073,39036,33303,2
0.0,0.0,0.0,20117,11317,26099,38707,33100,2
0.0,0.0,0.0,19921,11329,26124,38503,33033,2
0.0,0.0,0.0,19805,11366,26099,38422,32899,2
0.0,0.0,0.0,19535,11391,26047,38220,32799,2
0.0,0.0,0.0,18949,11379,25894,37583,32435,2
0.0,0.0,0.0,18764,11391,25691,37543,32435,2
0.0,0.0,0.0,18489,11354,25691,37386,32369,2
0.0,0.0,0.0,18272,11354,25793,37426,32369,2
0.0,0.0,0.0,17968,11317,25742,37269,32369,2
0.0,0.0,0.0,17915,11341,25742,37230,32369,2
0.0,0.0,0.0,17880,11304,25793,37152,32271,2
0.0,0.0,0.0,17915,11304,25691,37152,32402,2
0.0,0.0,0.0,17915,11255,25641,37269,32369,2
0.0,0.0,0.0,17845,11304,25591,37191,32336,2
0.0,0.0,0.0,17880,11255,25591,37152,32303,2
0.0,0.0,0.0,17845,11255,25540,37191,32369,2
0.0,0.0,0.0,17774,11255,25540,37152,32369,2
0.0,0.0,0.0,17774,11231,25515,37230,32369,2
0.0,0.0,0.0,17792,11243,25515,37114,32369,2
0.0,0.0,0.0,17739,11255,25591,37075,32336,2
0.0,0.0,0.0,17739,11255,25565,36998,32336,2
0.0,0.0,0.0,17704,11255,25641,36959,32271,2
0.0,0.0,0.0,17669,11255,25691,37036,32238,2
0.0,0.0,0.0,17513,11255,25691,36998,32303,2
0.0,0.0,0.0,17461,11243,25666,36920,32271,2
0.0,0.0,0.0,17426,11219,25666,36959,32303,2
0.0,0.0,0.0,17357,11133,25591,36920,32303,2
0.0,0.0,0.0,17357,11072,25490,36843,32369,2
0.0,0.0,0.0,17357,10975,25490,36767,32369,2
0.0,0.0,0.0,17426,10963,25465,36805,32336,2
0.0,0.0,0.0,17426,10975,25440,36690,32336,2
0.0,0.0,0.0,17374,10987,25415,36690,32271,2
0.0,0.0,0.0,17409,11012,25390,36690,32303,2
0.0,0.0,0.0,17426,10975,25341,36690,32205,2
0.0,0.0,0.0,17392,11012,25341,36690,32303,2
0.0,0.0,0.0,17426,10975,25291,36538,32238,2
0.0,0.0,0.0,17374,10963,25316,36614,32238,2
0.0,0.0,0.0,17323,11012,25316,36538,32271,2
0.0,0.0,0.0,17357,11012,25291,36614,32173,2
0.0,0.0,0.0,17357,11024,25291,36690,32173,2
0.0,0.0,0.0,17357,11060,25341,36690,32238,2
0.0,0.0,0.0,17340,11084,25316,36690,32238,2
0.0,0.0,0.0,17323,11109,25291,36499,32108,2
0.0,0.0,0.0,17323,11084,25216,36690,32173,2
0.0,0.0,0.0,17306,11109,25291,36614,32108,2
0.0,0.0,0.0,17323,11109,25291,36652,32173,2
0.0,0.0,0.0,17323,11109,25291,36690,32238,2
0.0,0.0,0.0,17340,11109,25241,36690,32271,2
0.0,0.0,0.0,17289,11109,25241,36652,32205,2
0.0,0.0,0.0,17306,11121,25241,36576,32173,2
0.0,0.0,0.0,17323,11084,25241,36652,32173,2
0.0,0.0,0.0,17357,11060,25291,36690,32369,2
0.0,0.0,0.0,17426,11024,25266,36690,32500,2
0.0,0.0,0.0,17461,11024,25216,36690,32500,2
0.0,0.0,0.0,17495,11024,25241,36576,32369,2
0.0,0.0,0.0,17582,11060,25241,36690,32500,2
0.0,0.0,0.0,17634,11060,25316,36690,32369,2
0.0,0.0,0.0,17600,11060,25365,36690,32402,2
0.0,0.0,0.0,17513,11109,25390,36690,32402,2
0.0,0.0,0.0,17495,11096,25390,36690,32435,2
0.0,0.0,0.0,17461,11084,25415,36614,32336,2
0.0,0.0,0.0,17374,11096,25316,36614,32271,2
0.0,0.0,0.0,17237,11157,25415,36690,32369,2
0.0,0.0,0.0,17323,11157,25490,36538,32238,2
0.0,0.0,0.0,17669,11182,25818,36690,32369,2
0.0,0.0,0.0,17426,11170,25591,36805,32467,2
0.0,0.0,0.0,17289,11206,25540,36843,32500,2
0.0,0.0,0.0,17289,11182,25490,36805,32369,2
0.0,0.0,0.0,17254,11194,25490,36690,32336,2
0.0,0.0,0.0,17220,11157,25490,36767,32402,2
0.0,0.0,0.0,17426,11170,25490,36728,32369,2
0.0,0.0,0.0,17374,11170,25490,36767,32336,2
0.0,0.0,0.0,17565,11157,25540,36767,32435,2
0.0,0.0,0.0,17600,11121,25490,36767,32369,2
0.0,0.0,0.0,17669,11157,25591,36728,32369,2
0.0,0.0,0.0,17704,11133,25591,36767,32402,2
0.0,0.0,0.0,17669,11133,25591,36690,32435,2
0.0,0.0,0.0,17652,11121,25490,36728,32369,2
0.0,0.0,0.0,17722,11157,25515,36805,32369,2
0.0,0.0,0.0,17634,11133,25490,36767,32369,2
0.0,0.0,0.0,17565,11157,25515,36805,32303,2
0.0,0.0,0.0,17478,11157,25490,36690,32369,2
0.0,0.0,0.0,17443,11157,25440,36614,32238,2
0.0,0.0,0.0,17443,11157,25465,36652,32238,2
0.0,0.0,0.0,17409,11133,25465,36690,32271,2
0.0,0.0,0.0,17357,11157,25415,36614,32173,2
0.0,0.0,0.0,17254,11157,25415,36576,32108,2
0.0,0.0,0.0,17101,11157,25390,36614,32108,2
0.0,0.0,0.0,16915,11182,25341,36538,32140,2
0.0,0.0,0.0,16781,11157,25341,36614,32173,2
0.0,0.0,0.0,16698,11157,25316,36576,32173,2
0.0,0.0,0.0,16615,11157,25390,36690,32238,2
0.0,0.0,0.0,16549,11157,25390,36499,32043,2
0.0,0.0,0.0,16698,11170,25365,36499,32010,2
0.0,0.0,0.0,16765,11157,25291,36348,32043,2
0.0,0.0,0.0,16681,11157,25341,36348,31913,2
0.0,0.0,0.0,16632,11084,25241,36310,32010,2
0.0,0.0,0.0,16731,11060,25216,36310,32108,2
0.0,0.0,0.0,16765,11060,25216,36310,32075,2
0.0,0.0,0.0,16748,11060,25192,36235,32043,2
0.0,0.0,0.0,16815,11060,25216,36235,31978,2
0.0,0.0,0.0,16748,11072,25241,36160,31849,2
0.0,0.0,0.0,16483,11096,25291,36197,31913,2
0.0,0.0,0.0,16125,11133,25565,36197,31913,2
0.0,0.0,0.0,15932,11121,26099,36386,31913,2
0.0,0.0,0.0,15852,11157,27068,36998,32173,2
0.0,0.0,0.0,15996,11157,27911,37230,32238,2
0.0,0.0,0.0,16109,11157,28984,38503,32173,2
0.0,0.0,0.0,16417,11157,29538,39244,32303,2
0.0,0.0,0.0,16748,11157,30165,40432,32435,2
0.0,0.0,0.0,16815,11109,30226,40693,32435,2
0.0,0.0,0.0,16898,11109,30286,40780,32369,2
0.0,0.0,0.0,16882,11109,30226,40693,32303,2
0.0,0.0,0.0,16949,11121,30286,41265,32435,2
0.0,0.0,0.0,16949,11157,30286,41044,32402,2
0.0,0.0,0.0,16898,11182,30226,41088,32500,2
0.0,0.0,0.0,16882,11194,30226,41088,32435,2
0.0,0.0,0.0,16949,11206,30347,41622,32500,2
0.0,0.0,0.0,16949,11231,30377,41848,32500,2
0.0,0.0,0.0,16949,11206,30438,42029,32765,2
0.0,0.0,0.0,16983,11206,30530,42766,33033,2
0.0,0.0,0.0,16999,11255,30838,43807,33337,2
0.0,0.0,0.0,16748,11268,30776,45181,33714,2
0.0,0.0,0.0,16748,11255,30347,45081,33852,2
0.0,0.0,0.0,16748,11255,30347,46043,34026,2
0.0,0.0,0.0,16698,11255,30408,46770,34412,2
0.0,0.0,0.0,16681,11243,30256,46823,34341,2
0.0,0.0,0.0,16648,11219,30408,47353,34482,2
0.0,0.0,0.0,16698,11255,30530,47675,34412,2
0.0,0.0,0.0,16648,11255,30408,47513,34341,2
0.0,0.0,0.0,16765,11280,30530,48273,34839,2
0.0,0.0,0.0,16966,11341,30653,49443,35382,2
0.0,0.0,0.0,17084,11354,30591,49217,35602,2
0.0,0.0,0.0,17152,11354,30591,49670,35712,2
0.0,0.0,0.0,17220,11354,30684,50129,35898,2
0.0,0.0,0.0,17220,11317,30653,50361,36160,2
0.0,0.0,0.0,17186,11341,30745,50477,36197,2
0.0,0.0,0.0,17152,11354,30715,50361,35972,2
0.0,0.0,0.0,17118,11354,30776,50245,35824,2
0.0,0.0,0.0,17152,11329,30838,50187,35787,2
0.0,0.0,0.0,17237,11231,30900,50477,36310,2
0.0,0.0,0.0,17289,11133,30900,50419,36348,2
0.0,0.0,0.0,17323,11072,30622,49899,36386,2
0.0,0.0,0.0,17426,11024,30622,49899,36728,2
0.0,0.0,0.0,17495,10987,30622,49784,36690,2
0.0,0.0,0.0,17600,10963,30776,49784,36690,2
0.0,0.0,0.0,17565,10915,30622,49613,36920,2
0.0,0.0,0.0,17634,10915,30591,49556,36767,2
0.0,0.0,0.0,17634,10879,30530,49330,36690,2
0.0,0.0,0.0,17600,10891,30499,49104,36690,2
0.0,0.0,0.0,17634,10879,30469,48992,36614,2
0.0,0.0,0.0,17704,10903,30499,48992,36690,2
0.0,0.0,0.0,17739,10879,30469,48769,36690,2
0.0,0.0,0.0,17792,10891,30499,48548,36690,2
0.0,0.0,0.0,17739,10879,30408,48437,36386,2
0.0,0.0,0.0,17704,10879,30347,48108,36235,2
0.0,0.0,0.0,17757,10903,30347,48000,36235,2
0.0,0.0,0.0,17845,10879,30256,47837,36047,2
0.0,0.0,0.0,17845,10879,30165,47729,36047,2
0.0,0.0,0.0,17774,10879,30165,47621,35861,2
0.0,0.0,0.0,17774,10879,30075,47460,35861,2
0.0,0.0,0.0,17774,10915,30045,47353,35749,2
0.0,0.0,0.0,17774,10927,30045,47246,35749,2
0.0,0.0,0.0,17809,10915,30165,47246,35861,2
0.0,0.0,0.0,17827,10927,29984,47246,35787,2
0.0,0.0,0.0,17792,10963,29955,47140,35712,2
0.0,0.0,0.0,17809,10963,29895,47140,35787,2
0.0,0.0,0.0,17862,10999,29925,47140,35824,2
0.0,0.0,0.0,17880,11012,29984,47140,35749,2
0.0,0.0,0.0,17862,11012,29984,47034,35787,2
0.0,0.0,0.0,17915,11012,30015,47034,35787,2
0.0,0.0,0.0,17880,11012,29984,47034,35861,2
0.0,0.0,0.0,17845,11036,29984,47034,35712,2
0.0,0.0,0.0,17915,11036,29895,46876,35861,2
0.0,0.0,0.0,17986,11012,29925,46876,35861,2
0.0,0.0,0.0,17915,11012,29925,46876,35861,2
0.0,0.0,0.0,17986,11012,29805,46876,35749,2
0.0,0.0,0.0,17968,11012,29805,46928,35712,2
0.0,0.0,0.0,18057,11060,29775,46823,35861,2
0.0,0.0,0.0,18022,11060,29775,46823,35639,2
0.0,0.0,0.0,18057,11096,29835,46823,35712,2
0.0,0.0,0.0,18129,11109,29835,46770,35749,2
0.0,0.0,0.0,18164,11109,29746,46613,35824,2
0.0,0.0,0.0,18039,11121,29805,46666,35492,2
0.0,0.0,0.0,17898,11157,29746,46457,35272,2
0.0,0.0,0.0,17862,11121,29686,46509,35272,2
0.0,0.0,0.0,17845,11157,29716,46405,35199,2
0.0,0.0,0.0,17845,11133,29746,46405,35272,2
0.0,0.0,0.0,17845,11157,29716,46405,35127,2
0.0,0.0,0.0,17809,11157,29716,46249,35163,2
0.0,0.0,0.0,17845,11170,29657,46249,35236,2
0.0,0.0,0.0,17809,11182,29657,46405,35127,2
0.0,0.0,0.0,17827,11206,29627,46405,35163,2
0.0,0.0,0.0,17827,11206,29657,46249,35127,2
0.0,0.0,0.0,17845,11206,29627,46249,35091,2
0.0,0.0,0.0,17809,11206,29568,46301,35055,2
0.0,0.0,0.0,17809,11206,29627,46198,35091,2
0.0,0.0,0.0,17827,11206,29568,46301,35091,2
0.0,0.0,0.0,17845,11219,29568,46198,35127,2
0.0,0.0,0.0,17845,11243,29538,46249,35055,2
0.0,0.0,0.0,17845,11255,29568,46301,34982,2
0.0,0.0,0.0,17845,11280,29568,46198,35055,2
0.0,0.0,0.0,17880,11268,29538,46095,35055,2
0.0,0.0,0.0,17880,11268,29509,45992,35091,2
0.0,0.0,0.0,17880,11255,29450,46043,35127,2
0.0,0.0,0.0,17845,11255,29509,46198,35018,2
0.0,0.0,0.0,17845,11268,29450,46198,35127,2
0.0,0.0,0.0,17862,11268,29421,46043,35127,2
0.0,0.0,0.0,17845,11255,29421,45992,35091,2
0.0,0.0,0.0,17880,11255,29450,45941,35127,2
0.0,0.0,0.0,17862,11255,29421,45889,35199,2
0.0,0.0,0.0,17880,11255,29421,45992,35055,2
0.0,0.0,0.0,17880,11255,29479,46043,35163,2
0.0,0.0,0.0,17898,11255,29450,45992,35055,2
0.0,0.0,0.0,17845,11255,29509,45787,35055,2
0.0,0.0,0.0,17898,11268,29509,45838,35055,2
0.0,0.0,0.0,17845,11268,29538,45889,35055,2
0.0,0.0,0.0,17880,11280,29509,45787,35091,2
0.0,0.0,0.0,17951,11255,29450,45787,35091,2
0.0,0.0,0.0,18022,11206,29421,45992,35127,2
0.0,0.0,0.0,17986,11182,29421,45838,34910,2
0.0,0.0,0.0,18022,11133,29421,45941,35199,2
0.0,0.0,0.0,18057,11182,29391,45838,35163,2
0.0,0.0,0.0,18147,11157,29450,45787,35345,2
0.0,0.0,0.0,18236,11157,29391,45787,35163,2
0.0,0.0,0.0,18254,11182,29333,45787,35127,2
0.0,0.0,0.0,18236,11206,29333,45635,35127,2
0.0,0.0,0.0,18272,11170,29333,45685,35127,2
0.0,0.0,0.0,18236,11157,29362,45635,35163,2
0.0,0.0,0.0,18453,11109,29274,45685,35345,2
0.0,0.0,0.0,18489,11084,29274,45838,35418,2
0.0,0.0,0.0,18508,11036,29333,45992,35272,2
0.0,0.0,0.0,18489,11024,29216,45736,35272,2
0.0,0.0,0.0,18508,11012,29274,45685,35236,2
0.0,0.0,0.0,18489,11012,29274,45787,35055,2
0.0,0.0,0.0,18562,10987,29274,45787,35199,2
0.0,0.0,0.0,18508,11012,29274,45584,35091,2
0.0,0.0,0.0,18526,10975,29216,45685,35055,2
0.0,0.0,0.0,18526,10987,29216,45584,35055,2
0.0,0.0,0.0,18508,10963,29216,45483,35127,2
0.0,0.0,0.0,18489,10963,29274,45685,35018,2
0.0,0.0,0.0,18544,10963,29245,45533,35055,2
0.0,0.0,0.0,18508,10939,29274,45584,34910,2
0.0,0.0,0.0,18471,10927,29274,45432,34803,2
0.0,0.0,0.0,18489,10915,29216,45483,34731,2
0.0,0.0,0.0,18489,10891,29216,45432,34767,2
0.0,0.0,0.0,18453,10915,29158,45281,34839,2
0.0,0.0,0.0,18435,10915,29158,45382,34767,2
0.0,0.0,0.0,18417,10963,29100,45281,34731,2
0.0,0.0,0.0,18417,10963,29071,45281,34696,2
0.0,0.0,0.0,18435,10987,29042,45331,34839,2
0.0,0.0,0.0,18417,11012,29042,45281,34767,2
0.0,0.0,0.0,18435,10987,29042,45281,34767,2
0.0,0.0,0.0,18453,10939,29013,45331,34910,2
0.0,0.0,0.0,18435,10915,28984,45281,34910,2
0.0,0.0,0.0,18435,10915,29042,45231,34767,2
0.0,0.0,0.0,18435,10915,29042,45281,34731,2
0.0,0.0,0.0,18489,10891,28984,45231,34696,2
0.0,0.0,0.0,18453,10915,29042,45181,34696,2
0.0,0.0,0.0,18417,10915,29013,45382,34803,2
0.0,0.0,0.0,18453,10891,28984,45231,34696,2
0.0,0.0,0.0,18417,10891,28984,45181,34696,2
0.0,0.0,0.0,18417,10891,29071,45181,34696,2
0.0,0.0,0.0,18435,10867,29042,45181,34696,2
0.0,0.0,0.0,18417,10867,28984,45181,34696,2
0.0,0.0,0.0,18489,10867,28984,45081,34731,2
0.0,0.0,0.0,18526,10831,28955,44981,34660,2
0.0,0.0,0.0,18508,10819,28984,44981,34553,2
0.0,0.0,0.0,18562,10831,28955,44981,34518,2
0.0,0.0,0.0,18508,10843,28955,44931,34624,2
0.0,0.0,0.0,18562,10819,28927,44782,34553,2
0.0,0.0,0.0,18562,10831,28984,44881,34447,2
0.0,0.0,0.0,18544,10831,28955,44832,34553,2
0.0,0.0,0.0,18526,10819,28927,44733,34412,2
0.0,0.0,0.0,18581,10819,28955,44634,34482,2
0.0,0.0,0.0,18526,10819,28927,44634,34482,2
0.0,0.0,0.0,18581,10819,28927,44634,34482,2
0.0,0.0,0.0,18562,10819,28927,44585,34518,2
0.0,0.0,0.0,18562,10795,28955,44585,34518,2
0.0,0.0,0.0,18508,10795,28927,44585,34447,2
0.0,0.0,0.0,18562,10819,28869,44585,34412,2
0.0,0.0,0.0,18544,10795,28869,44487,34412,2
0.0,0.0,0.0,18526,10819,28869,44487,34412,2
0.0,0.0,0.0,18508,10855,28869,44389,34447,2
0.0,0.0,0.0,18508,10819,28898,44487,34341,2
0.0,0.0,0.0,18380,10867,28869,44438,34271,2
0.0,0.0,0.0,18344,10867,28812,44193,34341,2
0.0,0.0,0.0,18272,10939,28840,44193,34341,2
0.0,0.0,0.0,18272,10963,28840,44242,34341,2
0.0,0.0,0.0,18236,10999,29042,44487,34553,2
0.0,0.0,0.0,18236,11012,29042,44782,34624,2
0.0,0.0,0.0,18200,11060,29100,44634,34553,2
0.0,0.0,0.0,18272,11060,29187,44487,34482,2
0.0,0.0,0.0,18147,11072,29391,45081,34839,2
0.0,0.0,0.0,18453,11206,29716,46928,36272,2
0.0,0.0,0.0,18783,11403,30165,48769,37152,2
0.0,0.0,0.0,18931,11453,30408,48992,37308,2
0.0,0.0,0.0,19174,11453,30653,50653,39327,2
0.0,0.0,0.0,19766,11515,31276,52209,40693,2
0.0,0.0,0.0,20737,11578,31656,53515,41938,2
0.0,0.0,0.0,21648,11528,31752,54153,43046,2
0.0,0.0,0.0,22161,11465,31624,54607,43711,2
0.0,0.0,0.0,22357,11453,31529,54803,43807,2
0.0,0.0,0.0,22444,11403,31529,55065,44145,2
0.0,0.0,0.0,22466,11354,31402,54672,43519,2
0.0,0.0,0.0,22488,11354,31465,54282,43377,2
0.0,0.0,0.0,22488,11354,31370,53769,43046,2
0.0,0.0,0.0,22161,11354,31087,53263,42719,2
0.0,0.0,0.0,21967,11329,30962,52701,42626,2
0.0,0.0,0.0,21354,11304,30591,51965,42166,2
0.0,0.0,0.0,20716,11280,30469,51184,41132,2
0.0,0.0,0.0,20315,11304,30135,50711,40432,2
0.0,0.0,0.0,20078,11354,30226,49330,38585,2
0.0,0.0,0.0,20078,11403,30286,48327,36920,2
0.0,0.0,0.0,19999,11528,30408,47621,35787,2
0.0,0.0,0.0,19805,11678,30591,46509,34412,2
0.0,0.0,0.0,19863,11868,30469,45685,33887,2
0.0,0.0,0.0,19766,11906,30408,44881,33405,2
0.0,0.0,0.0,19766,11919,29865,43807,32699,2
0.0,0.0,0.0,19554,12021,29509,42488,32238,2
0.0,0.0,0.0,19382,11906,29158,41712,31849,2
0.0,0.0,0.0,19099,11881,29129,41577,31624,2
0.0,0.0,0.0,18820,11855,29100,41309,31624,2
0.0,0.0,0.0,18380,11779,29274,41399,31402,2
0.0,0.0,0.0,18057,11779,29216,41044,31087,2
0.0,0.0,0.0,17443,11779,29100,40519,30776,2
0.0,0.0,0.0,17033,11804,29158,40432,30530,2
0.0,0.0,0.0,16748,11779,29013,40216,30469,2
0.0,0.0,0.0,16417,11716,29158,40216,30286,2
0.0,0.0,0.0,16238,11678,29158,40519,30286,2
0.0,0.0,0.0,16434,11703,29746,41938,31025,2
0.0,0.0,0.0,17084,11703,30226,44096,32238,2
0.0,0.0,0.0,17237,11792,30838,45838,33033,2
0.0,0.0,0.0,17461,11779,30931,46981,33852,2
0.0,0.0,0.0,17704,11792,30994,47675,34803,2
0.0,0.0,0.0,17739,11766,30838,47034,34553,2
0.0,0.0,0.0,17986,11678,30838,47567,35055,2
0.0,0.0,0.0,18129,11565,30715,47945,35199,2
0.0,0.0,0.0,18200,11503,30591,48108,35382,2
0.0,0.0,0.0,18272,11503,30653,48382,35055,2
0.0,0.0,0.0,18344,11503,30653,48603,35199,2
0.0,0.0,0.0,18453,11503,30838,49386,35639,2
0.0,0.0,0.0,18654,11515,30962,50187,36614,2
0.0,0.0,0.0,19497,11503,31339,51783,40259,2
0.0,0.0,0.0,19805,11465,31465,52026,40868,2
0.0,0.0,0.0,20256,11478,31593,52763,42029,2
0.0,0.0,0.0,20475,11478,31785,53012,42395,2
0.0,0.0,0.0,20656,11478,31978,52887,42304,2
0.0,0.0,0.0,20818,11503,31978,52825,42212,2
0.0,0.0,0.0,21291,11553,32205,52393,42304,2
0.0,0.0,0.0,21733,11465,32238,52148,42304,2
0.0,0.0,0.0,21754,11379,32108,51482,41848,2
0.0,0.0,0.0,21839,11231,32043,51065,41667,2
0.0,0.0,0.0,21733,11206,31624,50829,41399,2
0.0,0.0,0.0,21648,11133,31465,50419,41044,2
0.0,0.0,0.0,21711,11072,31402,50477,40955,2
0.0,0.0,0.0,21690,11024,31402,50361,40693,2
0.0,0.0,0.0,21627,11048,31276,50129,40519,2
0.0,0.0,0.0,21563,11060,31119,49899,40259,2
0.0,0.0,0.0,21584,11060,31087,49899,40216,2
0.0,0.0,0.0,21479,11084,31087,49670,40088,2
0.0,0.0,0.0,21375,11157,30962,49443,39917,2
0.0,0.0,0.0,21375,11231,30900,49443,39832,2
0.0,0.0,0.0,21270,11182,30962,49330,39705,2
0.0,0.0,0.0,21354,11157,30900,49386,39663,2
0.0,0.0,0.0,21395,11109,31087,49330,39832,2
0.0,0.0,0.0,21375,11084,30994,49217,39621,2
0.0,0.0,0.0,21354,11084,30994,49217,39494,2
0.0,0.0,0.0,21291,11096,30962,49104,39705,2
0.0,0.0,0.0,21291,11109,30962,49048,39536,2
0.0,0.0,0.0,21291,11182,30900,48992,39663,2
0.0,0.0,0.0,21250,11206,30869,48825,39578,2
0.0,0.0,0.0,21375,11133,30838,48769,39663,2
0.0,0.0,0.0,21479,11133,30838,48881,39494,2
0.0,0.0,0.0,21458,11109,30838,48825,39411,2
0.0,0.0,0.0,21375,11121,30807,48548,39327,2
0.0,0.0,0.0,21375,11109,30745,48658,39244,2
0.0,0.0,0.0,21208,11121,30776,48548,39160,2
0.0,0.0,0.0,21167,11121,30776,48548,39244,2
0.0,0.0,0.0,21125,11145,30776,48492,39327,2
0.0,0.0,0.0,20981,11206,30745,48492,39327,2
0.0,0.0,0.0,20981,11206,30776,48437,39327,2
0.0,0.0,0.0,20981,11243,30745,48327,39285,2
0.0,0.0,0.0,20961,11255,30715,48327,39244,2
0.0,0.0,0.0,20961,11231,30745,48327,39244,2
0.0,0.0,0.0,20940,11219,30715,48327,39036,2
0.0,0.0,0.0,20961,11219,30715,48327,39036,2
0.0,0.0,0.0,20961,11219,30653,48163,38912,2
0.0,0.0,0.0,20940,11206,30684,48273,38871,2
0.0,0.0,0.0,20961,11157,30653,48108,39119,2
0.0,0.0,0.0,20961,11182,30622,48108,38995,2
0.0,0.0,0.0,20981,11182,30591,48108,39077,2
0.0,0.0,0.0,20981,11157,30591,48108,38995,2
0.0,0.0,0.0,21002,11121,30653,48163,38871,2
0.0,0.0,0.0,21064,11084,30591,48108,38912,2
0.0,0.0,0.0,21125,11072,30591,48108,38995,2
0.0,0.0,0.0,21125,11060,30622,48163,38748,2
0.0,0.0,0.0,21187,11060,30561,48054,38748,2
0.0,0.0,0.0,21208,11024,30499,47945,38748,2
0.0,0.0,0.0,21229,11024,30561,48000,38100,2
0.0,0.0,0.0,21208,11024,30499,48000,38019,2
0.0,0.0,0.0,21208,11024,30438,47945,37820,2
0.0,0.0,0.0,21208,11060,30469,47891,37741,2
0.0,0.0,0.0,21208,11048,30408,47891,37543,2
0.0,0.0,0.0,21167,11084,30377,47783,37543,2
0.0,0.0,0.0,21167,11109,30377,47783,37543,2
0.0,0.0,0.0,21125,11157,30347,47783,37543,2
0.0,0.0,0.0,21167,11170,30286,47783,37386,2
0.0,0.0,0.0,21146,11157,30347,47837,37386,2
0.0,0.0,0.0,21167,11206,30286,47729,37347,2
0.0,0.0,0.0,21105,11219,30347,47567,37386,2
0.0,0.0,0.0,21125,11280,30317,47675,37465,2
0.0,0.0,0.0,21125,11304,30286,47567,37504,2
0.0,0.0,0.0,21125,11304,30226,47567,37543,2
0.0,0.0,0.0,21146,11304,30226,47460,37583,2
0.0,0.0,0.0,21125,11354,30226,47621,37504,2
0.0,0.0,0.0,21125,11354,30286,47460,37465,2
0.0,0.0,0.0,21105,11354,30286,47460,37465,2
0.0,0.0,0.0,21125,11403,30286,47567,37504,2
0.0,0.0,0.0,21064,11403,30317,47460,37426,2
0.0,0.0,0.0,21125,11453,30317,47513,37386,2
0.0,0.0,0.0,21167,11428,30256,47513,37308,2
0.0,0.0,0.0,21208,11255,30226,47513,37230,2
0.0,0.0,0.0,21333,11182,30165,47406,37230,2
0.0,0.0,0.0,21395,11133,30347,47353,37191,2
0.0,0.0,0.0,21375,11109,30256,47406,37075,2
0.0,0.0,0.0,21291,11072,30256,47299,36998,2
0.0,0.0,0.0,21333,11072,30286,47246,36920,2
0.0,0.0,0.0,21354,11060,30286,47193,36843,2
0.0,0.0,0.0,21312,11060,30256,46981,36805,2
0.0,0.0,0.0,21291,11012,30226,47034,36767,2
0.0,0.0,0.0,21291,11012,30165,47034,36767,2
0.0,0.0,0.0,21229,10987,30195,47034,36767,2
0.0,0.0,0.0,21208,10867,30226,47034,36690,2
0.0,0.0,0.0,21208,10771,30165,46928,36690,2
0.0,0.0,0.0,21043,10700,30045,46613,36728,2
0.0,0.0,0.0,20981,10712,29955,46613,36690,2
0.0,0.0,0.0,20961,10748,29865,46509,36576,2
0.0,0.0,0.0,20981,10748,29865,46561,36690,2
0.0,0.0,0.0,20940,10748,29925,46509,36538,2
0.0,0.0,0.0,20961,10819,29805,46457,36652,2
0.0,0.0,0.0,20920,10915,29805,46457,36652,2
0.0,0.0,0.0,20961,10999,29835,46509,36499,2
0.0,0.0,0.0,20961,11060,29805,46405,36690,2
0.0,0.0,0.0,20940,11133,29865,46405,36690,2
0.0,0.0,0.0,20899,11182,29835,46457,36614,2
0.0,0.0,0.0,20879,11182,29925,46405,36614,2
0.0,0.0,0.0,20879,11219,29865,46301,36538,2
0.0,0.0,0.0,20879,11231,29865,46301,36499,2
0.0,0.0,0.0,20838,11255,29895,46353,36614,2
0.0,0.0,0.0,20899,11304,29865,46301,36538,2
0.0,0.0,0.0,20838,11317,29865,46198,36538,2
0.0,0.0,0.0,20818,11329,29895,46249,36462,2
0.0,0.0,0.0,20879,11354,29865,46249,36538,2
0.0,0.0,0.0,20879,11317,29805,46353,36462,2
0.0,0.0,0.0,20838,11354,29865,46249,36462,2
0.0,0.0,0.0,20838,11354,29865,46095,36424,2
0.0,0.0,0.0,20818,11366,29865,46198,36499,2
0.0,0.0,0.0,20838,11366,29865,46249,36386,2
0.0,0.0,0.0,20859,11379,29895,46198,36462,2
0.0,0.0,0.0,20838,11379,29865,46146,36462,2
0.0,0.0,0.0,20879,11416,29895,46198,36424,2
0.0,0.0,0.0,20798,11403,29865,46198,36462,2
0.0,0.0,0.0,20757,11453,29925,46198,36386,2
0.0,0.0,0.0,20798,11440,29865,46146,36499,2
0.0,0.0,0.0,20798,11453,29865,45992,36462,2
0.0,0.0,0.0,20777,11453,29895,46198,36310,2
0.0,0.0,0.0,20798,11453,29895,46095,36348,2
0.0,0.0,0.0,20838,11453,29865,46095,36462,2
0.0,0.0,0.0,20757,11428,29895,46198,36348,2
0.0,0.0,0.0,20798,11428,29865,46198,36386,2
0.0,0.0,0.0,20777,11403,29925,46146,36348,2
0.0,0.0,0.0,20777,11416,29865,46249,36310,2
0.0,0.0,0.0,20798,11403,29865,46249,36348,2
0.0,0.0,0.0,20798,11428,29805,46249,36310,2
0.0,0.0,0.0,20798,11478,29865,46095,36348,2
0.0,0.0,0.0,20798,11453,29865,46198,36272,2
0.0,0.0,0.0,20757,11465,29895,46095,36424,2
0.0,0.0,0.0,20818,11465,29865,46095,36386,2
0.0,0.0,0.0,20757,11465,29865,46249,36197,2
0.0,0.0,0.0,20798,11465,29805,46146,36386,2
0.0,0.0,0.0,20798,11503,29865,46095,36424,2
0.0,0.0,0.0,20737,11503,29865,46095,36386,2
0.0,0.0,0.0,20798,11503,29895,46095,36424,2
0.0,0.0,0.0,20757,11503,29865,45992,36348,2
0.0,0.0,0.0,20798,11503,29805,46043,36310,2
0.0,0.0,0.0,20757,11428,29805,46095,36235,2
0.0,0.0,0.0,20818,11379,29746,46043,36272,2
0.0,0.0,0.0,20879,11317,29746,45992,36160,2
0.0,0.0,0.0,20838,11255,29746,45992,36310,2
0.0,0.0,0.0,20859,11219,29686,45838,36235,2
0.0,0.0,0.0,20859,11206,29657,45992,36197,2
0.0,0.0,0.0,20838,11182,29627,45889,36160,2
0.0,0.0,0.0,20859,11157,29686,45941,36122,2
0.0,0.0,0.0,20838,11157,29627,45889,36160,2
0.0,0.0,0.0,20920,11157,29627,45889,36160,2
0.0,0.0,0.0,20961,11072,29657,45889,36085,2
0.0,0.0,0.0,20961,11060,29568,45838,36122,2
0.0,0.0,0.0,21105,11048,29627,45838,36085,2
0.0,0.0,0.0,21125,11060,29627,45838,36010,2
0.0,0.0,0.0,21146,11060,29538,45838,35972,2
0.0,0.0,0.0,21146,11060,29509,45685,36010,2
0.0,0.0,0.0,21125,11060,29450,45787,35935,2
0.0,0.0,0.0,21064,11084,29450,45685,35935,2
0.0,0.0,0.0,21084,11072,29391,45736,36085,2
0.0,0.0,0.0,21187,11084,29421,45787,36310,2
0.0,0.0,0.0,21208,11072,29421,46095,36348,2
0.0,0.0,0.0,21208,11036,29538,45992,36462,2
0.0,0.0,0.0,21208,11036,29450,45992,36499,2
0.0,0.0,0.0,21270,11012,29509,45992,36310,2
0.0,0.0,0.0,21250,11024,29391,45889,36235,2
0.0,0.0,0.0,21229,11012,29391,45787,36197,2
0.0,0.0,0.0,21291,11024,29391,45992,36085,2
0.0,0.0,0.0,21208,11024,29391,45736,36160,2
0.0,0.0,0.0,21229,11024,29333,45736,35972,2
0.0,0.0,0.0,21229,11024,29333,45635,36010,2
0.0,0.0,0.0,21208,11024,29391,45685,36010,2
0.0,0.0,0.0,21229,11036,29391,45685,36010,2
0.0,0.0,0.0,21208,11036,29333,45787,35898,2
0.0,0.0,0.0,21250,11060,29333,45635,35972,2
0.0,0.0,0.0,21208,11036,29274,45685,36047,2
0.0,0.0,0.0,21208,11072,29274,45635,35861,2
0.0,0.0,0.0,21146,11109,29274,45685,35935,2
0.0,0.0,0.0,21167,11121,29333,45584,35898,2
0.0,0.0,0.0,21125,11133,29245,45635,35787,2
0.0,0.0,0.0,21208,11109,29304,45483,35898,2
0.0,0.0,0.0,21167,11109,29362,45483,35861,2
0.0,0.0,0.0,21167,11060,29274,45584,35935,2
0.0,0.0,0.0,21250,11036,29245,45533,35861,2
0.0,0.0,0.0,21291,11012,29158,45483,35861,2
0.0,0.0,0.0,21312,11012,29274,45483,35787,2
0.0,0.0,0.0,21312,10975,29274,45584,35712,2
0.0,0.0,0.0,21375,10963,29274,45432,35749,2
0.0,0.0,0.0,21375,10939,29216,45382,35712,2
0.0,0.0,0.0,21375,10915,29158,45382,35712,2
0.0,0.0,0.0,21375,10915,29158,45331,35712,2
0.0,0.0,0.0,21375,10915,29071,45281,35712,2
0.0,0.0,0.0,21395,10939,29129,45382,35749,2
0.0,0.0,0.0,21312,10939,29129,45231,35749,2
0.0,0.0,0.0,21375,10939,29100,45281,35639,2
0.0,0.0,0.0,21354,10927,29100,45281,35712,2
0.0,0.0,0.0,21291,10939,29042,45181,35749,2
0.0,0.0,0.0,21291,10975,29013,45281,35565,2
0.0,0.0,0.0,21291,11012,29100,45382,35712,2
0.0,0.0,0.0,21250,11048,29013,45231,35676,2
0.0,0.0,0.0,21187,11109,29042,45181,35749,2
0.0,0.0,0.0,21167,11109,29042,45231,35639,2
0.0,0.0,0.0,21208,11109,29071,45281,35602,2
0.0,0.0,0.0,21146,11109,29042,45181,35712,2
0.0,0.0,0.0,21208,11109,29071,45181,35639,2
0.0,0.0,0.0,21125,11072,28984,45131,35676,2
0.0,0.0,0.0,21125,11109,29071,45131,35602,2
0.0,0.0,0.0,21146,11084,29071,45181,35492,2
0.0,0.0,0.0,21146,11084,29042,45081,35602,2
0.0,0.0,0.0,21125,11157,29042,45131,35602,2
0.0,0.0,0.0,21125,11231,29042,45081,35602,2
0.0,0.0,0.0,21084,11255,29100,45231,35565,2
0.0,0.0,0.0,21084,11255,29100,45181,35602,2
0.0,0.0,0.0,21043,11255,29100,45181,35565,2
0.0,0.0,0.0,21084,11268,29100,45081,35639,2
0.0,0.0,0.0,21064,11231,29071,45081,35565,2
0.0,0.0,0.0,21084,11255,29042,45081,35565,2
0.0,0.0,0.0,21064,11255,29042,45081,35602,2
0.0,0.0,0.0,21064,11255,28984,45081,35602,2
0.0,0.0,0.0,21022,11231,29100,44981,35528,2
0.0,0.0,0.0,21043,11255,29042,44981,35602,2
0.0,0.0,0.0,21002,11231,29100,45031,35565,2
0.0,0.0,0.0,21084,11354,29158,44981,35492,2
0.0,0.0,0.0,21043,11329,29158,44981,35528,2
0.0,0.0,0.0,21002,11304,29158,45031,35565,2
0.0,0.0,0.0,21084,11255,29100,44981,35492,2
0.0,0.0,0.0,21105,11170,29100,45131,35565,2
0.0,0.0,0.0,21125,11084,29042,44931,35528,2
0.0,0.0,0.0,21043,11012,29042,44782,35492,2
0.0,0.0,0.0,21022,11012,29071,44881,35455,2
0.0,0.0,0.0,21084,11012,28984,44832,35492,2
0.0,0.0,0.0,21043,11012,28984,44881,35382,2
0.0,0.0,0.0,21043,11060,28984,44832,35492,2
0.0,0.0,0.0,20981,11012,29042,44881,35418,2
0.0,0.0,0.0,21022,11012,28898,44782,35418,2
0.0,0.0,0.0,20981,11060,28927,44683,35418,2
0.0,0.0,0.0,20981,11072,28927,44782,35382,2
0.0,0.0,0.0,20981,11072,28869,44683,35492,2
0.0,0.0,0.0,20961,11109,28927,44782,35418,2
0.0,0.0,0.0,20961,11157,28955,44683,35382,2
0.0,0.0,0.0,20961,11182,28927,44782,35345,2
0.0,0.0,0.0,20981,11206,28984,44683,35309,2
0.0,0.0,0.0,20899,11255,29042,44683,35309,2
0.0,0.0,0.0,20879,11255,29071,44634,35418,2
0.0,0.0,0.0,20879,11280,29158,44683,35345,2
0.0,0.0,0.0,20920,11268,29071,44585,35418,2
0.0,0.0,0.0,20879,11255,29042,44782,35272,2
0.0,0.0,0.0,20899,11206,29013,44683,35309,2
0.0,0.0,0.0,20981,11231,29071,44683,35345,2
0.0,0.0,0.0,20961,11206,29042,44683,35199,2
0.0,0.0,0.0,20961,11219,29042,44585,35272,2
0.0,0.0,0.0,20961,11280,29042,44634,35272,2
0.0,0.0,0.0,20940,11304,29042,44733,35163,2
0.0,0.0,0.0,20961,11304,29042,44585,35272,2
0.0,0.0,0.0,20940,11304,29071,44683,35272,2
0.0,0.0,0.0,20899,11304,29071,44585,35236,2
0.0,0.0,0.0,20899,11304,29042,44634,35272,2
0.0,0.0,0.0,20879,11317,29013,44487,35199,2
0.0,0.0,0.0,20899,11329,29042,44634,35127,2
0.0,0.0,0.0,20899,11354,29042,44585,35199,2
0.0,0.0,0.0,20879,11329,29042,44683,35272,2
0.0,0.0,0.0,20899,11354,29071,44683,35163,2
0.0,0.0,0.0,20879,11403,29042,44536,35199,2
0.0,0.0,0.0,20920,11379,29042,44634,35163,2
0.0,0.0,0.0,20879,11379,29100,44487,35199,2
0.0,0.0,0.0,20899,11379,29042,44536,35127,2
0.0,0.0,0.0,20879,11354,29042,44585,35272,2
0.0,0.0,0.0,20879,11255,28984,44487,35272,2
0.0,0.0,0.0,20920,11206,28984,44634,35127,2
0.0,0.0,0.0,20961,11170,28984,44487,35272,2
0.0,0.0,0.0,20981,11133,28927,44585,35127,2
0.0,0.0,0.0,20961,11133,28927,44438,35272,2
0.0,0.0,0.0,20961,11109,28869,44438,35199,2
0.0,0.0,0.0,21043,11121,28927,44438,35091,2
0.0,0.0,0.0,20961,11109,28898,44487,35055,2
0.0,0.0,0.0,20981,11109,28898,44389,35091,2
0.0,0.0,0.0,20981,11060,28869,44340,35199,2
0.0,0.0,0.0,20961,11072,28869,44389,35055,2
0.0,0.0,0.0,21022,11060,28869,44487,35055,2
0.0,0.0,0.0,20961,11060,28812,44487,35055,2
0.0,0.0,0.0,20961,11084,28840,44340,35163,2
0.0,0.0,0.0,20981,11072,28869,44487,35163,2
0.0,0.0,0.0,20920,11072,28898,44438,35127,2
0.0,0.0,0.0,20961,11072,28927,44536,34982,2
0.0,0.0,0.0,20920,11109,28869,44487,35127,2
0.0,0.0,0.0,20920,11109,28840,44340,35127,2
0.0,0.0,0.0,20899,11109,28869,44389,35091,2
0.0,0.0,0.0,20879,11133,28927,44438,34982,2
0.0,0.0,0.0,20920,11072,28927,44389,35055,2
0.0,0.0,0.0,20940,11060,28869,44389,35055,2
0.0,0.0,0.0,20879,11060,28898,44487,35055,2
0.0,0.0,0.0,20961,11036,28869,44389,35199,2
0.0,0.0,0.0,20961,11060,28869,44389,35163,2
0.0,0.0,0.0,20961,11060,28869,44438,35055,2
0.0,0.0,0.0,20920,11060,28840,44291,35018,2
0.0,0.0,0.0,20961,11072,28812,44389,34982,2
0.0,0.0,0.0,20961,11072,28812,44389,35055,2
0.0,0.0,0.0,20899,11109,28898,44389,34982,2
0.0,0.0,0.0,20920,11121,28812,44438,35091,2
0.0,0.0,0.0,20899,11157,28898,44487,35055,2
0.0,0.0,0.0,20879,11182,28898,44487,35055,2
0.0,0.0,0.0,20879,11194,28955,44340,35055,2
0.0,0.0,0.0,20899,11182,28984,44487,35055,2
0.0,0.0,0.0,20899,11182,28955,44438,35018,2
0.0,0.0,0.0,20940,11182,28984,44487,34946,2
0.0,0.0,0.0,20920,11182,28927,44291,35055,2
0.0,0.0,0.0,20961,11182,28984,44438,34982,2
0.0,0.0,0.0,21167,11206,28984,44438,35018,2
0.0,0.0,0.0,21084,11206,28984,44487,34982,2
0.0,0.0,0.0,21002,11206,29042,44585,34982,2
0.0,0.0,0.0,21064,11206,29013,44487,35018,2
0.0,0.0,0.0,21125,11206,29100,44585,35055,2
0.0,0.0,0.0,21208,11170,29071,44585,35055,2
0.0,0.0,0.0,21208,11182,29100,44585,35163,2
0.0,0.0,0.0,21229,11206,29042,44438,35163,2
0.0,0.0,0.0,21146,11206,29071,44585,34982,2
0.0,0.0,0.0,21208,11231,29042,44487,34982,2
0.0,0.0,0.0,21208,11255,29100,44487,35018,2
0.0,0.0,0.0,21208,11268,29071,44389,35127,2
0.0,0.0,0.0,21167,11268,29100,44389,34910,2
0.0,0.0,0.0,21125,11354,29100,44487,35018,2
0.0,0.0,0.0,21125,11354,29100,44438,34910,2
0.0,0.0,0.0,21125,11329,29042,44242,35018,2
0.0,0.0,0.0,21125,11268,29071,44389,34982,2
0.0,0.0,0.0,21125,11255,29042,44389,34839,2
0.0,0.0,0.0,21167,11255,28984,44242,34982,2
0.0,0.0,0.0,21146,11255,28984,44291,35018,2
0.0,0.0,0.0,21064,11255,29042,44389,34839,2
0.0,0.0,0.0,21125,11255,28927,44242,34767,2
0.0,0.0,0.0,21064,11255,28984,44291,34874,2
0.0,0.0,0.0,21043,11255,28955,44291,34839,2
0.0,0.0,0.0,21043,11280,29042,44242,34839,2
0.0,0.0,0.0,21125,11255,28984,44389,34767,2
0.0,0.0,0.0,21084,11280,29042,44340,34839,2
0.0,0.0,0.0,21084,11268,28984,44242,34767,2
0.0,0.0,0.0,21084,11280,28927,44389,34839,2
0.0,0.0,0.0,21064,11292,29042,44291,34839,2
0.0,0.0,0.0,21022,11280,29042,44291,34839,2
0.0,0.0,0.0,20961,11268,28984,44340,34874,2
0.0,0.0,0.0,20940,11268,28984,44291,34874,2
0.0,0.0,0.0,20899,11255,28984,44487,34874,2
0.0,0.0,0.0,20899,11206,28955,44389,34910,2
0.0,0.0,0.0,20961,11157,28955,44389,34946,2
0.0,0.0,0.0,20961,11109,28869,44389,34839,2
0.0,0.0,0.0,20961,11121,28869,44291,34982,2
0.0,0.0,0.0,20961,11109,28955,44389,34874,2
0.0,0.0,0.0,20981,11109,28869,44389,34767,2
0.0,0.0,0.0,20961,11109,28840,44193,34767,2
0.0,0.0,0.0,20961,11182,28927,44242,34767,2
0.0,0.0,0.0,20920,11182,28898,44291,34839,2
0.0,0.0,0.0,20981,11206,28812,44291,35055,2
0.0,0.0,0.0,21146,11206,28840,44487,35272,2
0.0,0.0,0.0,21146,11231,28812,44634,35236,2
0.0,0.0,0.0,21064,11304,28927,44487,35236,2
0.0,0.0,0.0,21043,11317,28984,44487,35055,2
0.0,0.0,0.0,21043,11304,29042,44389,34946,2
0.0,0.0,0.0,21064,11341,29042,44389,34910,2
0.0,0.0,0.0,21084,11317,29013,44389,34946,2
0.0,0.0,0.0,20981,11354,29071,44242,34946,2
0.0,0.0,0.0,21043,11403,29042,44291,34982,2
0.0,0.0,0.0,21043,11428,29100,44291,34910,2
0.0,0.0,0.0,21043,11416,29071,44291,34982,2
0.0,0.0,0.0,21043,11428,29129,44340,34910,2
0.0,0.0,0.0,21043,11453,29100,44340,34946,2
0.0,0.0,0.0,20981,11453,29071,44389,34910,2
0.0,0.0,0.0,20961,11453,29100,44291,34910,2
0.0,0.0,0.0,21002,11453,29129,44291,34982,2
0.0,0.0,0.0,20981,11478,29158,44291,34946,2
0.0,0.0,0.0,20981,11490,29158,44389,34982,2
0.0,0.0,0.0,20961,11465,29100,44291,34910,2
0.0,0.0,0.0,20981,11503,29071,44193,34839,2
0.0,0.0,0.0,20981,11478,29100,44340,34839,2
0.0,0.0,0.0,20961,11465,29100,44242,34839,2
0.0,0.0,0.0,20981,11503,29100,44291,34982,2
0.0,0.0,0.0,21002,11503,29042,44389,34910,2
0.0,0.0,0.0,20961,11503,29100,44193,34839,2
0.0,0.0,0.0,20961,11515,29100,44242,34839,2
0.0,0.0,0.0,20961,11478,29071,44291,34982,2
0.0,0.0,0.0,21002,11403,28984,44193,34874,2
0.0,0.0,0.0,20981,11354,28984,44242,34839,2
0.0,0.0,0.0,21022,11317,29013,44242,34874,2
0.0,0.0,0.0,21022,11304,28927,44291,34910,2
0.0,0.0,0.0,20981,11304,28955,44193,34839,2
0.0,0.0,0.0,21043,11280,28869,44291,35018,2
0.0,0.0,0.0,20961,11304,28927,44193,34910,2
0.0,0.0,0.0,20981,11304,28927,44242,34839,2
0.0,0.0,0.0,20981,11268,28984,44340,34982,2
0.0,0.0,0.0,20940,11255,28955,44389,35018,2
0.0,0.0,0.0,20961,11206,28955,44683,34982,2
0.0,0.0,0.0,20961,11206,28955,44585,35055,2
0.0,0.0,0.0,20961,11219,28927,44634,35127,2
0.0,0.0,0.0,20940,11206,28927,44585,35055,2
0.0,0.0,0.0,20981,11206,28955,44585,35127,2
0.0,0.0,0.0,20961,11219,28955,44536,35127,2
0.0,0.0,0.0,20920,11231,28927,44585,35091,2
0.0,0.0,0.0,20961,11255,28955,44487,35163,2
0.0,0.0,0.0,20879,11255,28898,44585,35055,2
0.0,0.0,0.0,20899,11268,28927,44389,35055,2
0.0,0.0,0.0,20899,11304,28840,44291,35127,2
0.0,0.0,0.0,20879,11304,28927,44438,35055,2
0.0,0.0,0.0,20879,11317,28898,44389,35127,2
0.0,0.0,0.0,20879,11304,28927,44389,35091,2
0.0,0.0,0.0,20838,11304,28927,44242,35018,2
0.0,0.0,0.0,20838,11317,28869,44291,35127,2
0.0,0.0,0.0,20879,11304,28840,44193,35055,2
0.0,0.0,0.0,20818,11317,28869,44242,35127,2
0.0,0.0,0.0,20838,11354,28869,44291,35055,2
0.0,0.0,0.0,20818,11329,28927,44193,35055,2
0.0,0.0,0.0,20838,11354,28927,44242,35018,2
0.0,0.0,0.0,20879,11354,28927,44242,34946,2
0.0,0.0,0.0,20879,11354,28898,44291,34982,2
0.0,0.0,0.0,20818,11354,28927,44193,35018,2
0.0,0.0,0.0,20879,11403,28898,44291,34982,2
0.0,0.0,0.0,20879,11403,28869,44193,34946,2
0.0,0.0,0.0,20818,11403,28927,44242,34910,2
0.0,0.0,0.0,20838,11403,28955,44193,34910,2
0.0,0.0,0.0,20818,11379,28869,44193,34910,2
0.0,0.0,0.0,20818,11379,28869,44193,34982,2
0.0,0.0,0.0,20838,11403,28869,44242,34946,2
0.0,0.0,0.0,20818,11403,28898,44193,34982,2
0.0,0.0,0.0,20777,11379,28955,44193,34946,2
0.0,0.0,0.0,20798,11366,28927,44193,34982,2
0.0,0.0,0.0,20818,11379,28927,44048,34874,2
0.0,0.0,0.0,20798,11403,28898,44193,34910,2
0.0,0.0,0.0,20798,11379,28869,44193,34910,2
0.0,0.0,0.0,20818,11354,28898,44193,34910,2
0.0,0.0,0.0,20798,11255,28869,44242,34874,2
0.0,0.0,0.0,20879,11182,28869,44291,34874,2
0.0,0.0,0.0,20879,11121,28812,44242,34874,2
0.0,0.0,0.0,20920,11109,28812,44291,34874,2
0.0,0.0,0.0,20879,11096,28812,44242,34874,2
0.0,0.0,0.0,20961,11084,28812,44291,34839,2
0.0,0.0,0.0,20899,11072,28812,44096,34839,2
0.0,0.0,0.0,20961,11084,28812,44193,34910,2
0.0,0.0,0.0,20981,11060,28754,44193,34910,2
0.0,0.0,0.0,20981,11048,28812,44193,34839,2
0.0,0.0,0.0,20981,11024,28783,44291,34839,2
0.0,0.0,0.0,20981,11024,28812,44291,34767,2
0.0,0.0,0.0,20961,11012,28754,44193,34803,2
0.0,0.0,0.0,20981,10999,28754,44193,34839,2
0.0,0.0,0.0,21043,11012,28812,44242,34731,2
0.0,0.0,0.0,21064,10987,28869,44242,34731,2
0.0,0.0,0.0,21022,10939,28840,44193,34767,2
0.0,0.0,0.0,20961,10831,28840,44242,34839,2
0.0,0.0,0.0,20961,10771,28840,44193,34731,2
0.0,0.0,0.0,20961,10748,28812,44096,34874,2
0.0,0.0,0.0,20920,10748,28812,44096,34767,2
0.0,0.0,0.0,20961,10771,28754,44096,34767,2
0.0,0.0,0.0,20961,10771,28754,44048,34767,2
0.0,0.0,0.0,20981,10748,28783,44048,34731,2
0.0,0.0,0.0,20940,10783,28697,44000,34731,2
0.0,0.0,0.0,20920,10771,28697,44000,34696,2
0.0,0.0,0.0,20899,10771,28726,44048,34767,2
0.0,0.0,0.0,20879,10795,28783,44193,34767,2
0.0,0.0,0.0,20838,10771,28697,44096,34696,2
0.0,0.0,0.0,20798,10819,28812,44193,34839,2
0.0,0.0,0.0,20798,10867,28754,44193,34874,2
0.0,0.0,0.0,20818,10903,28726,44096,34839,2
0.0,0.0,0.0,20818,10951,28812,44096,34767,2
0.0,0.0,0.0,20777,11012,28812,44145,34839,2
0.0,0.0,0.0,20757,11048,28812,44000,34767,2
0.0,0.0,0.0,20757,11060,28869,44096,34696,2
0.0,0.0,0.0,20757,11072,28869,44096,34803,2
0.0,0.0,0.0,20798,11060,28812,44000,34696,2
0.0,0.0,0.0,20798,11072,28812,44096,34624,2
0.0,0.0,0.0,20798,11084,28869,44000,34696,2
0.0,0.0,0.0,20716,11109,28812,44000,34660,2
0.0,0.0,0.0,20757,11133,28812,44048,34624,2
0.0,0.0,0.0,20777,11157,28812,44000,34696,2
0.0,0.0,0.0,20737,11157,28840,44145,34696,2
0.0,0.0,0.0,20798,11157,28869,44048,34660,2
0.0,0.0,0.0,20696,11170,28869,44000,34731,2
0.0,0.0,0.0,20737,11182,28812,44000,34731,2
0.0,0.0,0.0,20716,11206,28840,44000,34696,2
0.0,0.0,0.0,20737,11231,28869,44000,34696,2
0.0,0.0,0.0,20737,11219,28869,44048,34731,2
0.0,0.0,0.0,20716,11206,28869,44048,34696,2
0.0,0.0,0.0,20716,11231,28927,44048,34660,2
0.0,0.0,0.0,20798,11255,28927,44048,34696,2
0.0,0.0,0.0,20798,11243,28869,44096,34624,2
0.0,0.0,0.0,20798,11268,28869,44048,34696,2
0.0,0.0,0.0,20737,11255,28927,44048,34589,2
0.0,0.0,0.0,20757,11231,28927,44048,34660,2
0.0,0.0,0.0,20737,11255,28927,44193,34696,2
0.0,0.0,0.0,20737,11268,28898,44000,34696,2
0.0,0.0,0.0,20716,11268,28812,44048,34624,2
0.0,0.0,0.0,20737,11268,28898,44048,34624,2
0.0,0.0,0.0,20737,11280,28840,44000,34696,2
0.0,0.0,0.0,20716,11280,28812,44000,34624,2
0.0,0.0,0.0,20757,11268,28840,44000,34731,2
0.0,0.0,0.0,20716,11268,28840,44000,34696,2
0.0,0.0,0.0,20737,11304,28869,44000,34660,2
0.0,0.0,0.0,20716,11280,28812,44000,34731,2
0.0,0.0,0.0,20737,11268,28840,44000,34696,2
0.0,0.0,0.0,20716,11280,28812,44000,34624,2
0.0,0.0,0.0,20716,11255,28840,44000,34696,2
0.0,0.0,0.0,20757,11255,28812,43903,34696,2
0.0,0.0,0.0,20676,11268,28869,44048,34518,2
0.0,0.0,0.0,20696,11304,28783,43951,34696,2
0.0,0.0,0.0,20737,11280,28869,44096,34696,2
0.0,0.0,0.0,20676,11304,28812,44000,34589,2
0.0,0.0,0.0,20716,11304,28869,44096,34624,2
0.0,0.0,0.0,20696,11341,28812,44000,34660,2
0.0,0.0,0.0,20716,11354,28869,43951,34624,2
0.0,0.0,0.0,20676,11354,28840,44000,34624,2
0.0,0.0,0.0,20696,11354,28812,44048,34589,2
0.0,0.0,0.0,20656,11366,28898,44048,34553,2
0.0,0.0,0.0,20676,11366,28898,44000,34589,2
0.0,0.0,0.0,20676,11354,28812,44000,34624,2
0.0,0.0,0.0,20716,11317,28812,43951,34624,2
0.0,0.0,0.0,20696,11317,28869,43951,34553,2
0.0,0.0,0.0,20636,11304,28812,44000,34553,2
0.0,0.0,0.0,20716,11304,28812,44000,34553,2
0.0,0.0,0.0,20716,11304,28812,44000,34624,2
0.0,0.0,0.0,20636,11329,28812,44000,34553,2
0.0,0.0,0.0,20696,11304,28812,44000,34589,2
0.0,0.0,0.0,20676,11317,28754,43855,34482,2
0.0,0.0,0.0,20716,11329,28812,43903,34589,2
0.0,0.0,0.0,20676,11304,28783,44048,34553,2
0.0,0.0,0.0,20676,11304,28754,43903,34518,2
0.0,0.0,0.0,20656,11304,28754,43855,34553,2
0.0,0.0,0.0,20615,11304,28726,43903,34624,2
0.0,0.0,0.0,20636,11317,28783,43807,34553,2
0.0,0.0,0.0,20676,11329,28726,43903,34553,2
0.0,0.0,0.0,20676,11317,28840,44000,34624,2
0.0,0.0,0.0,20656,11329,28783,44048,34482,2
0.0,0.0,0.0,20676,11317,28812,43951,34553,2
0.0,0.0,0.0,20615,11255,28726,43855,34482,2
0.0,0.0,0.0,20656,11194,28726,43855,34589,2
0.0,0.0,0.0,20696,11145,28783,43855,34553,2
0.0,0.0,0.0,20737,11109,28726,43807,34589,2
0.0,0.0,0.0,20737,11060,28697,43807,34553,2
0.0,0.0,0.0,20737,11060,28726,43663,34447,2
0.0,0.0,0.0,20777,11060,28669,43711,34482,2
0.0,0.0,0.0,20757,11036,28697,43711,34553,2
0.0,0.0,0.0,20818,11060,28640,43711,34553,2
0.0,0.0,0.0,20737,11060,28640,43711,34447,2
0.0,0.0,0.0,20798,11084,28612,43711,34553,2
0.0,0.0,0.0,20716,11096,28583,43711,34553,2
0.0,0.0,0.0,20757,11133,28527,43711,34447,2
0.0,0.0,0.0,20716,11157,28612,43807,34412,2
0.0,0.0,0.0,20716,11182,28612,43807,34447,2
0.0,0.0,0.0,20716,11219,28612,43807,34482,2
0.0,0.0,0.0,20716,11231,28640,43807,34482,2
0.0,0.0,0.0,20716,11206,28640,43711,34482,2
0.0,0.0,0.0,20676,11182,28583,43759,34482,2
0.0,0.0,0.0,20716,11157,28583,43807,34518,2
0.0,0.0,0.0,20716,11157,28555,43759,34482,2
0.0,0.0,0.0,20696,11157,28527,43711,34553,2
0.0,0.0,0.0,20716,11121,28527,43711,34518,2
0.0,0.0,0.0,20737,11121,28498,43759,34447,2
0.0,0.0,0.0,20757,11084,28470,43663,34412,2
0.0,0.0,0.0,20838,11060,28583,43711,34553,2
0.0,0.0,0.0,20798,11024,28640,43807,34447,2
0.0,0.0,0.0,20838,11036,28640,43807,34341,2
0.0,0.0,0.0,20838,11060,28583,43807,34341,2
0.0,0.0,0.0,20798,11121,28470,43807,34412,2
0.0,0.0,0.0,20716,11206,28527,43711,34412,2
0.0,0.0,0.0,20696,11255,28612,43663,34447,2
0.0,0.0,0.0,20676,11317,28527,43807,34482,2
0.0,0.0,0.0,20676,11329,28583,43711,34482,2
0.0,0.0,0.0,20595,11329,28612,43807,34412,2
0.0,0.0,0.0,20676,11329,28583,43759,34412,2
0.0,0.0,0.0,20615,11354,28612,43567,34412,2
0.0,0.0,0.0,20636,11354,28583,43855,34412,2
0.0,0.0,0.0,20595,11354,28612,43711,34447,2
0.0,0.0,0.0,20636,11354,28583,43615,34447,2
0.0,0.0,0.0,20636,11255,28498,43615,34447,2
0.0,0.0,0.0,20555,11206,28527,43663,34412,2
0.0,0.0,0.0,20595,11255,28527,43615,34447,2
0.0,0.0,0.0,20595,11255,28498,43567,34482,2
0.0,0.0,0.0,20555,11304,28498,43615,34412,2
0.0,0.0,0.0,20575,11304,28527,43711,34376,2
0.0,0.0,0.0,20555,11292,28498,43807,34447,2
0.0,0.0,0.0,20575,11255,28527,43711,34341,2
0.0,0.0,0.0,20757,11182,28470,43711,34341,2
0.0,0.0,0.0,20757,11170,28612,43615,34447,2
0.0,0.0,0.0,20737,11206,28640,43615,34341,2
0.0,0.0,0.0,20757,11206,28640,43711,34412,2
0.0,0.0,0.0,20676,11206,28527,43663,34412,2
0.0,0.0,0.0,20716,11170,28470,43615,34306,2
0.0,0.0,0.0,20757,11182,28498,43663,34341,2
