GyroX,GyroY,GyroZ,Thumb,Index,Middle,Ring,Pinky,Gesture
0.0,0.0,0.0,18272,10939,9577,29274,33033,3
0.0,0.0,0.0,18236,10939,9577,29216,33033,3
0.0,0.0,0.0,18236,10939,9577,29216,33033,3
0.0,0.0,0.0,18200,10927,9577,29216,33067,3
0.0,0.0,0.0,18200,10927,9566,29245,33100,3
0.0,0.0,0.0,18254,10939,9577,29274,33067,3
0.0,0.0,0.0,18164,10939,9577,29274,33033,3
0.0,0.0,0.0,18129,10939,9577,29274,32966,3
0.0,0.0,0.0,18129,10963,9577,29333,33033,3
0.0,0.0,0.0,18147,10951,9577,29274,32966,3
0.0,0.0,0.0,18075,10963,9577,29304,33033,3
0.0,0.0,0.0,18075,10939,9577,29274,33067,3
0.0,0.0,0.0,18057,10963,9577,29333,33100,3
0.0,0.0,0.0,18057,10963,9588,29274,32966,3
0.0,0.0,0.0,18057,10963,9577,29274,33033,3
0.0,0.0,0.0,18039,10963,9577,29274,33033,3
0.0,0.0,0.0,17986,10939,9577,29274,33033,3
0.0,0.0,0.0,18004,10963,9555,29274,32966,3
0.0,0.0,0.0,17986,10963,9577,29333,33033,3
0.0,0.0,0.0,17933,10963,9577,29274,32966,3
0.0,0.0,0.0,17933,10963,9577,29274,32932,3
0.0,0.0,0.0,17915,10963,9577,29245,32999,3
0.0,0.0,0.0,17915,10939,9555,29274,33033,3
0.0,0.0,0.0,17915,10963,9577,29333,33067,3
0.0,0.0,0.0,17915,10963,9577,29274,33033,3
0.0,0.0,0.0,17880,10939,9577,29216,32966,3
0.0,0.0,0.0,17845,10963,9577,29216,32932,3
0.0,0.0,0.0,17862,10939,9577,29274,32899,3
0.0,0.0,0.0,17809,10951,9577,29216,32932,3
0.0,0.0,0.0,17809,10927,9577,29245,32966,3
0.0,0.0,0.0,17704,10915,9588,29216,33033,3
0.0,0.0,0.0,17617,10891,9588,29158,32932,3
0.0,0.0,0.0,17513,10819,9577,29129,32966,3
0.0,0.0,0.0,17374,10819,9577,29100,32765,3
0.0,0.0,0.0,17409,10819,9577,29042,32799,3
0.0,0.0,0.0,17374,10831,9577,29100,32799,3
0.0,0.0,0.0,17374,10819,9577,29071,32799,3
0.0,0.0,0.0,17392,10843,9577,29100,32799,3
0.0,0.0,0.0,17374,10831,9577,29071,32832,3
0.0,0.0,0.0,17374,10819,9577,29071,32832,3
0.0,0.0,0.0,17426,10819,9577,29100,32799,3
0.0,0.0,0.0,17374,10843,9599,29100,32765,3
0.0,0.0,0.0,17426,10867,9577,29071,32765,3
0.0,0.0,0.0,17374,10843,9577,29129,32765,3
0.0,0.0,0.0,17357,10831,9577,29100,32832,3
0.0,0.0,0.0,17357,10867,9577,29158,32765,3
0.0,0.0,0.0,17357,10855,9577,29100,32732,3
0.0,0.0,0.0,17340,10867,9577,29100,32832,3
0.0,0.0,0.0,17289,10855,9577,29158,32799,3
0.0,0.0,0.0,17306,10855,9577,29100,32765,3
0.0,0.0,0.0,17323,10867,9577,29100,32765,3
0.0,0.0,0.0,17306,10831,9577,29042,32799,3
0.0,0.0,0.0,17289,10867,9577,29071,32765,3
0.0,0.0,0.0,17289,10867,9577,29071,32866,3
0.0,0.0,0.0,17289,10867,9577,29071,32832,3
0.0,0.0,0.0,17289,10843,9577,29100,32765,3
0.0,0.0,0.0,17289,10867,9577,29042,32765,3
0.0,0.0,0.0,17289,10843,9577,29100,32832,3
0.0,0.0,0.0,17254,10867,9588,29100,32832,3
0.0,0.0,0.0,17237,10867,9577,29071,32765,3
0.0,0.0,0.0,17203,10867,9577,29100,32832,3
0.0,0.0,0.0,17254,10867,9577,29042,32732,3
0.0,0.0,0.0,17220,10867,9577,29100,32799,3
0.0,0.0,0.0,17220,10867,9577,29042,32765,3
0.0,0.0,0.0,17237,10867,9577,29071,32765,3
0.0,0.0,0.0,17220,10867,9577,29100,32765,3
0.0,0.0,0.0,17220,10867,9588,29071,32765,3
0.0,0.0,0.0,17186,10867,9577,29158,32799,3
0.0,0.0,0.0,17186,10879,9577,29100,32832,3
0.0,0.0,0.0,17152,10867,9577,29100,32765,3
0.0,0.0,0.0,17186,10891,9577,29071,32732,3
0.0,0.0,0.0,17186,10879,9577,29129,32765,3
0.0,0.0,0.0,17152,10879,9577,29071,32732,3
0.0,0.0,0.0,17186,10879,9577,29100,32799,3
0.0,0.0,0.0,17152,10867,9577,29100,32765,3
0.0,0.0,0.0,17152,10867,9577,29071,32765,3
0.0,0.0,0.0,17118,10867,9577,29042,32765,3
0.0,0.0,0.0,17101,10867,9555,29042,32732,3
0.0,0.0,0.0,17101,10867,9577,29071,32732,3
0.0,0.0,0.0,17152,10879,9577,29071,32699,3
0.0,0.0,0.0,17084,10879,9577,29158,32732,3
0.0,0.0,0.0,17118,10867,9577,29042,32699,3
0.0,0.0,0.0,17101,10891,9577,29071,32799,3
0.0,0.0,0.0,17101,10867,9577,29100,32799,3
0.0,0.0,0.0,17084,10891,9577,29071,32765,3
0.0,0.0,0.0,17084,10891,9588,29071,32765,3
0.0,0.0,0.0,17118,10891,9577,29100,32799,3
0.0,0.0,0.0,17135,10867,9577,29071,32699,3
0.0,0.0,0.0,17118,10867,9577,29100,32732,3
0.0,0.0,0.0,17135,10891,9577,29158,32765,3
0.0,0.0,0.0,17101,10879,9577,29129,32765,3
0.0,0.0,0.0,17118,10879,9577,29100,32666,3
0.0,0.0,0.0,17101,10891,9588,29158,32732,3
0.0,0.0,0.0,17152,10915,9577,29071,32765,3
0.0,0.0,0.0,17118,10903,9577,29071,32765,3
0.0,0.0,0.0,17135,10891,9577,29158,32765,3
0.0,0.0,0.0,17118,10915,9577,29100,32699,3
0.0,0.0,0.0,17323,10879,9533,29042,32799,3
0.0,0.0,0.0,17357,10891,9577,29071,32765,3
0.0,0.0,0.0,17443,10915,9577,29013,32765,3
0.0,0.0,0.0,17374,10891,9577,28984,32799,3
0.0,0.0,0.0,17426,10915,9577,28984,32765,3
0.0,0.0,0.0,17374,10915,9599,28955,32832,3
0.0,0.0,0.0,17426,10915,9577,28984,32765,3
0.0,0.0,0.0,17357,10927,9577,28955,32799,3
0.0,0.0,0.0,17357,10927,9577,29042,32832,3
0.0,0.0,0.0,17374,10915,9577,29042,32799,3
0.0,0.0,0.0,17392,10915,9588,29013,32832,3
0.0,0.0,0.0,17323,10915,9577,28984,32832,3
0.0,0.0,0.0,17323,10927,9577,28927,32832,3
0.0,0.0,0.0,17323,10927,9577,28927,32765,3
0.0,0.0,0.0,17289,10915,9588,29013,32799,3
0.0,0.0,0.0,17289,10891,9577,28984,32765,3
0.0,0.0,0.0,17289,10915,9577,28984,32765,3
0.0,0.0,0.0,17289,10939,9577,29042,32765,3
0.0,0.0,0.0,17254,10927,9577,29042,32732,3
0.0,0.0,0.0,17220,10927,9588,28984,32666,3
0.0,0.0,0.0,17237,10927,9577,28984,32765,3
0.0,0.0,0.0,17220,10939,9577,29013,32765,3
0.0,0.0,0.0,17220,10915,9577,29042,32699,3
0.0,0.0,0.0,17220,10915,9577,28955,32732,3
0.0,0.0,0.0,17220,10915,9577,28984,32666,3
0.0,0.0,0.0,17220,10915,9577,28955,32699,3
0.0,0.0,0.0,17220,10939,9577,28955,32799,3
0.0,0.0,0.0,17220,10939,9577,28927,32699,3
0.0,0.0,0.0,17220,10939,9577,28955,32666,3
0.0,0.0,0.0,17169,10927,9577,29042,32799,3
0.0,0.0,0.0,17220,10927,9577,29013,32699,3
0.0,0.0,0.0,17203,10927,9577,29042,32765,3
0.0,0.0,0.0,17186,10915,9577,28984,32732,3
0.0,0.0,0.0,17186,10927,9577,28984,32666,3
0.0,0.0,0.0,17220,10915,9577,28927,32699,3
0.0,0.0,0.0,17186,10927,9599,28984,32699,3
0.0,0.0,0.0,17169,10939,9577,28984,32765,3
0.0,0.0,0.0,17186,10927,9577,28955,32732,3
0.0,0.0,0.0,17186,10915,9577,28955,32666,3
0.0,0.0,0.0,17220,10927,9577,28898,32699,3
0.0,0.0,0.0,17186,10951,9577,28927,32633,3
0.0,0.0,0.0,17220,10951,9577,28927,32666,3
0.0,0.0,0.0,17186,10927,9588,28984,32732,3
0.0,0.0,0.0,17152,10927,9577,28927,32633,3
0.0,0.0,0.0,17186,10939,9577,28955,32666,3
0.0,0.0,0.0,17152,10963,9577,28955,32666,3
0.0,0.0,0.0,17152,10927,9577,28984,32666,3
0.0,0.0,0.0,17169,10915,9577,28927,32666,3
0.0,0.0,0.0,17152,10939,9577,28927,32633,3
0.0,0.0,0.0,17186,10963,9577,28927,32666,3
0.0,0.0,0.0,17186,10939,9577,28927,32666,3
0.0,0.0,0.0,17186,10927,9588,28955,32732,3
0.0,0.0,0.0,17186,10939,9577,28955,32666,3
0.0,0.0,0.0,17152,10927,9577,28927,32765,3
0.0,0.0,0.0,17186,10939,9588,28955,32765,3
0.0,0.0,0.0,17152,10927,9577,28927,32699,3
0.0,0.0,0.0,17152,10939,9577,28927,32699,3
0.0,0.0,0.0,17152,10939,9566,28898,32699,3
0.0,0.0,0.0,17152,10927,9577,28927,32666,3
0.0,0.0,0.0,17152,10939,9577,28927,32732,3
0.0,0.0,0.0,17152,10939,9577,28869,32633,3
0.0,0.0,0.0,17152,10939,9577,28898,32633,3
0.0,0.0,0.0,17152,10915,9577,28927,32699,3
0.0,0.0,0.0,17152,10951,9577,28869,32732,3
0.0,0.0,0.0,17152,10939,9577,28898,32666,3
0.0,0.0,0.0,17152,10963,9577,28927,32633,3
0.0,0.0,0.0,17169,10963,9577,28927,32633,3
0.0,0.0,0.0,17152,10963,9599,28927,32732,3
0.0,0.0,0.0,17152,10915,9577,28927,32699,3
0.0,0.0,0.0,17152,10939,9588,28898,32666,3
0.0,0.0,0.0,17186,10963,9577,28898,32699,3
0.0,0.0,0.0,17152,10939,9588,28927,32566,3
0.0,0.0,0.0,17135,10939,9577,28898,32633,3
0.0,0.0,0.0,17118,10927,9577,28927,32566,3
0.0,0.0,0.0,17118,10927,9577,28898,32633,3
0.0,0.0,0.0,17084,10939,9588,28840,32666,3
0.0,0.0,0.0,17118,10939,9577,28927,32699,3
0.0,0.0,0.0,17152,10963,9577,28812,32566,3
0.0,0.0,0.0,17118,10963,9566,28869,32666,3
0.0,0.0,0.0,17084,10951,9577,28927,32699,3
0.0,0.0,0.0,17101,10927,9577,28840,32765,3
0.0,0.0,0.0,17101,10927,9577,28927,32533,3
0.0,0.0,0.0,17118,10939,9577,28898,32599,3
0.0,0.0,0.0,17135,10963,9577,28812,32633,3
0.0,0.0,0.0,17084,10963,9588,28840,32566,3
0.0,0.0,0.0,17118,10939,9533,28927,32633,3
0.0,0.0,0.0,17101,10927,9577,28869,32566,3
0.0,0.0,0.0,17101,10939,9577,28927,32633,3
0.0,0.0,0.0,17118,10939,9577,28812,32566,3
0.0,0.0,0.0,17101,10939,9577,28898,32633,3
0.0,0.0,0.0,17135,10915,9555,28840,32633,3
0.0,0.0,0.0,17118,10927,9577,28927,32633,3
0.0,0.0,0.0,17101,10963,9577,28869,32666,3
0.0,0.0,0.0,17118,10915,9577,28898,32633,3
0.0,0.0,0.0,17101,10927,9577,28840,32666,3
0.0,0.0,0.0,17254,10867,9588,28812,32666,3
0.0,0.0,0.0,17186,10867,9577,28754,32633,3
0.0,0.0,0.0,17152,10855,9577,28726,32566,3
0.0,0.0,0.0,17152,10867,9599,28726,32533,3
0.0,0.0,0.0,17152,10867,9577,28754,32599,3
0.0,0.0,0.0,17118,10843,9577,28754,32566,3
0.0,0.0,0.0,17152,10867,9577,28726,32566,3
0.0,0.0,0.0,17135,10867,9577,28697,32566,3
0.0,0.0,0.0,17118,10867,9577,28697,32566,3
0.0,0.0,0.0,17101,10867,9599,28726,32633,3
0.0,0.0,0.0,17101,10867,9577,28697,32633,3
0.0,0.0,0.0,17084,10867,9577,28754,32435,3
0.0,0.0,0.0,17084,10867,9577,28726,32500,3
0.0,0.0,0.0,17101,10879,9577,28697,32533,3
0.0,0.0,0.0,17084,10867,9577,28697,32633,3
0.0,0.0,0.0,17084,10867,9577,28697,32533,3
0.0,0.0,0.0,17084,10879,9577,28697,32599,3
0.0,0.0,0.0,17067,10879,9577,28697,32533,3
0.0,0.0,0.0,17050,10879,9577,28697,32566,3
0.0,0.0,0.0,17050,10867,9577,28697,32566,3
0.0,0.0,0.0,17084,10867,9577,28726,32533,3
0.0,0.0,0.0,17067,10867,9577,28697,32533,3
0.0,0.0,0.0,17084,10879,9577,28697,32500,3
0.0,0.0,0.0,17050,10867,9577,28697,32500,3
0.0,0.0,0.0,17084,10867,9577,28726,32566,3
0.0,0.0,0.0,17084,10867,9577,28697,32500,3
0.0,0.0,0.0,17050,10867,9577,28697,32500,3
0.0,0.0,0.0,17067,10879,9577,28697,32566,3
0.0,0.0,0.0,17050,10867,9577,28669,32633,3
0.0,0.0,0.0,17067,10867,9577,28697,32599,3
0.0,0.0,0.0,17050,10867,9577,28697,32500,3
0.0,0.0,0.0,17067,10867,9577,28697,32533,3
0.0,0.0,0.0,17050,10867,9577,28669,32533,3
0.0,0.0,0.0,17067,10867,9577,28697,32566,3
0.0,0.0,0.0,17050,10891,9577,28697,32566,3
0.0,0.0,0.0,17050,10867,9577,28726,32533,3
0.0,0.0,0.0,17033,10879,9577,28697,32500,3
0.0,0.0,0.0,17033,10879,9577,28697,32500,3
0.0,0.0,0.0,17033,10867,9577,28697,32500,3
0.0,0.0,0.0,17033,10867,9577,28697,32467,3
0.0,0.0,0.0,17050,10879,9577,28640,32566,3
0.0,0.0,0.0,17016,10867,9588,28726,32533,3
0.0,0.0,0.0,17084,10903,9577,28697,32500,3
0.0,0.0,0.0,17033,10879,9577,28697,32500,3
0.0,0.0,0.0,17067,10903,9577,28726,32533,3
0.0,0.0,0.0,17118,10891,9566,28726,32533,3
0.0,0.0,0.0,17135,10891,9577,28697,32435,3
0.0,0.0,0.0,17152,10915,9577,28754,32533,3
0.0,0.0,0.0,17203,10891,9577,28726,32500,3
0.0,0.0,0.0,17203,10915,9577,28726,32402,3
0.0,0.0,0.0,17186,10915,9577,28812,32435,3
0.0,0.0,0.0,17152,10915,9577,28754,32435,3
0.0,0.0,0.0,17186,10915,9577,28754,32500,3
0.0,0.0,0.0,17186,10927,9577,28726,32369,3
0.0,0.0,0.0,17169,10939,9577,28726,32402,3
0.0,0.0,0.0,17220,10939,9577,28812,32402,3
0.0,0.0,0.0,17169,10963,9577,28812,32402,3
0.0,0.0,0.0,17220,10975,9577,28754,32500,3
0.0,0.0,0.0,17220,10963,9577,28754,32402,3
0.0,0.0,0.0,17220,10963,9577,28726,32500,3
0.0,0.0,0.0,17306,10963,9577,28697,32435,3
0.0,0.0,0.0,17374,10963,9577,28697,32402,3
0.0,0.0,0.0,17374,10963,9577,28640,32500,3
0.0,0.0,0.0,17357,10963,9577,28612,32500,3
0.0,0.0,0.0,17323,10939,9577,28612,32500,3
0.0,0.0,0.0,17323,10963,9577,28583,32467,3
0.0,0.0,0.0,17289,10963,9577,28583,32500,3
0.0,0.0,0.0,17289,10963,9577,28583,32500,3
0.0,0.0,0.0,17289,10987,9577,28583,32500,3
0.0,0.0,0.0,17289,10963,9577,28583,32467,3
0.0,0.0,0.0,17272,10963,9577,28527,32435,3
0.0,0.0,0.0,17289,10963,9577,28555,32500,3
0.0,0.0,0.0,17289,10975,9588,28527,32500,3
0.0,0.0,0.0,17289,10963,9577,28527,32500,3
0.0,0.0,0.0,17254,10975,9599,28470,32566,3
0.0,0.0,0.0,17254,10975,9577,28527,32566,3
0.0,0.0,0.0,17220,10975,9577,28498,32500,3
0.0,0.0,0.0,17220,10963,9577,28470,32500,3
0.0,0.0,0.0,17220,10963,9577,28555,32500,3
0.0,0.0,0.0,17186,10987,9577,28498,32500,3
0.0,0.0,0.0,17169,10987,9599,28527,32566,3
0.0,0.0,0.0,17152,10987,9577,28555,32533,3
0.0,0.0,0.0,17152,11012,9588,28470,32500,3
0.0,0.0,0.0,17169,11012,9588,28527,32500,3
0.0,0.0,0.0,17169,11012,9577,28498,32435,3
0.0,0.0,0.0,17152,11012,9588,28527,32467,3
0.0,0.0,0.0,17118,11012,9577,28498,32533,3
0.0,0.0,0.0,17169,11012,9577,28470,32599,3
0.0,0.0,0.0,17118,11012,9577,28527,32500,3
0.0,0.0,0.0,17118,11012,9588,28470,32467,3
0.0,0.0,0.0,17118,11012,9588,28498,32765,3
0.0,0.0,0.0,17084,11024,9577,28583,32566,3
0.0,0.0,0.0,17118,11036,9577,28555,32533,3
0.0,0.0,0.0,17101,11036,9577,28527,32533,3
0.0,0.0,0.0,17067,11024,9577,28583,32566,3
0.0,0.0,0.0,17084,11060,9577,28527,32533,3
0.0,0.0,0.0,17118,11060,9577,28583,32500,3
0.0,0.0,0.0,17067,11060,9588,28498,32467,3
0.0,0.0,0.0,17050,11060,9588,28498,32435,3
0.0,0.0,0.0,17016,11060,9577,28583,32566,3
0.0,0.0,0.0,17084,11060,9588,28527,32500,3
0.0,0.0,0.0,17050,11060,9577,28498,32467,3
0.0,0.0,0.0,17067,11060,9577,28470,32467,3
0.0,0.0,0.0,17033,11060,9577,28583,32435,3
0.0,0.0,0.0,17067,11060,9588,28498,32435,3
0.0,0.0,0.0,17033,11072,9577,28527,32435,3
0.0,0.0,0.0,17050,11084,9577,28555,32533,3
0.0,0.0,0.0,17016,11072,9577,28555,32500,3
0.0,0.0,0.0,17033,11109,9577,28555,32500,3
0.0,0.0,0.0,17033,11096,9577,28583,32533,3
0.0,0.0,0.0,17016,11072,9577,28583,32566,3
0.0,0.0,0.0,17033,11084,9577,28583,32500,3
0.0,0.0,0.0,17033,11084,9577,28527,32533,3
0.0,0.0,0.0,17050,11084,9577,28612,32467,3
0.0,0.0,0.0,17033,11109,9577,28583,32500,3
0.0,0.0,0.0,17016,11084,9577,28555,32533,3
0.0,0.0,0.0,17016,11072,9599,28527,32435,3
0.0,0.0,0.0,17016,11109,9577,28555,32566,3
0.0,0.0,0.0,16983,11096,9577,28869,32599,3
0.0,0.0,0.0,16999,11133,9577,28869,32666,3
0.0,0.0,0.0,17016,11109,9588,28840,32533,3
0.0,0.0,0.0,17033,11133,9577,28812,32599,3
0.0,0.0,0.0,17033,11157,9577,28812,32599,3
0.0,0.0,0.0,17016,11157,9577,28812,32566,3
0.0,0.0,0.0,17016,11157,9577,28726,32467,3
0.0,0.0,0.0,17016,11133,9577,28612,32500,3
0.0,0.0,0.0,17016,11157,9577,28612,32369,3
0.0,0.0,0.0,16983,11133,9588,28640,32467,3
0.0,0.0,0.0,17016,11133,9588,28583,32435,3
0.0,0.0,0.0,17033,11133,9577,28612,32435,3
0.0,0.0,0.0,17050,11157,9577,28583,32500,3
0.0,0.0,0.0,17033,11121,9577,28527,32435,3
0.0,0.0,0.0,17084,11133,9588,28555,32500,3
0.0,0.0,0.0,17084,11133,9588,28612,32566,3
0.0,0.0,0.0,17152,11157,9577,28640,32633,3
0.0,0.0,0.0,17118,11157,9588,28583,32467,3
0.0,0.0,0.0,17152,11121,9588,28498,32467,3
0.0,0.0,0.0,17118,11133,9577,28583,32467,3
0.0,0.0,0.0,17101,11133,9588,28527,32533,3
0.0,0.0,0.0,17118,11133,9577,28583,32467,3
0.0,0.0,0.0,17152,11157,9588,28527,32500,3
0.0,0.0,0.0,17118,11157,9588,28527,32566,3
0.0,0.0,0.0,17084,11133,9588,28555,32435,3
0.0,0.0,0.0,17084,11145,9588,28498,32500,3
0.0,0.0,0.0,17084,11157,9588,28470,32500,3
0.0,0.0,0.0,17050,11157,9577,28470,32435,3
0.0,0.0,0.0,17050,11157,9588,28498,32435,3
0.0,0.0,0.0,17050,11133,9588,28498,32402,3
0.0,0.0,0.0,17033,11157,9588,28414,32402,3
0.0,0.0,0.0,17033,11157,9577,28470,32500,3
0.0,0.0,0.0,17050,11157,9577,28414,32369,3
0.0,0.0,0.0,17033,11157,9588,28442,32435,3
0.0,0.0,0.0,17050,11157,9599,28414,32369,3
0.0,0.0,0.0,17050,11157,9599,28470,32435,3
0.0,0.0,0.0,16966,11157,9588,28470,32435,3
0.0,0.0,0.0,16983,11157,9588,28470,32369,3
0.0,0.0,0.0,17033,11170,9577,28470,32435,3
0.0,0.0,0.0,17016,11157,9577,28442,32402,3
0.0,0.0,0.0,17016,11157,9588,28414,32402,3
0.0,0.0,0.0,17016,11157,9599,28414,32369,3
0.0,0.0,0.0,16983,11157,9599,28414,32238,3
0.0,0.0,0.0,16966,11157,9577,28414,32271,3
0.0,0.0,0.0,16966,11157,9588,28414,32402,3
0.0,0.0,0.0,17016,11133,9588,28385,32402,3
0.0,0.0,0.0,16983,11133,9588,28414,32467,3
0.0,0.0,0.0,16999,11121,9588,28414,32369,3
0.0,0.0,0.0,16983,11157,9577,28414,32369,3
0.0,0.0,0.0,16983,11121,9577,28442,32369,3
0.0,0.0,0.0,16983,11157,9577,28470,32402,3
0.0,0.0,0.0,16966,11157,9577,28414,32303,3
0.0,0.0,0.0,17016,11109,9588,28414,32336,3
0.0,0.0,0.0,16983,11133,9599,28414,32303,3
0.0,0.0,0.0,16966,11133,9588,28414,32402,3
0.0,0.0,0.0,16966,11133,9577,28442,32369,3
0.0,0.0,0.0,17016,11133,9588,28414,32369,3
0.0,0.0,0.0,17016,11133,9599,28357,32369,3
0.0,0.0,0.0,17016,11133,9588,28385,32369,3
0.0,0.0,0.0,16999,11133,9588,28414,32369,3
0.0,0.0,0.0,16999,11133,9588,28414,32303,3
0.0,0.0,0.0,16966,11133,9577,28414,32336,3
0.0,0.0,0.0,16966,11133,9588,28414,32402,3
0.0,0.0,0.0,16966,11121,9577,28414,32369,3
0.0,0.0,0.0,16983,11121,9599,28357,32336,3
0.0,0.0,0.0,17016,11133,9599,28414,32369,3
0.0,0.0,0.0,16983,11121,9588,28357,32336,3
0.0,0.0,0.0,16983,11121,9599,28385,32303,3
0.0,0.0,0.0,16983,11133,9588,28414,32369,3
0.0,0.0,0.0,16983,11145,9588,28385,32336,3
0.0,0.0,0.0,16966,11133,9577,28414,32369,3
0.0,0.0,0.0,16898,11145,9599,28385,32336,3
0.0,0.0,0.0,16949,11157,9588,28385,32271,3
0.0,0.0,0.0,16966,11145,9610,28414,32303,3
0.0,0.0,0.0,16949,11133,9577,28414,32336,3
0.0,0.0,0.0,16983,11133,9588,28385,32336,3
0.0,0.0,0.0,16966,11157,9588,28385,32402,3
0.0,0.0,0.0,16966,11157,9588,28385,32303,3
0.0,0.0,0.0,16949,11133,9588,28385,32303,3
0.0,0.0,0.0,16949,11157,9599,28414,32369,3
0.0,0.0,0.0,16966,11157,9588,28385,32303,3
0.0,0.0,0.0,16949,11145,9588,28442,32402,3
0.0,0.0,0.0,16949,11133,9588,28385,32303,3
0.0,0.0,0.0,16949,11182,9588,28357,32303,3
0.0,0.0,0.0,16949,11133,9588,28357,32402,3
0.0,0.0,0.0,16966,11170,9599,28414,32303,3
0.0,0.0,0.0,16949,11145,9610,28385,32303,3
0.0,0.0,0.0,16949,11157,9588,28357,32336,3
0.0,0.0,0.0,16949,11157,9588,28414,32303,3
0.0,0.0,0.0,16949,11157,9577,28357,32271,3
0.0,0.0,0.0,16966,11157,9599,28357,32336,3
0.0,0.0,0.0,16932,11157,9588,28357,32402,3
0.0,0.0,0.0,16949,11157,9621,28357,32303,3
0.0,0.0,0.0,16949,11157,9588,28414,32369,3
0.0,0.0,0.0,16915,11133,9599,28414,32303,3
0.0,0.0,0.0,16915,11157,9599,28414,32402,3
0.0,0.0,0.0,16915,11157,9588,28385,32402,3
0.0,0.0,0.0,16932,11157,9599,28414,32369,3
0.0,0.0,0.0,16949,11157,9599,28414,32369,3
0.0,0.0,0.0,16915,11157,9599,28385,32303,3
0.0,0.0,0.0,16915,11182,9588,28385,32271,3
0.0,0.0,0.0,16949,11157,9610,28414,32369,3
0.0,0.0,0.0,16915,11157,9588,28385,32369,3
0.0,0.0,0.0,16949,11170,9599,28414,32303,3
0.0,0.0,0.0,16898,11170,9588,28357,32402,3
0.0,0.0,0.0,16932,11157,9599,28414,32303,3
0.0,0.0,0.0,16949,11157,9599,28357,32303,3
0.0,0.0,0.0,16949,11157,9621,28385,32336,3
0.0,0.0,0.0,16915,11157,9599,28414,32336,3
0.0,0.0,0.0,16949,11133,9599,28414,32303,3
0.0,0.0,0.0,16932,11121,9599,28385,32369,3
0.0,0.0,0.0,16932,11060,9588,28357,32303,3
0.0,0.0,0.0,16949,11024,9588,28357,32369,3
0.0,0.0,0.0,16949,11036,9588,28442,32369,3
0.0,0.0,0.0,16983,11012,9577,28414,32369,3
0.0,0.0,0.0,16949,11012,9577,28385,32500,3
0.0,0.0,0.0,16949,11024,9599,28414,32369,3
0.0,0.0,0.0,16932,11036,9588,28385,32402,3
0.0,0.0,0.0,16882,11060,9588,28414,32369,3
0.0,0.0,0.0,16882,11060,9577,28414,32369,3
0.0,0.0,0.0,16966,11024,9588,28555,32369,3
0.0,0.0,0.0,17254,11060,9599,28869,32303,3
0.0,0.0,0.0,17357,11060,9577,28927,32271,3
0.0,0.0,0.0,17426,11060,9588,28927,32238,3
0.0,0.0,0.0,17374,11084,9588,28812,32238,3
0.0,0.0,0.0,17340,11060,9566,28669,32303,3
0.0,0.0,0.0,17306,11060,9577,28555,32303,3
0.0,0.0,0.0,17254,11060,9577,28470,32369,3
0.0,0.0,0.0,17186,11084,9588,28414,32271,3
0.0,0.0,0.0,17152,11072,9577,28414,32369,3
0.0,0.0,0.0,17152,11072,9577,28385,32303,3
0.0,0.0,0.0,17101,11072,9599,28414,32369,3
0.0,0.0,0.0,17152,11084,9577,28414,32271,3
0.0,0.0,0.0,17118,11060,9577,28442,32238,3
0.0,0.0,0.0,17118,11072,9599,28470,32303,3
0.0,0.0,0.0,17084,11109,9577,28414,32369,3
0.0,0.0,0.0,17084,11096,9588,28357,32303,3
0.0,0.0,0.0,17050,11084,9577,28414,32336,3
0.0,0.0,0.0,17050,11084,9588,28357,32303,3
0.0,0.0,0.0,17050,11084,9599,28329,32238,3
0.0,0.0,0.0,17016,11109,9599,28329,32303,3
0.0,0.0,0.0,17016,11109,9588,28329,32303,3
0.0,0.0,0.0,17033,11109,9577,28357,32303,3
0.0,0.0,0.0,17016,11109,9599,28357,32271,3
0.0,0.0,0.0,17016,11133,9588,28357,32238,3
0.0,0.0,0.0,16983,11109,9588,28357,32303,3
0.0,0.0,0.0,17016,11121,9577,28357,32238,3
0.0,0.0,0.0,16999,11133,9588,28357,32238,3
0.0,0.0,0.0,16983,11133,9588,28301,32303,3
0.0,0.0,0.0,16983,11133,9599,28357,32303,3
0.0,0.0,0.0,17016,11109,9588,28301,32238,3
0.0,0.0,0.0,16983,11157,9599,28301,32205,3
0.0,0.0,0.0,17016,11133,9588,28357,32205,3
0.0,0.0,0.0,16966,11157,9588,28301,32303,3
0.0,0.0,0.0,16949,11133,9588,28301,32238,3
0.0,0.0,0.0,16983,11121,9599,28301,32238,3
0.0,0.0,0.0,16966,11157,9621,28357,32205,3
0.0,0.0,0.0,16966,11157,9621,28273,32205,3
0.0,0.0,0.0,16966,11157,9666,28301,32173,3
0.0,0.0,0.0,16949,11157,9599,28301,32205,3
0.0,0.0,0.0,16966,11157,9621,28301,32238,3
0.0,0.0,0.0,16966,11157,9621,28301,32271,3
0.0,0.0,0.0,16966,11157,9599,28301,32173,3
0.0,0.0,0.0,16983,11157,9599,28357,32238,3
0.0,0.0,0.0,16966,11157,9621,28301,32238,3
0.0,0.0,0.0,16949,11157,9599,28301,32173,3
0.0,0.0,0.0,16949,11157,9621,28301,32303,3
0.0,0.0,0.0,16949,11157,9621,28301,32238,3
0.0,0.0,0.0,16949,11170,9621,28301,32238,3
0.0,0.0,0.0,16949,11157,9599,28301,32271,3
0.0,0.0,0.0,16949,11157,9610,28301,32238,3
0.0,0.0,0.0,16949,11170,9610,28329,32238,3
0.0,0.0,0.0,16949,11157,9621,28301,32173,3
0.0,0.0,0.0,16949,11157,9599,28301,32238,3
0.0,0.0,0.0,16949,11145,9610,28301,32303,3
0.0,0.0,0.0,16915,11157,9621,28301,32205,3
0.0,0.0,0.0,16949,11133,9599,28245,32205,3
0.0,0.0,0.0,16949,11121,9599,28189,32173,3
0.0,0.0,0.0,16949,11121,9599,28245,32173,3
0.0,0.0,0.0,16949,11133,9610,28245,32173,3
0.0,0.0,0.0,16932,11121,9621,28217,32205,3
0.0,0.0,0.0,16949,11133,9599,28245,32238,3
0.0,0.0,0.0,16949,11133,9599,28217,32205,3
0.0,0.0,0.0,16966,11157,9621,28217,32173,3
0.0,0.0,0.0,16949,11133,9621,28245,32205,3
0.0,0.0,0.0,16949,11157,9610,28245,32238,3
0.0,0.0,0.0,16915,11121,9610,28301,32303,3
0.0,0.0,0.0,16932,11157,9599,28301,32238,3
0.0,0.0,0.0,16949,11133,9621,28301,32238,3
0.0,0.0,0.0,16949,11157,9599,28245,32205,3
0.0,0.0,0.0,16915,11157,9621,28245,32238,3
0.0,0.0,0.0,16882,11145,9632,28245,32173,3
0.0,0.0,0.0,16915,11145,9621,28245,32173,3
0.0,0.0,0.0,16949,11157,9621,28245,32173,3
0.0,0.0,0.0,16915,11133,9621,28245,32173,3
0.0,0.0,0.0,16898,11133,9621,28217,32238,3
0.0,0.0,0.0,16949,11133,9621,28245,32173,3
0.0,0.0,0.0,16915,11109,9599,28273,32205,3
0.0,0.0,0.0,16882,11084,9599,28301,32238,3
0.0,0.0,0.0,16831,11060,9599,28245,32303,3
0.0,0.0,0.0,16831,11060,9599,28161,32238,3
0.0,0.0,0.0,16815,11012,9577,28189,32238,3
0.0,0.0,0.0,16848,11012,9599,28161,32238,3
0.0,0.0,0.0,16748,10987,9577,28189,32303,3
0.0,0.0,0.0,16715,10975,9577,28161,32271,3
0.0,0.0,0.0,16681,10963,9577,28133,32303,3
0.0,0.0,0.0,16665,10975,9577,28133,32238,3
0.0,0.0,0.0,16648,10963,9599,28133,32271,3
0.0,0.0,0.0,16648,10963,9588,28133,32303,3
0.0,0.0,0.0,16615,10963,9577,28133,32238,3
0.0,0.0,0.0,16632,10963,9599,28133,32303,3
0.0,0.0,0.0,16632,10963,9588,28133,32271,3
0.0,0.0,0.0,16615,10963,9577,28077,32173,3
0.0,0.0,0.0,16615,10975,9599,28133,32303,3
0.0,0.0,0.0,16615,10963,9577,28077,32303,3
0.0,0.0,0.0,16632,10963,9577,28077,32303,3
0.0,0.0,0.0,16615,10963,9577,28133,32238,3
0.0,0.0,0.0,16615,10987,9577,28133,32238,3
0.0,0.0,0.0,16582,11012,9588,28133,32173,3
0.0,0.0,0.0,16632,10975,9588,28022,32238,3
0.0,0.0,0.0,16615,10999,9577,28133,32271,3
0.0,0.0,0.0,16615,11012,9588,28161,32173,3
0.0,0.0,0.0,16598,11012,9577,28133,32205,3
0.0,0.0,0.0,16615,11012,9577,28189,32173,3
0.0,0.0,0.0,16565,11012,9588,28133,32238,3
0.0,0.0,0.0,16582,11012,9588,28161,32205,3
0.0,0.0,0.0,16565,11012,9577,28189,32238,3
0.0,0.0,0.0,16565,11012,9588,28189,32303,3
0.0,0.0,0.0,16615,11036,9588,28133,32271,3
0.0,0.0,0.0,16582,11036,9577,28245,32271,3
0.0,0.0,0.0,16582,11060,9588,28245,32238,3
0.0,0.0,0.0,16615,11036,9599,28245,32205,3
0.0,0.0,0.0,16549,11036,9577,28189,32303,3
0.0,0.0,0.0,16582,11060,9599,28245,32173,3
0.0,0.0,0.0,16565,11036,9599,28245,32238,3
0.0,0.0,0.0,16565,11048,9577,28245,32238,3
0.0,0.0,0.0,16565,11060,9577,28245,32238,3
0.0,0.0,0.0,16549,11060,9577,28245,32238,3
0.0,0.0,0.0,16549,11036,9577,28161,32238,3
0.0,0.0,0.0,16549,11048,9577,28161,32238,3
0.0,0.0,0.0,16549,11036,9599,28161,32173,3
0.0,0.0,0.0,16549,11060,9588,28133,32205,3
0.0,0.0,0.0,16549,11060,9588,28189,32173,3
0.0,0.0,0.0,16549,11048,9577,28217,32271,3
0.0,0.0,0.0,16549,11024,9588,28217,32271,3
0.0,0.0,0.0,16565,11036,9588,28217,32205,3
0.0,0.0,0.0,16549,11060,9588,28245,32271,3
0.0,0.0,0.0,16532,11060,9588,28189,32205,3
0.0,0.0,0.0,16516,11048,9577,28301,32303,3
0.0,0.0,0.0,16549,11036,9599,28301,32303,3
0.0,0.0,0.0,16549,11060,9588,28245,32238,3
0.0,0.0,0.0,16549,11060,9599,28301,32336,3
0.0,0.0,0.0,16549,11060,9599,28301,32238,3
0.0,0.0,0.0,16516,11036,9588,28189,32205,3
0.0,0.0,0.0,16549,11024,9599,28245,32238,3
0.0,0.0,0.0,16549,11036,9599,28301,32271,3
0.0,0.0,0.0,16549,11036,9577,28245,32238,3
0.0,0.0,0.0,16549,11024,9588,28189,32303,3
0.0,0.0,0.0,16549,11024,9599,28245,32303,3
0.0,0.0,0.0,16434,11012,9599,28357,32402,3
0.0,0.0,0.0,16303,10987,9599,28442,32435,3
0.0,0.0,0.0,16238,10987,9599,28498,32467,3
0.0,0.0,0.0,16222,11012,9577,28470,32467,3
0.0,0.0,0.0,16222,10987,9577,28527,32566,3
0.0,0.0,0.0,16189,10975,9577,28555,32533,3
0.0,0.0,0.0,16222,11012,9588,28527,32435,3
0.0,0.0,0.0,16222,11012,9577,28498,32500,3
0.0,0.0,0.0,16222,11012,9577,28555,32500,3
0.0,0.0,0.0,16189,11012,9577,28527,32500,3
0.0,0.0,0.0,16157,10987,9577,28498,32500,3
0.0,0.0,0.0,16125,10999,9555,28527,32435,3
0.0,0.0,0.0,16125,10963,9577,28527,32533,3
0.0,0.0,0.0,16125,10987,9577,28527,32500,3
0.0,0.0,0.0,16157,10987,9577,28527,32500,3
0.0,0.0,0.0,16157,10987,9577,28527,32500,3
0.0,0.0,0.0,16157,10987,9577,28527,32435,3
0.0,0.0,0.0,16125,10987,9588,28527,32435,3
0.0,0.0,0.0,16125,10987,9588,28527,32500,3
0.0,0.0,0.0,16093,10987,9599,28583,32435,3
0.0,0.0,0.0,16093,10987,9577,28527,32566,3
0.0,0.0,0.0,16125,10963,9577,28527,32500,3
0.0,0.0,0.0,16109,10987,9577,28527,32500,3
0.0,0.0,0.0,16125,11012,9577,28583,32500,3
0.0,0.0,0.0,16125,11012,9577,28498,32435,3
0.0,0.0,0.0,16093,10975,9577,28470,32467,3
0.0,0.0,0.0,16125,10999,9577,28470,32435,3
0.0,0.0,0.0,16125,10987,9577,28470,32369,3
0.0,0.0,0.0,16093,11012,9577,28498,32435,3
0.0,0.0,0.0,16109,10987,9588,28527,32435,3
0.0,0.0,0.0,16093,10987,9577,28527,32500,3
0.0,0.0,0.0,16093,11012,9588,28527,32533,3
0.0,0.0,0.0,16093,10987,9577,28470,32467,3
0.0,0.0,0.0,16093,11012,9577,28470,32500,3
0.0,0.0,0.0,16109,11012,9577,28470,32533,3
0.0,0.0,0.0,16093,11012,9577,28470,32369,3
0.0,0.0,0.0,16109,11012,9577,28442,32402,3
0.0,0.0,0.0,16125,11012,9577,28470,32369,3
0.0,0.0,0.0,16093,11024,9577,28470,32435,3
0.0,0.0,0.0,16125,11012,9577,28442,32500,3
0.0,0.0,0.0,16093,11024,9599,28527,32500,3
0.0,0.0,0.0,16093,11012,9588,28470,32369,3
0.0,0.0,0.0,16093,11036,9577,28470,32369,3
0.0,0.0,0.0,16093,11012,9577,28470,32435,3
0.0,0.0,0.0,16093,11012,9588,28498,32369,3
0.0,0.0,0.0,16076,11024,9577,28527,32435,3
0.0,0.0,0.0,16093,11024,9577,28583,32467,3
0.0,0.0,0.0,16109,11036,9588,28527,32336,3
0.0,0.0,0.0,16093,11024,9621,28583,32369,3
0.0,0.0,0.0,16093,11048,9599,28527,32402,3
0.0,0.0,0.0,16109,11036,9599,28527,32435,3
0.0,0.0,0.0,16093,11060,9610,28527,32435,3
0.0,0.0,0.0,16093,11036,9588,28498,32435,3
0.0,0.0,0.0,16076,11060,9588,28555,32369,3
0.0,0.0,0.0,16060,11024,9599,28527,32435,3
0.0,0.0,0.0,16093,11036,9599,28498,32435,3
0.0,0.0,0.0,16060,11036,9588,28527,32402,3
0.0,0.0,0.0,16060,11036,9588,28498,32369,3
0.0,0.0,0.0,16060,11060,9599,28527,32435,3
0.0,0.0,0.0,16076,11024,9621,28498,32369,3
0.0,0.0,0.0,16060,11024,9599,28527,32402,3
0.0,0.0,0.0,16076,11036,9588,28527,32369,3
0.0,0.0,0.0,16060,11060,9588,28527,32303,3
0.0,0.0,0.0,16060,11060,9599,28470,32303,3
0.0,0.0,0.0,16093,11060,9599,28527,32435,3
0.0,0.0,0.0,16060,11060,9599,28470,32336,3
0.0,0.0,0.0,16060,11060,9599,28498,32336,3
0.0,0.0,0.0,16093,11060,9599,28498,32435,3
0.0,0.0,0.0,16060,11060,9588,28470,32369,3
0.0,0.0,0.0,16028,11060,9610,28442,32369,3
0.0,0.0,0.0,16076,11060,9599,28527,32369,3
0.0,0.0,0.0,16060,11048,9599,28470,32369,3
0.0,0.0,0.0,16060,11024,9599,28470,32369,3
0.0,0.0,0.0,16060,11024,9599,28414,32435,3
0.0,0.0,0.0,16093,11012,9599,28385,32402,3
0.0,0.0,0.0,16060,10975,9577,28414,32467,3
0.0,0.0,0.0,15996,10975,9588,28385,32500,3
0.0,0.0,0.0,15980,10963,9577,28301,32435,3
0.0,0.0,0.0,15964,10927,9588,28329,32369,3
0.0,0.0,0.0,15996,10963,9577,28245,32369,3
0.0,0.0,0.0,15980,10963,9577,28301,32369,3
0.0,0.0,0.0,15980,10951,9577,28357,32500,3
0.0,0.0,0.0,15964,10927,9588,28301,32402,3
0.0,0.0,0.0,15964,10963,9599,28245,32435,3
0.0,0.0,0.0,15980,10963,9599,28245,32303,3
0.0,0.0,0.0,15964,10951,9577,28245,32369,3
0.0,0.0,0.0,15948,10939,9577,28301,32369,3
0.0,0.0,0.0,15964,10939,9577,28245,32369,3
0.0,0.0,0.0,15964,10963,9588,28301,32402,3
0.0,0.0,0.0,15964,10963,9588,28273,32303,3
0.0,0.0,0.0,15916,10963,9621,28301,32369,3
0.0,0.0,0.0,15964,10951,9577,28245,32369,3
0.0,0.0,0.0,15964,10963,9577,28301,32402,3
0.0,0.0,0.0,15948,10963,9588,28301,32303,3
0.0,0.0,0.0,15964,10963,9577,28301,32303,3
0.0,0.0,0.0,15964,10963,9588,28301,32402,3
0.0,0.0,0.0,15964,10963,9577,28301,32369,3
0.0,0.0,0.0,15964,10963,9577,28329,32369,3
0.0,0.0,0.0,15932,10987,9599,28301,32303,3
0.0,0.0,0.0,15964,10963,9577,28301,32369,3
0.0,0.0,0.0,15964,10963,9577,28357,32435,3
0.0,0.0,0.0,15964,10987,9577,28301,32369,3
0.0,0.0,0.0,15964,10963,9577,28301,32402,3
0.0,0.0,0.0,15916,10987,9599,28301,32402,3
0.0,0.0,0.0,15964,10975,9599,28357,32402,3
0.0,0.0,0.0,15916,10975,9599,28301,32435,3
0.0,0.0,0.0,15964,10975,9599,28357,32336,3
0.0,0.0,0.0,15948,10975,9588,28301,32402,3
0.0,0.0,0.0,15964,10975,9577,28301,32336,3
0.0,0.0,0.0,15964,10987,9588,28301,32369,3
0.0,0.0,0.0,15980,11012,9588,28301,32402,3
0.0,0.0,0.0,15932,10987,9577,28301,32402,3
0.0,0.0,0.0,15964,11012,9577,28357,32369,3
0.0,0.0,0.0,15932,11012,9621,28329,32369,3
0.0,0.0,0.0,15964,10987,9588,28357,32402,3
0.0,0.0,0.0,15900,11012,9588,28301,32303,3
0.0,0.0,0.0,15964,10987,9588,28301,32336,3
0.0,0.0,0.0,15932,11012,9599,28301,32402,3
0.0,0.0,0.0,15900,11012,9588,28357,32369,3
0.0,0.0,0.0,15916,10987,9599,28357,32402,3
0.0,0.0,0.0,15932,10987,9588,28357,32435,3
0.0,0.0,0.0,15964,10987,9599,28301,32402,3
0.0,0.0,0.0,15980,10963,9577,28301,32369,3
0.0,0.0,0.0,15932,10963,9577,28301,32369,3
0.0,0.0,0.0,15916,10927,9577,28245,32369,3
0.0,0.0,0.0,15900,10927,9577,28301,32369,3
0.0,0.0,0.0,15900,10939,9577,28245,32238,3
0.0,0.0,0.0,15916,10939,9588,28245,32271,3
0.0,0.0,0.0,15900,10939,9588,28189,32303,3
0.0,0.0,0.0,15900,10939,9599,28245,32238,3
0.0,0.0,0.0,15868,10927,9599,28245,32271,3
0.0,0.0,0.0,15868,10927,9599,28245,32369,3
0.0,0.0,0.0,15868,10915,9577,28245,32369,3
0.0,0.0,0.0,15852,10915,9577,28301,32402,3
0.0,0.0,0.0,15868,10915,9599,28245,32303,3
0.0,0.0,0.0,15837,10867,9599,28301,32336,3
0.0,0.0,0.0,15773,10831,9599,28301,32435,3
0.0,0.0,0.0,15710,10819,9577,28357,32500,3
0.0,0.0,0.0,15663,10771,9577,28357,32500,3
0.0,0.0,0.0,15647,10795,9588,28329,32402,3
0.0,0.0,0.0,15663,10783,9588,28301,32402,3
0.0,0.0,0.0,15584,10795,9588,28329,32402,3
0.0,0.0,0.0,15615,10795,9599,28301,32402,3
0.0,0.0,0.0,15615,10783,9588,28301,32336,3
0.0,0.0,0.0,15615,10771,9599,28301,32435,3
0.0,0.0,0.0,15615,10771,9588,28245,32369,3
0.0,0.0,0.0,15553,10771,9588,28301,32369,3
0.0,0.0,0.0,15537,10771,9577,28301,32369,3
0.0,0.0,0.0,15521,10748,9577,28301,32467,3
0.0,0.0,0.0,15475,10748,9599,28301,32402,3
0.0,0.0,0.0,15459,10712,9588,28301,32369,3
0.0,0.0,0.0,15459,10724,9577,28245,32369,3
0.0,0.0,0.0,15412,10724,9610,28301,32402,3
0.0,0.0,0.0,15459,10724,9599,28245,32369,3
0.0,0.0,0.0,15428,10724,9599,28273,32435,3
0.0,0.0,0.0,15412,10724,9588,28301,32435,3
0.0,0.0,0.0,15397,10748,9599,28245,32369,3
0.0,0.0,0.0,15397,10748,9588,28245,32435,3
0.0,0.0,0.0,15412,10748,9588,28217,32435,3
0.0,0.0,0.0,15397,10748,9577,28245,32500,3
0.0,0.0,0.0,15412,10748,9577,28245,32303,3
0.0,0.0,0.0,15428,10748,9577,28189,32369,3
0.0,0.0,0.0,15412,10771,9588,28301,32435,3
0.0,0.0,0.0,15397,10771,9588,28301,32500,3
0.0,0.0,0.0,15366,10748,9577,28301,32402,3
0.0,0.0,0.0,15397,10748,9588,28245,32369,3
0.0,0.0,0.0,15397,10771,9599,28217,32369,3
0.0,0.0,0.0,15381,10795,9588,28217,32369,3
0.0,0.0,0.0,15381,10795,9588,28217,32369,3
0.0,0.0,0.0,15335,10879,9599,28245,32336,3
0.0,0.0,0.0,15350,10927,9599,28245,32336,3
0.0,0.0,0.0,15335,11012,9610,28301,32500,3
0.0,0.0,0.0,15288,11012,9610,28301,32500,3
0.0,0.0,0.0,15288,10963,9599,28357,32435,3
0.0,0.0,0.0,15335,10963,9621,28301,32369,3
0.0,0.0,0.0,15273,10963,9588,28301,32369,3
0.0,0.0,0.0,15288,10939,9621,28301,32369,3
0.0,0.0,0.0,15288,10927,9599,28301,32369,3
0.0,0.0,0.0,15288,10903,9588,28301,32402,3
0.0,0.0,0.0,15273,10939,9577,28301,32369,3
0.0,0.0,0.0,15288,10915,9599,28301,32369,3
0.0,0.0,0.0,15273,10915,9599,28301,32336,3
0.0,0.0,0.0,15335,10915,9599,28301,32303,3
0.0,0.0,0.0,15288,10891,9621,28329,32303,3
0.0,0.0,0.0,15288,10915,9621,28301,32336,3
0.0,0.0,0.0,15273,10915,9621,28301,32402,3
0.0,0.0,0.0,15304,10915,9621,28385,32500,3
0.0,0.0,0.0,15273,10879,9621,28357,32369,3
0.0,0.0,0.0,15273,10867,9588,28357,32369,3
0.0,0.0,0.0,15335,10879,9621,28414,32402,3
0.0,0.0,0.0,15335,10855,9599,28470,32566,3
0.0,0.0,0.0,15273,10843,9577,28470,32500,3
0.0,0.0,0.0,15273,10867,9621,28442,32533,3
0.0,0.0,0.0,15273,10867,9621,28470,32435,3
0.0,0.0,0.0,15273,10867,9621,28414,32500,3
0.0,0.0,0.0,15273,10867,9621,28442,32435,3
0.0,0.0,0.0,15242,10867,9632,28414,32500,3
0.0,0.0,0.0,15242,10879,9643,28498,32566,3
0.0,0.0,0.0,15211,10891,9632,28527,32500,3
0.0,0.0,0.0,15242,10867,9643,28470,32435,3
0.0,0.0,0.0,15242,10867,9632,28414,32369,3
0.0,0.0,0.0,15242,10867,9621,28414,32500,3
0.0,0.0,0.0,15242,10891,9632,28414,32402,3
0.0,0.0,0.0,15258,10867,9621,28385,32369,3
0.0,0.0,0.0,15273,10819,9621,28357,32435,3
0.0,0.0,0.0,15273,10819,9621,28414,32500,3
0.0,0.0,0.0,15273,10819,9621,28329,32500,3
0.0,0.0,0.0,15258,10819,9621,28357,32435,3
0.0,0.0,0.0,15273,10807,9621,28357,32467,3
0.0,0.0,0.0,15211,10831,9621,28357,32402,3
0.0,0.0,0.0,15227,10843,9621,28385,32500,3
0.0,0.0,0.0,15227,10879,9621,28357,32467,3
0.0,0.0,0.0,15258,10867,9621,28385,32402,3
0.0,0.0,0.0,15211,10963,9621,28414,32500,3
0.0,0.0,0.0,15211,10963,9621,28414,32467,3
0.0,0.0,0.0,15211,11024,9621,28414,32500,3
0.0,0.0,0.0,15181,11012,9621,28385,32467,3
0.0,0.0,0.0,15211,11048,9599,28414,32402,3
0.0,0.0,0.0,15211,11012,9621,28414,32402,3
0.0,0.0,0.0,15211,11024,9621,28414,32402,3
0.0,0.0,0.0,15273,11036,9621,28414,32500,3
0.0,0.0,0.0,15273,11024,9621,28414,32402,3
0.0,0.0,0.0,15273,11060,9621,28414,32435,3
0.0,0.0,0.0,15273,11024,9643,28470,32500,3
0.0,0.0,0.0,15242,11060,9632,28414,32435,3
0.0,0.0,0.0,15227,11060,9621,28470,32336,3
0.0,0.0,0.0,15273,11072,9621,28414,32369,3
0.0,0.0,0.0,15288,11060,9632,28414,32435,3
0.0,0.0,0.0,15258,11060,9632,28414,32336,3
0.0,0.0,0.0,15288,11024,9632,28470,32435,3
0.0,0.0,0.0,15273,11036,9621,28470,32336,3
0.0,0.0,0.0,15273,11024,9632,28414,32369,3
0.0,0.0,0.0,15288,11036,9643,28498,32303,3
0.0,0.0,0.0,15273,11060,9666,28527,32369,3
0.0,0.0,0.0,15273,11060,9654,28527,32303,3
0.0,0.0,0.0,15288,11060,9666,28470,32369,3
0.0,0.0,0.0,15258,11060,9666,28583,32369,3
0.0,0.0,0.0,15273,11072,9666,28470,32435,3
0.0,0.0,0.0,15273,11072,9666,28470,32369,3
0.0,0.0,0.0,15273,11072,9666,28470,32369,3
0.0,0.0,0.0,15273,11060,9677,28498,32303,3
0.0,0.0,0.0,15227,11084,9677,28470,32303,3
0.0,0.0,0.0,15273,11060,9666,28498,32369,3
0.0,0.0,0.0,15242,11084,9666,28470,32336,3
0.0,0.0,0.0,15242,11060,9666,28470,32402,3
0.0,0.0,0.0,15242,11060,9666,28470,32369,3
0.0,0.0,0.0,15242,11072,9688,28414,32435,3
0.0,0.0,0.0,15273,11072,9666,28470,32402,3
0.0,0.0,0.0,15242,11084,9677,28414,32369,3
0.0,0.0,0.0,15227,11084,9688,28470,32402,3
0.0,0.0,0.0,15211,11084,9677,28498,32435,3
0.0,0.0,0.0,15227,11084,9688,28470,32369,3
0.0,0.0,0.0,15242,11072,9677,28498,32402,3
0.0,0.0,0.0,15242,11084,9699,28470,32336,3
0.0,0.0,0.0,15242,11060,9677,28442,32435,3
0.0,0.0,0.0,15227,11048,9688,28498,32435,3
0.0,0.0,0.0,15273,11060,9666,28414,32435,3
0.0,0.0,0.0,15273,11048,9688,28442,32435,3
0.0,0.0,0.0,15288,11060,9677,28414,32402,3
0.0,0.0,0.0,15211,11048,9666,28414,32369,3
0.0,0.0,0.0,15211,11060,9666,28470,32402,3
0.0,0.0,0.0,15211,11060,9677,28442,32435,3
0.0,0.0,0.0,15227,11060,9688,28329,32402,3
0.0,0.0,0.0,15227,11036,9677,28498,32369,3
0.0,0.0,0.0,15242,11060,9677,28414,32369,3
0.0,0.0,0.0,15242,11060,9688,28470,32303,3
0.0,0.0,0.0,15227,11060,9677,28470,32336,3
0.0,0.0,0.0,15242,11060,9666,28414,32238,3
0.0,0.0,0.0,15211,11060,9699,28442,32271,3
0.0,0.0,0.0,15211,11072,9688,28470,32303,3
0.0,0.0,0.0,15242,11060,9688,28414,32303,3
0.0,0.0,0.0,15211,11060,9688,28442,32303,3
0.0,0.0,0.0,15242,11060,9688,28470,32336,3
0.0,0.0,0.0,15242,11084,9688,28414,32238,3
0.0,0.0,0.0,15242,11060,9688,28414,32303,3
0.0,0.0,0.0,15273,11060,9688,28385,32238,3
0.0,0.0,0.0,15273,11048,9688,28442,32303,3
0.0,0.0,0.0,15242,11036,9688,28414,32369,3
0.0,0.0,0.0,15242,11060,9688,28442,32303,3
0.0,0.0,0.0,15288,11060,9710,28470,32369,3
0.0,0.0,0.0,15273,11024,9677,28470,32369,3
0.0,0.0,0.0,15242,11060,9688,28442,32271,3
0.0,0.0,0.0,15258,11012,9710,28385,32303,3
0.0,0.0,0.0,15242,11060,9710,28414,32303,3
0.0,0.0,0.0,15273,11060,9699,28470,32238,3
0.0,0.0,0.0,15211,11048,9710,28470,32369,3
0.0,0.0,0.0,15242,11060,9710,28442,32303,3
0.0,0.0,0.0,15242,11036,9710,28527,32369,3
0.0,0.0,0.0,15273,11060,9710,28470,32369,3
0.0,0.0,0.0,15227,11072,9721,28470,32271,3
0.0,0.0,0.0,15242,11060,9710,28470,32303,3
0.0,0.0,0.0,15211,11036,9710,28470,32303,3
0.0,0.0,0.0,15211,11060,9710,28470,32303,3
0.0,0.0,0.0,15242,11060,9721,28470,32303,3
0.0,0.0,0.0,15242,11060,9710,28470,32303,3
0.0,0.0,0.0,15227,11060,9688,28470,32271,3
0.0,0.0,0.0,15273,11060,9733,28527,32303,3
0.0,0.0,0.0,15211,11060,9733,28555,32303,3
0.0,0.0,0.0,15227,11084,9755,28583,32303,3
0.0,0.0,0.0,15242,11072,9755,28583,32271,3
0.0,0.0,0.0,15211,11072,9755,28527,32303,3
0.0,0.0,0.0,15242,11084,9766,28583,32369,3
0.0,0.0,0.0,15181,11084,9766,28470,32303,3
0.0,0.0,0.0,15181,11084,9766,28583,32303,3
0.0,0.0,0.0,15211,11145,9766,28583,32271,3
0.0,0.0,0.0,15211,11072,9777,28527,32303,3
0.0,0.0,0.0,15211,11109,9766,28583,32303,3
0.0,0.0,0.0,15227,11109,9766,28527,32238,3
0.0,0.0,0.0,15211,11109,9766,28555,32271,3
0.0,0.0,0.0,15211,11096,9766,28583,32369,3
0.0,0.0,0.0,15211,11109,9777,28555,32336,3
0.0,0.0,0.0,15211,11109,9777,28612,32303,3
0.0,0.0,0.0,15211,11109,9788,28583,32336,3
0.0,0.0,0.0,15227,11109,9766,28583,32369,3
0.0,0.0,0.0,15211,11109,9766,28555,32402,3
0.0,0.0,0.0,15227,11096,9788,28583,32303,3
0.0,0.0,0.0,15242,11084,9777,28583,32369,3
0.0,0.0,0.0,15211,11109,9800,28612,32303,3
0.0,0.0,0.0,15211,11109,9800,28612,32435,3
0.0,0.0,0.0,15211,11084,9800,28612,32402,3
0.0,0.0,0.0,15165,11109,9800,28640,32435,3
0.0,0.0,0.0,15181,11109,9811,28583,32369,3
0.0,0.0,0.0,15165,11121,9845,28612,32303,3
0.0,0.0,0.0,15165,11109,9901,28640,32435,3
0.0,0.0,0.0,15211,11121,9901,28583,32336,3
0.0,0.0,0.0,15165,11109,9935,28612,32303,3
0.0,0.0,0.0,15150,11133,9935,28583,32369,3
0.0,0.0,0.0,15181,11133,9935,28612,32303,3
0.0,0.0,0.0,15165,11133,9935,28583,32336,3
0.0,0.0,0.0,15165,11145,9946,28640,32303,3
0.0,0.0,0.0,15165,11133,9935,28583,32369,3
0.0,0.0,0.0,15181,11121,9935,28583,32271,3
0.0,0.0,0.0,15165,11133,9935,28640,32369,3
0.0,0.0,0.0,15150,11121,9935,28583,32303,3
0.0,0.0,0.0,15181,11109,9935,28583,32303,3
0.0,0.0,0.0,15165,11145,9912,28583,32369,3
0.0,0.0,0.0,15150,11133,9935,28583,32336,3
0.0,0.0,0.0,15181,11121,9935,28612,32303,3
0.0,0.0,0.0,15165,11121,9935,28527,32369,3
0.0,0.0,0.0,15165,11121,9935,28583,32271,3
0.0,0.0,0.0,15150,11133,9901,28583,32369,3
0.0,0.0,0.0,15150,11157,9935,28583,32271,3
0.0,0.0,0.0,15150,11121,9935,28612,32336,3
0.0,0.0,0.0,15181,11121,9935,28640,32369,3
0.0,0.0,0.0,15150,11133,9935,28612,32303,3
0.0,0.0,0.0,15165,11145,9935,28527,32369,3
0.0,0.0,0.0,15150,11157,9946,28583,32369,3
0.0,0.0,0.0,15150,11133,9946,28527,32369,3
0.0,0.0,0.0,15150,11145,9935,28583,32369,3
0.0,0.0,0.0,15150,11133,9946,28527,32369,3
0.0,0.0,0.0,15150,11121,9946,28583,32271,3
0.0,0.0,0.0,15211,11121,9935,28555,32369,3
0.0,0.0,0.0,15181,11157,9946,28527,32303,3
0.0,0.0,0.0,15150,11109,9958,28527,32303,3
0.0,0.0,0.0,15150,11157,9946,28583,32336,3
0.0,0.0,0.0,15150,11157,9946,28583,32369,3
0.0,0.0,0.0,15150,11133,9935,28555,32303,3
0.0,0.0,0.0,15165,11157,9946,28583,32303,3
0.0,0.0,0.0,15165,11133,9946,28527,32369,3
0.0,0.0,0.0,15150,11133,9946,28527,32303,3
0.0,0.0,0.0,15150,11121,9935,28555,32369,3
0.0,0.0,0.0,15150,11109,9946,28498,32369,3
0.0,0.0,0.0,15165,11109,9946,28583,32303,3
0.0,0.0,0.0,15119,11109,9935,28527,32369,3
0.0,0.0,0.0,15150,11084,9935,28498,32336,3
0.0,0.0,0.0,15150,11109,9924,28470,32369,3
0.0,0.0,0.0,15150,11109,9935,28470,32336,3
0.0,0.0,0.0,15150,11133,9935,28527,32402,3
0.0,0.0,0.0,15150,11121,9935,28527,32369,3
0.0,0.0,0.0,15150,11072,9935,28498,32271,3
0.0,0.0,0.0,15150,11121,9935,28583,32369,3
0.0,0.0,0.0,15165,11121,9935,28498,32369,3
0.0,0.0,0.0,15211,11121,9912,28527,32271,3
0.0,0.0,0.0,15211,11133,9935,28527,32303,3
0.0,0.0,0.0,15181,11109,9935,28498,32303,3
0.0,0.0,0.0,15165,11109,9924,28527,32271,3
0.0,0.0,0.0,15181,11109,9901,28527,32303,3
0.0,0.0,0.0,15165,11109,9912,28527,32303,3
0.0,0.0,0.0,15211,11109,9912,28498,32271,3
0.0,0.0,0.0,15211,11121,9935,28498,32303,3
0.0,0.0,0.0,15165,11109,9912,28527,32369,3
0.0,0.0,0.0,15150,11121,9912,28470,32303,3
0.0,0.0,0.0,15181,11072,9890,28414,32238,3
0.0,0.0,0.0,15181,11084,9890,28414,32238,3
0.0,0.0,0.0,15135,11096,9890,28470,32271,3
0.0,0.0,0.0,15150,11109,9901,28470,32271,3
0.0,0.0,0.0,15181,11084,9901,28442,32238,3
0.0,0.0,0.0,15165,11072,9890,28414,32238,3
0.0,0.0,0.0,15150,11109,9890,28414,32238,3
0.0,0.0,0.0,15150,11109,9890,28470,32173,3
0.0,0.0,0.0,15150,11084,9890,28498,32238,3
0.0,0.0,0.0,15165,11084,9890,28385,32205,3
0.0,0.0,0.0,15165,11096,9901,28414,32238,3
0.0,0.0,0.0,15150,11084,9901,28470,32271,3
0.0,0.0,0.0,15150,11096,9890,28442,32238,3
0.0,0.0,0.0,15150,11096,9890,28470,32173,3
0.0,0.0,0.0,15181,11109,9890,28414,32271,3
0.0,0.0,0.0,15181,11109,9890,28414,32238,3
0.0,0.0,0.0,15165,11072,9890,28414,32303,3
0.0,0.0,0.0,15181,11084,9867,28385,32271,3
0.0,0.0,0.0,15181,11084,9890,28385,32238,3
0.0,0.0,0.0,15181,11084,9901,28385,32303,3
0.0,0.0,0.0,15211,11084,9890,28414,32271,3
0.0,0.0,0.0,15227,11060,9867,28385,32238,3
0.0,0.0,0.0,15211,11012,9890,28385,32271,3
0.0,0.0,0.0,15165,11060,9890,28414,32271,3
0.0,0.0,0.0,15181,11084,9867,28385,32238,3
0.0,0.0,0.0,15211,11072,9878,28357,32205,3
0.0,0.0,0.0,15181,11072,9890,28357,32238,3
0.0,0.0,0.0,15196,11072,9867,28357,32238,3
0.0,0.0,0.0,15211,11084,9890,28357,32173,3
0.0,0.0,0.0,15211,11072,9890,28357,32205,3
0.0,0.0,0.0,15165,11084,9867,28385,32303,3
0.0,0.0,0.0,15181,11084,9890,28329,32238,3
0.0,0.0,0.0,15211,11072,9867,28357,32238,3
0.0,0.0,0.0,15165,11060,9890,28357,32238,3
0.0,0.0,0.0,15211,11084,9878,28385,32173,3
0.0,0.0,0.0,15211,11072,9890,28357,32173,3
0.0,0.0,0.0,15150,11060,9890,28357,32205,3
0.0,0.0,0.0,15165,11084,9890,28301,32238,3
0.0,0.0,0.0,15150,11060,9890,28385,32205,3
0.0,0.0,0.0,15196,11084,9890,28357,32303,3
0.0,0.0,0.0,15165,11072,9890,28357,32271,3
0.0,0.0,0.0,15196,11084,9890,28357,32173,3
0.0,0.0,0.0,15165,11096,9867,28385,32173,3
0.0,0.0,0.0,15150,11072,9890,28414,32173,3
0.0,0.0,0.0,15150,11072,9890,28357,32238,3
0.0,0.0,0.0,15150,11072,9890,28414,32303,3
0.0,0.0,0.0,15165,11096,9878,28357,32238,3
0.0,0.0,0.0,15165,11072,9890,28414,32271,3
0.0,0.0,0.0,15181,11084,9901,28385,32271,3
0.0,0.0,0.0,15150,11109,9890,28357,32303,3
0.0,0.0,0.0,15165,11084,9890,28357,32303,3
0.0,0.0,0.0,15273,11109,9901,28697,32238,3
0.0,0.0,0.0,15366,11157,9901,29042,32173,3
0.0,0.0,0.0,15490,11255,9912,29274,32205,3
0.0,0.0,0.0,15521,11255,9901,29333,32173,3
0.0,0.0,0.0,15584,11268,9935,29333,32108,3
0.0,0.0,0.0,15584,11304,9901,29333,32108,3
0.0,0.0,0.0,15584,11268,9901,29333,32271,3
0.0,0.0,0.0,15584,11268,9912,29274,32140,3
0.0,0.0,0.0,15584,11268,9901,29158,32043,3
0.0,0.0,0.0,15584,11280,9912,29216,32173,3
0.0,0.0,0.0,15521,11255,9935,29187,32043,3
0.0,0.0,0.0,15521,11255,9901,29100,32108,3
0.0,0.0,0.0,15521,11255,9901,29042,32108,3
0.0,0.0,0.0,15490,11255,9890,29042,32108,3
0.0,0.0,0.0,15475,11255,9901,29042,32010,3
0.0,0.0,0.0,15459,11219,9901,29042,32043,3
0.0,0.0,0.0,15475,11255,9901,28984,32043,3
0.0,0.0,0.0,15490,11231,9912,29071,32043,3
0.0,0.0,0.0,15521,11243,9935,28984,32108,3
0.0,0.0,0.0,15459,11243,9890,28955,32108,3
0.0,0.0,0.0,15475,11243,9912,28984,32108,3
0.0,0.0,0.0,15459,11231,9901,28927,32108,3
0.0,0.0,0.0,15459,11219,9901,28927,32108,3
0.0,0.0,0.0,15459,11231,9901,28898,32010,3
0.0,0.0,0.0,15459,11219,9901,28898,32075,3
0.0,0.0,0.0,15459,11206,9901,28869,32043,3
0.0,0.0,0.0,15459,11219,9890,28869,32043,3
0.0,0.0,0.0,15459,11231,9912,28869,32043,3
0.0,0.0,0.0,15428,11219,9912,28869,32108,3
0.0,0.0,0.0,15459,11231,9901,28812,32108,3
0.0,0.0,0.0,15428,11219,9912,28812,32043,3
0.0,0.0,0.0,15412,11231,9901,28812,32108,3
0.0,0.0,0.0,15459,11231,9901,28812,32043,3
