GyroX,GyroY,GyroZ,Thumb,Index,Middle,Ring,Pinky,Gesture
0.0,0.0,0.0,15789,11304,30931,33033,39202,2
0.0,0.0,0.0,15773,11329,30962,33033,38995,2
0.0,0.0,0.0,15773,11354,30962,32966,39036,2
0.0,0.0,0.0,15741,11304,30900,32966,39036,2
0.0,0.0,0.0,15773,11329,30931,33033,39036,2
0.0,0.0,0.0,15773,11366,30869,33033,39036,2
0.0,0.0,0.0,15773,11354,30900,32966,39160,2
0.0,0.0,0.0,15773,11354,30900,33033,39036,2
0.0,0.0,0.0,15773,11354,30838,32966,39077,2
0.0,0.0,0.0,15741,11379,30869,32932,39077,2
0.0,0.0,0.0,15773,11379,30900,33033,38995,2
0.0,0.0,0.0,15773,11354,30869,32932,39077,2
0.0,0.0,0.0,15789,11341,30838,32966,38953,2
0.0,0.0,0.0,15773,11354,30838,32899,39077,2
0.0,0.0,0.0,15789,11366,30838,32899,38953,2
0.0,0.0,0.0,15773,11354,30807,32899,39036,2
0.0,0.0,0.0,15726,11366,30776,32932,38995,2
0.0,0.0,0.0,15773,11366,30776,32932,38995,2
0.0,0.0,0.0,15789,11403,30807,32899,38953,2
0.0,0.0,0.0,15773,11403,30838,32832,38995,2
0.0,0.0,0.0,15726,11341,30776,32899,38995,2
0.0,0.0,0.0,15741,11317,30715,32866,38871,2
0.0,0.0,0.0,15741,11304,30715,32899,38912,2
0.0,0.0,0.0,15773,11280,30715,32832,38912,2
0.0,0.0,0.0,15710,11268,30622,32832,38830,2
0.0,0.0,0.0,15741,11206,30622,32832,38871,2
0.0,0.0,0.0,15741,11170,30591,32765,38912,2
0.0,0.0,0.0,15741,11170,30561,32799,38830,2
0.0,0.0,0.0,15741,11157,30591,32799,38912,2
0.0,0.0,0.0,15726,11109,30499,32765,38995,2
0.0,0.0,0.0,15741,11060,30469,32765,38789,2
0.0,0.0,0.0,15710,11012,30408,32765,38871,2
0.0,0.0,0.0,15726,10987,30469,32765,38871,2
0.0,0.0,0.0,15710,10987,30469,32765,38830,2
0.0,0.0,0.0,15710,11012,30469,32699,38789,2
0.0,0.0,0.0,15726,10963,30408,32666,38707,2
0.0,0.0,0.0,15726,10975,30347,32633,38748,2
0.0,0.0,0.0,15726,10975,30347,32699,38707,2
0.0,0.0,0.0,15710,10963,30377,32599,38625,2
0.0,0.0,0.0,15726,10963,30408,32633,38666,2
0.0,0.0,0.0,15741,10927,30347,32633,38666,2
0.0,0.0,0.0,15710,10915,30286,32633,38666,2
0.0,0.0,0.0,15678,10891,30286,32566,38625,2
0.0,0.0,0.0,15694,10891,30286,32566,38544,2
0.0,0.0,0.0,15663,10867,30347,32533,38503,2
0.0,0.0,0.0,15663,10843,30256,32533,38503,2
0.0,0.0,0.0,15647,10819,30226,32500,38503,2
0.0,0.0,0.0,15678,10819,30226,32435,38503,2
0.0,0.0,0.0,15663,10819,30226,32435,38544,2
0.0,0.0,0.0,15710,10771,30165,32402,38422,2
0.0,0.0,0.0,15741,10748,30286,32435,38748,2
0.0,0.0,0.0,15726,10688,30256,32435,38748,2
0.0,0.0,0.0,15663,10676,30165,32369,38625,2
0.0,0.0,0.0,15663,10676,30165,32369,38585,2
0.0,0.0,0.0,15663,10676,30105,32402,38544,2
0.0,0.0,0.0,15647,10676,30075,32271,38422,2
0.0,0.0,0.0,15647,10676,30075,32369,38382,2
0.0,0.0,0.0,15663,10676,30045,32369,38422,2
0.0,0.0,0.0,15663,10676,30045,32369,38422,2
0.0,0.0,0.0,15647,10688,30045,32369,38422,2
0.0,0.0,0.0,15663,10688,29955,32369,38422,2
0.0,0.0,0.0,15678,10688,29984,32336,38382,2
0.0,0.0,0.0,15647,10700,30015,32303,38341,2
0.0,0.0,0.0,15631,10700,30045,32303,38382,2
0.0,0.0,0.0,15647,10688,29984,32271,38382,2
0.0,0.0,0.0,15647,10700,30015,32369,38341,2
0.0,0.0,0.0,15647,10700,30015,32303,38463,2
0.0,0.0,0.0,15647,10688,29955,32336,38422,2
0.0,0.0,0.0,15647,10700,29984,32271,38422,2
0.0,0.0,0.0,15647,10700,29984,32271,38422,2
0.0,0.0,0.0,15663,10688,30015,32369,38341,2
0.0,0.0,0.0,15647,10700,29895,32271,38220,2
0.0,0.0,0.0,15615,10700,29955,32238,38382,2
0.0,0.0,0.0,15647,10724,29895,32271,38341,2
0.0,0.0,0.0,15647,10724,29925,32271,38341,2
0.0,0.0,0.0,15663,10724,29955,32303,38503,2
0.0,0.0,0.0,15615,10724,29895,32271,38260,2
0.0,0.0,0.0,15615,10724,29925,32238,38341,2
0.0,0.0,0.0,15631,10748,29925,32205,38301,2
0.0,0.0,0.0,15647,10748,29895,32173,38301,2
0.0,0.0,0.0,15615,10748,29955,32173,38180,2
0.0,0.0,0.0,15647,10748,29805,32271,38260,2
0.0,0.0,0.0,15647,10759,29925,32205,38260,2
0.0,0.0,0.0,15647,10748,29865,32238,38260,2
0.0,0.0,0.0,15631,10771,29895,32173,38180,2
0.0,0.0,0.0,15647,10783,29925,32238,38260,2
0.0,0.0,0.0,15663,10795,29895,32238,38180,2
0.0,0.0,0.0,15710,10783,29895,32173,38059,2
0.0,0.0,0.0,15710,10783,29895,32173,38059,2
0.0,0.0,0.0,15710,10795,29865,32140,38059,2
0.0,0.0,0.0,15726,10783,29895,32140,38100,2
0.0,0.0,0.0,15710,10795,29925,32205,38180,2
0.0,0.0,0.0,15741,10795,29865,32238,38180,2
0.0,0.0,0.0,15726,10795,29895,32173,38100,2
0.0,0.0,0.0,15726,10819,29895,32173,38019,2
0.0,0.0,0.0,15710,10795,29895,32140,38059,2
0.0,0.0,0.0,15726,10819,29865,32173,38180,2
0.0,0.0,0.0,15710,10819,29865,32173,38100,2
0.0,0.0,0.0,15710,10819,29865,32173,38059,2
0.0,0.0,0.0,15678,10807,29805,32140,38019,2
0.0,0.0,0.0,15710,10819,29835,32173,38100,2
0.0,0.0,0.0,15678,10819,29805,32140,37980,2
0.0,0.0,0.0,15678,10819,29775,32108,38019,2
0.0,0.0,0.0,15663,10831,29835,32108,38100,2
0.0,0.0,0.0,15647,10831,29746,32140,38019,2
0.0,0.0,0.0,15663,10819,29835,32108,37940,2
0.0,0.0,0.0,15678,10819,29805,32043,37940,2
0.0,0.0,0.0,15710,10819,29805,32043,37940,2
0.0,0.0,0.0,15663,10807,29805,32108,38019,2
0.0,0.0,0.0,15647,10819,29805,32075,38059,2
0.0,0.0,0.0,15647,10831,29746,32075,37980,2
0.0,0.0,0.0,15647,10819,29746,32043,38019,2
0.0,0.0,0.0,15663,10819,29775,32075,37980,2
0.0,0.0,0.0,15647,10819,29775,32043,38059,2
0.0,0.0,0.0,15647,10819,29746,32108,37940,2
0.0,0.0,0.0,15647,10867,29746,32075,37940,2
0.0,0.0,0.0,15647,10843,29775,32108,37940,2
0.0,0.0,0.0,15647,10855,29775,32043,37980,2
0.0,0.0,0.0,15663,10855,29686,32075,38019,2
0.0,0.0,0.0,15615,10867,29775,32075,38019,2
0.0,0.0,0.0,15647,10903,29746,32043,38019,2
0.0,0.0,0.0,15647,10867,29805,31978,38019,2
0.0,0.0,0.0,15647,10843,29746,32043,38059,2
0.0,0.0,0.0,15615,10843,29746,32075,38220,2
0.0,0.0,0.0,15647,10855,29716,32108,38220,2
0.0,0.0,0.0,15631,10831,29716,31978,38180,2
0.0,0.0,0.0,15600,10843,29686,32043,38019,2
0.0,0.0,0.0,15647,10843,29657,31978,38140,2
0.0,0.0,0.0,15615,10831,29657,32010,38100,2
0.0,0.0,0.0,15600,10843,29627,31978,38019,2
0.0,0.0,0.0,15584,10819,29686,32043,38059,2
0.0,0.0,0.0,15600,10831,29627,31978,38019,2
0.0,0.0,0.0,15584,10795,29627,32043,38019,2
0.0,0.0,0.0,15600,10819,29657,32043,38059,2
0.0,0.0,0.0,15615,10795,29746,31978,38100,2
0.0,0.0,0.0,15584,10819,29597,31978,38059,2
0.0,0.0,0.0,15600,10771,29509,31978,37940,2
0.0,0.0,0.0,15600,10795,29597,31978,38140,2
0.0,0.0,0.0,15584,10771,29568,31978,38019,2
0.0,0.0,0.0,15584,10771,29568,31978,38019,2
0.0,0.0,0.0,15600,10748,29568,31946,37940,2
0.0,0.0,0.0,15615,10748,29627,31978,38019,2
0.0,0.0,0.0,15631,10748,29538,31849,37940,2
0.0,0.0,0.0,15600,10748,29538,31913,37900,2
0.0,0.0,0.0,15615,10748,29509,31849,38019,2
0.0,0.0,0.0,15615,10748,29509,31849,38019,2
0.0,0.0,0.0,15615,10748,29509,31817,38100,2
0.0,0.0,0.0,15615,10724,29479,31785,38019,2
0.0,0.0,0.0,15584,10724,29450,31849,38019,2
0.0,0.0,0.0,15584,10700,29509,31849,38140,2
0.0,0.0,0.0,15600,10688,29450,31849,38019,2
0.0,0.0,0.0,15600,10676,29509,31849,38100,2
0.0,0.0,0.0,15584,10676,29450,31785,38059,2
0.0,0.0,0.0,15584,10676,29421,31849,38100,2
0.0,0.0,0.0,15584,10641,29509,31752,38180,2
0.0,0.0,0.0,15584,10653,29391,31785,38180,2
0.0,0.0,0.0,15584,10676,29391,31720,38100,2
0.0,0.0,0.0,15553,10629,29391,31720,38140,2
0.0,0.0,0.0,15600,10641,29391,31785,38260,2
0.0,0.0,0.0,15584,10653,29421,31752,38180,2
0.0,0.0,0.0,15584,10641,29391,31752,37940,2
0.0,0.0,0.0,15584,10629,29333,31752,38059,2
0.0,0.0,0.0,15584,10641,29391,31720,38100,2
0.0,0.0,0.0,15553,10629,29362,31752,38220,2
0.0,0.0,0.0,15553,10641,29333,31785,38100,2
0.0,0.0,0.0,15537,10641,29333,31720,38019,2
0.0,0.0,0.0,15584,10641,29304,31688,38100,2
0.0,0.0,0.0,15553,10641,29304,31720,37940,2
0.0,0.0,0.0,15553,10653,29333,31720,37940,2
0.0,0.0,0.0,15553,10653,29274,31688,38019,2
0.0,0.0,0.0,15553,10653,29274,31720,38019,2
0.0,0.0,0.0,15584,10676,29333,31656,37940,2
0.0,0.0,0.0,15584,10676,29274,31720,38180,2
0.0,0.0,0.0,15584,10653,29274,31656,38019,2
0.0,0.0,0.0,15553,10676,29274,31752,38059,2
0.0,0.0,0.0,15568,10653,29216,31624,37940,2
0.0,0.0,0.0,15553,10641,29274,31624,38180,2
0.0,0.0,0.0,15537,10653,29216,31688,38100,2
0.0,0.0,0.0,15521,10676,29274,31656,38100,2
0.0,0.0,0.0,15553,10676,29245,31624,38100,2
0.0,0.0,0.0,15553,10676,29274,31656,37900,2
0.0,0.0,0.0,15584,10688,29216,31624,37980,2
0.0,0.0,0.0,15537,10676,29158,31656,38100,2
0.0,0.0,0.0,15584,10676,29216,31624,38059,2
0.0,0.0,0.0,15537,10641,29274,31656,38140,2
0.0,0.0,0.0,15553,10676,29274,31593,38100,2
0.0,0.0,0.0,15553,10676,29216,31593,38100,2
0.0,0.0,0.0,15521,10676,29216,31656,38100,2
0.0,0.0,0.0,15553,10664,29216,31593,38019,2
0.0,0.0,0.0,15521,10700,29216,31593,38019,2
0.0,0.0,0.0,15553,10700,29216,31624,37940,2
0.0,0.0,0.0,15521,10724,29158,31593,37980,2
0.0,0.0,0.0,15553,10712,29158,31593,37781,2
0.0,0.0,0.0,15553,10724,29216,31593,37860,2
0.0,0.0,0.0,15521,10712,29216,31593,37940,2
0.0,0.0,0.0,15553,10700,29187,31593,38019,2
0.0,0.0,0.0,15521,10724,29216,31497,37940,2
0.0,0.0,0.0,15521,10724,29158,31529,37860,2
0.0,0.0,0.0,15521,10700,29158,31624,37980,2
0.0,0.0,0.0,15584,10700,29187,31593,38100,2
0.0,0.0,0.0,15521,10748,29158,31529,38019,2
0.0,0.0,0.0,15506,10700,29187,31529,37900,2
0.0,0.0,0.0,15521,10724,29100,31465,37980,2
0.0,0.0,0.0,15521,10688,29100,31497,37860,2
0.0,0.0,0.0,15506,10676,29100,31465,37940,2
0.0,0.0,0.0,15521,10629,29158,31497,37940,2
0.0,0.0,0.0,15490,10629,29158,31465,37860,2
0.0,0.0,0.0,15459,10629,29158,31402,37940,2
0.0,0.0,0.0,15459,10594,29187,31307,38059,2
0.0,0.0,0.0,15521,10558,29100,31056,37860,2
0.0,0.0,0.0,15490,10546,29158,30838,37426,2
0.0,0.0,0.0,15521,10511,29158,30408,37701,2
0.0,0.0,0.0,15568,10511,28984,30377,37504,2
0.0,0.0,0.0,15553,10488,28955,30286,37426,2
0.0,0.0,0.0,15537,10488,28869,30226,37426,2
0.0,0.0,0.0,15521,10488,28869,30226,37465,2
0.0,0.0,0.0,15521,10464,28869,30286,37386,2
0.0,0.0,0.0,15521,10464,28812,30195,37386,2
0.0,0.0,0.0,15521,10441,28812,30256,37426,2
0.0,0.0,0.0,15521,10441,28869,30195,37386,2
0.0,0.0,0.0,15521,10453,28812,30226,37386,2
0.0,0.0,0.0,15506,10453,28726,30195,37465,2
0.0,0.0,0.0,15475,10453,28726,30226,37386,2
0.0,0.0,0.0,15521,10464,28726,30165,37504,2
0.0,0.0,0.0,15459,10453,28612,30226,36998,2
0.0,0.0,0.0,15475,10488,28527,30165,36843,2
0.0,0.0,0.0,15459,10453,28583,30226,36843,2
0.0,0.0,0.0,15459,10453,28583,30195,36767,2
0.0,0.0,0.0,15459,10488,28583,30256,36728,2
0.0,0.0,0.0,15475,10488,28527,30286,36767,2
0.0,0.0,0.0,15537,10453,28527,30438,36843,2
0.0,0.0,0.0,15615,10453,28583,30469,36998,2
0.0,0.0,0.0,15773,10453,28726,30622,37036,2
0.0,0.0,0.0,15884,10418,28869,30715,36998,2
0.0,0.0,0.0,15948,10418,28927,30684,36998,2
0.0,0.0,0.0,15932,10418,28927,30745,36998,2
0.0,0.0,0.0,15964,10394,29042,30653,36920,2
0.0,0.0,0.0,15964,10394,29042,30653,36920,2
0.0,0.0,0.0,16028,10394,29391,30653,36998,2
0.0,0.0,0.0,16060,10371,30075,30684,36998,2
0.0,0.0,0.0,15964,10359,30347,30622,36959,2
0.0,0.0,0.0,15852,10371,30745,30653,37152,2
0.0,0.0,0.0,15900,10359,30994,30715,37114,2
0.0,0.0,0.0,15900,10359,31087,30715,37152,2
0.0,0.0,0.0,15900,10394,31213,30715,37036,2
0.0,0.0,0.0,15964,10394,31244,30776,37075,2
0.0,0.0,0.0,15964,10371,31244,30838,37075,2
0.0,0.0,0.0,15964,10371,31150,30776,37075,2
0.0,0.0,0.0,15996,10371,31213,30776,37075,2
0.0,0.0,0.0,15996,10394,31276,30869,37075,2
0.0,0.0,0.0,16028,10394,31370,30869,37036,2
0.0,0.0,0.0,15996,10394,31276,30807,37036,2
0.0,0.0,0.0,15996,10394,31213,30900,36998,2
0.0,0.0,0.0,15964,10394,31213,30962,36998,2
0.0,0.0,0.0,15916,10394,31119,30900,36959,2
0.0,0.0,0.0,15964,10406,31181,30838,36998,2
0.0,0.0,0.0,15932,10406,31119,30838,36998,2
0.0,0.0,0.0,15964,10394,31087,30838,36998,2
0.0,0.0,0.0,15996,10418,31119,30807,36998,2
0.0,0.0,0.0,15964,10406,31119,30838,36998,2
0.0,0.0,0.0,15964,10406,31087,30838,36959,2
0.0,0.0,0.0,15964,10418,31087,30776,36920,2
0.0,0.0,0.0,15900,10418,30994,30776,37075,2
0.0,0.0,0.0,15916,10406,30994,30745,37036,2
0.0,0.0,0.0,15900,10406,30900,30715,36920,2
0.0,0.0,0.0,15900,10418,30962,30745,36959,2
0.0,0.0,0.0,15884,10406,30838,30715,36998,2
0.0,0.0,0.0,15900,10406,30838,30653,36920,2
0.0,0.0,0.0,15884,10418,30838,30715,36920,2
0.0,0.0,0.0,15852,10394,30838,30653,36998,2
0.0,0.0,0.0,15948,10394,30715,30591,36920,2
0.0,0.0,0.0,15932,10394,30745,30530,36998,2
0.0,0.0,0.0,15964,10371,30838,30591,36998,2
0.0,0.0,0.0,16109,10359,31056,30591,37230,2
0.0,0.0,0.0,16368,10325,31624,30776,37701,2
0.0,0.0,0.0,16417,10301,31465,30807,37860,2
0.0,0.0,0.0,16648,10301,31465,30776,37940,2
0.0,0.0,0.0,16748,10267,31402,30776,38220,2
0.0,0.0,0.0,16765,10267,31213,30653,38019,2
0.0,0.0,0.0,16748,10255,31150,30653,37860,2
0.0,0.0,0.0,16748,10267,31025,30561,37940,2
0.0,0.0,0.0,16715,10278,31025,30561,37701,2
0.0,0.0,0.0,16681,10278,30838,30499,37662,2
0.0,0.0,0.0,16615,10290,30807,30561,37662,2
0.0,0.0,0.0,16549,10267,30776,30530,37543,2
0.0,0.0,0.0,16483,10290,30715,30408,37543,2
0.0,0.0,0.0,16483,10301,30715,30408,37543,2
0.0,0.0,0.0,16434,10301,30653,30408,37426,2
0.0,0.0,0.0,16483,10290,30622,30408,37426,2
0.0,0.0,0.0,16417,10301,30653,30408,37504,2
0.0,0.0,0.0,16417,10301,30653,30347,37426,2
0.0,0.0,0.0,16401,10301,30622,30408,37308,2
0.0,0.0,0.0,16385,10301,30715,30347,37308,2
0.0,0.0,0.0,16368,10301,30684,30347,37308,2
0.0,0.0,0.0,16368,10325,30591,30347,37465,2
0.0,0.0,0.0,16319,10325,30622,30347,37386,2
0.0,0.0,0.0,16352,10313,30591,30286,37308,2
0.0,0.0,0.0,16319,10301,30591,30256,37426,2
0.0,0.0,0.0,16352,10325,30591,30226,37230,2
0.0,0.0,0.0,16287,10348,30591,30226,37269,2
0.0,0.0,0.0,16303,10325,30591,30286,37230,2
0.0,0.0,0.0,16303,10325,30591,30256,37308,2
0.0,0.0,0.0,16287,10325,30591,30226,37230,2
0.0,0.0,0.0,16271,10301,30591,30226,37230,2
0.0,0.0,0.0,16271,10313,30591,30226,37230,2
0.0,0.0,0.0,16238,10348,30530,30226,37152,2
0.0,0.0,0.0,16222,10336,30530,30226,37114,2
0.0,0.0,0.0,16222,10348,30530,30165,37152,2
0.0,0.0,0.0,16189,10348,30530,30226,37114,2
0.0,0.0,0.0,16238,10348,30530,30286,37075,2
0.0,0.0,0.0,16222,10348,30530,30256,37152,2
0.0,0.0,0.0,16238,10371,30591,30256,37269,2
0.0,0.0,0.0,16173,10348,30530,30226,37152,2
0.0,0.0,0.0,16222,10348,30561,30165,37152,2
0.0,0.0,0.0,16173,10371,30591,30195,37230,2
0.0,0.0,0.0,16173,10348,30530,30226,37230,2
0.0,0.0,0.0,16157,10348,30499,30286,37152,2
0.0,0.0,0.0,16157,10348,30499,30165,37152,2
0.0,0.0,0.0,16157,10348,30591,30165,37114,2
0.0,0.0,0.0,16093,10325,30591,30165,37230,2
0.0,0.0,0.0,16060,10336,30530,30165,37114,2
0.0,0.0,0.0,16060,10313,30530,30226,37230,2
0.0,0.0,0.0,16060,10325,30530,30165,37269,2
0.0,0.0,0.0,16060,10325,30499,30165,37152,2
0.0,0.0,0.0,16028,10394,30684,30165,37308,2
0.0,0.0,0.0,16012,10325,30776,30165,37269,2
0.0,0.0,0.0,15980,10313,30591,30165,37152,2
0.0,0.0,0.0,15964,10313,30591,30135,37152,2
0.0,0.0,0.0,15980,10325,30622,30105,37152,2
0.0,0.0,0.0,15964,10313,30622,30105,37152,2
0.0,0.0,0.0,15964,10313,30653,30165,37114,2
0.0,0.0,0.0,15980,10313,30653,30165,37230,2
0.0,0.0,0.0,15916,10325,30653,30165,37230,2
0.0,0.0,0.0,15964,10348,30591,30165,37230,2
0.0,0.0,0.0,15964,10325,30530,30105,37114,2
0.0,0.0,0.0,15964,10348,30530,30165,36998,2
0.0,0.0,0.0,15932,10348,30591,30105,37075,2
0.0,0.0,0.0,15932,10348,30530,30165,37191,2
0.0,0.0,0.0,15932,10359,30561,30165,37152,2
0.0,0.0,0.0,15964,10394,30591,30105,37075,2
0.0,0.0,0.0,15916,10371,30530,30105,37075,2
0.0,0.0,0.0,15964,10371,30591,30165,37114,2
0.0,0.0,0.0,15916,10371,30622,30165,37230,2
0.0,0.0,0.0,15916,10371,30591,30195,37152,2
0.0,0.0,0.0,15948,10371,30530,30165,37075,2
0.0,0.0,0.0,15932,10371,30530,30105,37075,2
0.0,0.0,0.0,15932,10394,30591,30165,37152,2
0.0,0.0,0.0,15916,10383,30530,30105,36998,2
0.0,0.0,0.0,15900,10394,30591,30165,37191,2
0.0,0.0,0.0,15916,10394,30591,30165,37230,2
0.0,0.0,0.0,15900,10394,30561,30165,37230,2
0.0,0.0,0.0,15900,10406,30499,30195,37075,2
0.0,0.0,0.0,15932,10394,30591,30165,37230,2
0.0,0.0,0.0,15852,10394,30499,30105,37075,2
0.0,0.0,0.0,15868,10394,30499,30135,37036,2
0.0,0.0,0.0,15900,10406,30499,30165,36998,2
0.0,0.0,0.0,15900,10406,30499,30135,37036,2
0.0,0.0,0.0,15868,10441,30499,30165,36882,2
0.0,0.0,0.0,15916,10441,30499,30105,36959,2
0.0,0.0,0.0,15900,10429,30469,30135,36920,2
0.0,0.0,0.0,15900,10418,30530,30165,37075,2
0.0,0.0,0.0,15868,10441,30469,30165,37075,2
0.0,0.0,0.0,15900,10441,30499,30045,36998,2
0.0,0.0,0.0,15868,10441,30469,30165,37075,2
0.0,0.0,0.0,15868,10406,30530,30165,37075,2
0.0,0.0,0.0,15852,10441,30469,30165,37075,2
0.0,0.0,0.0,15868,10406,30499,30075,36998,2
0.0,0.0,0.0,15868,10418,30499,30105,36959,2
0.0,0.0,0.0,15868,10418,30530,30105,36998,2
0.0,0.0,0.0,15868,10441,30469,30045,36998,2
0.0,0.0,0.0,15852,10441,30469,30105,36959,2
0.0,0.0,0.0,15852,10441,30438,30075,36959,2
0.0,0.0,0.0,15852,10418,30469,30165,36959,2
0.0,0.0,0.0,15837,10394,30408,30105,36959,2
0.0,0.0,0.0,15789,10394,30347,30105,36998,2
0.0,0.0,0.0,15837,10394,30408,30045,36882,2
0.0,0.0,0.0,15900,10394,30469,30105,36920,2
0.0,0.0,0.0,15837,10394,30469,30165,36998,2
0.0,0.0,0.0,15789,10371,30408,30045,36920,2
0.0,0.0,0.0,15789,10348,30469,30105,36920,2
0.0,0.0,0.0,15789,10348,30499,29984,36843,2
0.0,0.0,0.0,15837,10325,30591,30045,36920,2
0.0,0.0,0.0,15773,10325,30591,30045,37114,2
0.0,0.0,0.0,15805,10325,30653,29984,36920,2
0.0,0.0,0.0,15789,10301,30530,29925,37075,2
0.0,0.0,0.0,15773,10313,30530,29984,36998,2
0.0,0.0,0.0,15837,10301,30530,29984,36843,2
0.0,0.0,0.0,15789,10325,30499,29895,36920,2
0.0,0.0,0.0,15773,10301,30469,29925,36843,2
0.0,0.0,0.0,15773,10325,30408,29984,36998,2
0.0,0.0,0.0,15757,10313,30347,29925,36920,2
0.0,0.0,0.0,15789,10313,30347,29984,36959,2
0.0,0.0,0.0,15773,10325,30408,29925,36920,2
0.0,0.0,0.0,15773,10325,30408,29925,36843,2
0.0,0.0,0.0,15773,10325,30317,29895,36767,2
0.0,0.0,0.0,15757,10348,30469,29895,36843,2
0.0,0.0,0.0,15789,10348,30377,29925,36805,2
0.0,0.0,0.0,15741,10348,30317,29925,36843,2
0.0,0.0,0.0,15741,10348,30286,29925,36882,2
0.0,0.0,0.0,15741,10383,30286,29895,36767,2
0.0,0.0,0.0,15726,10359,30286,29895,36767,2
0.0,0.0,0.0,15773,10394,30347,29984,36843,2
0.0,0.0,0.0,15741,10371,30347,29984,36767,2
0.0,0.0,0.0,15789,10394,30377,29984,36767,2
0.0,0.0,0.0,15710,10394,30408,29925,36767,2
0.0,0.0,0.0,15741,10394,30347,29984,36920,2
0.0,0.0,0.0,15741,10394,30286,30015,36843,2
0.0,0.0,0.0,15773,10394,30377,29955,36690,2
0.0,0.0,0.0,15710,10394,30408,29955,36767,2
0.0,0.0,0.0,15726,10394,30347,29955,36767,2
0.0,0.0,0.0,15741,10406,30347,29895,36767,2
0.0,0.0,0.0,15741,10394,30377,29984,36805,2
0.0,0.0,0.0,15741,10418,30347,30045,36805,2
0.0,0.0,0.0,15741,10406,30347,29865,36805,2
0.0,0.0,0.0,15757,10418,30377,29984,36767,2
0.0,0.0,0.0,15710,10394,30317,29984,36690,2
0.0,0.0,0.0,15710,10406,30286,29984,36690,2
0.0,0.0,0.0,15710,10406,30317,29984,36767,2
0.0,0.0,0.0,15726,10488,30347,29984,36690,2
0.0,0.0,0.0,15726,10406,30317,30015,36690,2
0.0,0.0,0.0,15678,10394,30286,30015,36728,2
0.0,0.0,0.0,15647,10371,30438,29984,36805,2
0.0,0.0,0.0,15615,10348,30499,30045,36767,2
0.0,0.0,0.0,15584,10348,30530,29984,36843,2
0.0,0.0,0.0,15521,10325,30715,29925,36767,2
0.0,0.0,0.0,15412,10313,30931,29925,36614,2
0.0,0.0,0.0,15397,10301,31244,29984,36538,2
0.0,0.0,0.0,15335,10301,31465,29925,36499,2
0.0,0.0,0.0,15335,10255,31465,29865,36614,2
0.0,0.0,0.0,15366,10267,31402,29865,37075,2
0.0,0.0,0.0,15366,10255,31244,29865,36843,2
0.0,0.0,0.0,15366,10255,31276,29895,36728,2
0.0,0.0,0.0,15381,10267,31213,29895,36882,2
0.0,0.0,0.0,15366,10255,31150,29805,36614,2
0.0,0.0,0.0,15366,10267,31150,29746,36728,2
0.0,0.0,0.0,15366,10267,31119,29805,36690,2
0.0,0.0,0.0,15366,10267,30994,29746,36576,2
0.0,0.0,0.0,15366,10278,31025,29805,36690,2
0.0,0.0,0.0,15397,10278,30962,29775,36690,2
0.0,0.0,0.0,15366,10301,30994,29805,36728,2
0.0,0.0,0.0,15335,10278,30962,29775,36538,2
0.0,0.0,0.0,15350,10278,30994,29775,36462,2
0.0,0.0,0.0,15335,10301,30962,29865,36499,2
0.0,0.0,0.0,15366,10290,30962,29805,36538,2
0.0,0.0,0.0,15350,10313,30900,29746,36538,2
0.0,0.0,0.0,15366,10301,30900,29805,36499,2
0.0,0.0,0.0,15350,10301,30931,29746,36462,2
0.0,0.0,0.0,15350,10313,30869,29746,36538,2
0.0,0.0,0.0,15366,10313,30869,29716,36499,2
0.0,0.0,0.0,15335,10301,30838,29835,36462,2
0.0,0.0,0.0,15335,10313,30838,29746,36499,2
0.0,0.0,0.0,15335,10325,30869,29657,36462,2
0.0,0.0,0.0,15335,10348,30838,29746,36499,2
0.0,0.0,0.0,15350,10313,30745,29686,36538,2
0.0,0.0,0.0,15366,10313,30684,29746,36462,2
0.0,0.0,0.0,15397,10371,30684,29686,36462,2
0.0,0.0,0.0,15397,10348,30715,29657,36462,2
0.0,0.0,0.0,15366,10371,30653,29627,36348,2
0.0,0.0,0.0,15397,10313,30715,29805,36348,2
0.0,0.0,0.0,15335,10394,30653,29657,36310,2
0.0,0.0,0.0,15366,10371,30622,29627,36386,2
0.0,0.0,0.0,15335,10371,30715,29686,36386,2
0.0,0.0,0.0,15335,10359,30653,29746,36310,2
0.0,0.0,0.0,15350,10394,30653,29686,36348,2
0.0,0.0,0.0,15366,10383,30622,29686,36386,2
0.0,0.0,0.0,15350,10441,30622,29627,36310,2
0.0,0.0,0.0,15443,10453,30622,29657,36310,2
0.0,0.0,0.0,15459,10499,30591,29657,36386,2
0.0,0.0,0.0,15459,10488,30591,29686,36310,2
0.0,0.0,0.0,15475,10546,30530,29657,36310,2
0.0,0.0,0.0,15521,10975,30499,29686,36310,2
0.0,0.0,0.0,15521,11036,30530,29686,36424,2
0.0,0.0,0.0,15521,11292,30591,29597,36348,2
0.0,0.0,0.0,15459,11354,30530,29597,36235,2
0.0,0.0,0.0,15475,11354,30469,29627,36272,2
0.0,0.0,0.0,15459,11317,30499,29657,36197,2
0.0,0.0,0.0,15490,11329,30469,29597,36310,2
0.0,0.0,0.0,15443,11255,30377,29597,36047,2
0.0,0.0,0.0,15459,11206,30377,29509,36047,2
0.0,0.0,0.0,15459,11194,30377,29568,36197,2
0.0,0.0,0.0,15397,11182,30377,29627,36160,2
0.0,0.0,0.0,15428,11157,30286,29568,36085,2
0.0,0.0,0.0,15443,11157,30347,29568,36010,2
0.0,0.0,0.0,15459,11157,30347,29479,36085,2
0.0,0.0,0.0,15428,11109,30286,29538,36010,2
0.0,0.0,0.0,15412,11121,30286,29538,36047,2
0.0,0.0,0.0,15412,11109,30256,29538,36160,2
0.0,0.0,0.0,15412,11133,30256,29479,36122,2
0.0,0.0,0.0,15397,11109,30286,29538,36047,2
0.0,0.0,0.0,15459,11121,30317,29538,36160,2
0.0,0.0,0.0,15412,11121,30256,29509,36160,2
0.0,0.0,0.0,15428,11109,30256,29538,36010,2
0.0,0.0,0.0,15428,11121,30286,29509,36010,2
0.0,0.0,0.0,15412,11109,30286,29568,36085,2
0.0,0.0,0.0,15428,11109,30286,29450,36047,2
0.0,0.0,0.0,15381,11096,30226,29568,36160,2
0.0,0.0,0.0,15397,11157,30469,29509,36047,2
0.0,0.0,0.0,15288,11255,30530,29509,36010,2
0.0,0.0,0.0,15335,11304,30408,29538,35935,2
0.0,0.0,0.0,15335,11304,30530,29568,35898,2
0.0,0.0,0.0,15412,11255,30469,29597,35861,2
0.0,0.0,0.0,15443,11157,30377,29538,35861,2
0.0,0.0,0.0,15459,11060,30377,29450,35639,2
0.0,0.0,0.0,15475,10975,30408,29362,35565,2
0.0,0.0,0.0,15428,10915,30317,29333,35455,2
0.0,0.0,0.0,15459,10867,30317,29274,35492,2
0.0,0.0,0.0,15412,10843,30286,29216,35492,2
0.0,0.0,0.0,15397,10819,30226,29216,35236,2
0.0,0.0,0.0,15397,10771,30105,29158,35272,2
0.0,0.0,0.0,15397,10783,30105,29100,35199,2
0.0,0.0,0.0,15381,10783,29984,29013,35127,2
0.0,0.0,0.0,15381,10819,29984,29042,35199,2
0.0,0.0,0.0,15335,10795,29955,29042,35272,2
0.0,0.0,0.0,15366,10831,29925,29042,35272,2
0.0,0.0,0.0,15335,10819,29895,29042,35272,2
0.0,0.0,0.0,15350,10879,29895,29042,35163,2
0.0,0.0,0.0,15335,10915,29895,28984,35199,2
0.0,0.0,0.0,15350,10927,29865,29042,35127,2
0.0,0.0,0.0,15335,10915,29865,28984,35199,2
0.0,0.0,0.0,15397,10951,29835,28984,35127,2
0.0,0.0,0.0,15350,10963,29865,28984,35199,2
0.0,0.0,0.0,15335,10963,29775,28984,35163,2
0.0,0.0,0.0,15350,10963,29895,29013,35199,2
0.0,0.0,0.0,15350,10987,29805,28984,35199,2
0.0,0.0,0.0,15366,10987,29865,28927,35272,2
0.0,0.0,0.0,15288,10987,29835,28955,35418,2
0.0,0.0,0.0,15288,10975,30045,29071,35528,2
0.0,0.0,0.0,15273,10987,30286,29158,35639,2
0.0,0.0,0.0,15288,10963,30347,29158,35639,2
0.0,0.0,0.0,15273,10891,30347,29304,35861,2
0.0,0.0,0.0,15335,10891,30408,29216,35861,2
0.0,0.0,0.0,15242,10867,30408,29304,35824,2
0.0,0.0,0.0,15273,10843,30347,29274,35787,2
0.0,0.0,0.0,15242,10819,30286,29274,35749,2
0.0,0.0,0.0,15227,10724,30256,29333,36010,2
0.0,0.0,0.0,15211,10700,30165,29304,36085,2
0.0,0.0,0.0,15211,10676,30105,29274,35861,2
0.0,0.0,0.0,15211,10641,30045,29274,36047,2
0.0,0.0,0.0,15211,10605,30015,29274,36160,2
0.0,0.0,0.0,15211,10558,29984,29216,35935,2
0.0,0.0,0.0,15211,10546,29925,29274,36010,2
0.0,0.0,0.0,15211,10558,29895,29216,36010,2
0.0,0.0,0.0,15211,10582,29925,29216,36010,2
0.0,0.0,0.0,15211,10546,29805,29216,35898,2
0.0,0.0,0.0,15211,10535,29865,29216,35861,2
0.0,0.0,0.0,15273,10535,29865,29216,35861,2
0.0,0.0,0.0,15211,10535,29865,29216,35787,2
0.0,0.0,0.0,15273,10535,29865,29187,35787,2
0.0,0.0,0.0,15211,10535,29805,29187,35861,2
0.0,0.0,0.0,15227,10535,29865,29187,35861,2
0.0,0.0,0.0,15227,10535,29835,29158,35787,2
0.0,0.0,0.0,15273,10499,29925,29216,35861,2
0.0,0.0,0.0,15273,10511,29925,29216,35861,2
0.0,0.0,0.0,15288,10535,30015,29274,35787,2
0.0,0.0,0.0,15165,10511,30530,29568,36197,2
0.0,0.0,0.0,15165,10535,30776,30015,36614,2
0.0,0.0,0.0,15211,10511,30838,30045,36538,2
0.0,0.0,0.0,15211,10488,30900,30105,36690,2
0.0,0.0,0.0,15335,10511,31056,30286,36959,2
0.0,0.0,0.0,15350,10488,31025,30408,37230,2
0.0,0.0,0.0,15647,10511,30869,30838,37465,2
0.0,0.0,0.0,16125,10546,30962,31529,38019,2
0.0,0.0,0.0,16582,10582,30745,31978,38463,2
0.0,0.0,0.0,17600,10641,30469,32303,38995,2
0.0,0.0,0.0,18129,10641,30286,32435,38995,2
0.0,0.0,0.0,18562,10688,30256,32500,38912,2
0.0,0.0,0.0,18672,10688,30105,32500,38995,2
0.0,0.0,0.0,18654,10724,30045,32435,38912,2
0.0,0.0,0.0,18727,10700,30015,32369,38830,2
0.0,0.0,0.0,18654,10700,29955,32173,38666,2
0.0,0.0,0.0,18599,10724,29895,32108,38585,2
0.0,0.0,0.0,18635,10748,29865,32043,38585,2
0.0,0.0,0.0,18544,10724,29805,31978,38503,2
0.0,0.0,0.0,18508,10724,29746,31978,38463,2
0.0,0.0,0.0,18489,10736,29686,31913,38341,2
0.0,0.0,0.0,18489,10700,29657,32010,38503,2
0.0,0.0,0.0,18471,10688,29657,31978,38463,2
0.0,0.0,0.0,18489,10688,29627,31913,38422,2
0.0,0.0,0.0,18489,10676,29657,31881,38463,2
0.0,0.0,0.0,18435,10676,29597,31881,38422,2
0.0,0.0,0.0,18417,10700,29627,31913,38503,2
0.0,0.0,0.0,18362,10676,29597,31881,38341,2
0.0,0.0,0.0,18380,10688,29627,31849,38382,2
0.0,0.0,0.0,18326,10724,29627,31752,38341,2
0.0,0.0,0.0,18254,10676,29627,31785,38140,2
0.0,0.0,0.0,18164,10700,29627,31656,38180,2
0.0,0.0,0.0,18147,10724,29568,31656,38220,2
0.0,0.0,0.0,18111,10700,29568,31656,38019,2
0.0,0.0,0.0,18093,10688,29597,31720,38059,2
0.0,0.0,0.0,18093,10712,29568,31561,37980,2
0.0,0.0,0.0,18057,10724,29509,31593,38059,2
0.0,0.0,0.0,18075,10688,29568,31593,37900,2
0.0,0.0,0.0,18075,10700,29479,31593,37940,2
0.0,0.0,0.0,18164,10700,29538,31593,37900,2
0.0,0.0,0.0,18236,10724,29509,31497,37900,2
0.0,0.0,0.0,18236,10700,29479,31497,37940,2
0.0,0.0,0.0,18164,10724,29479,31497,37701,2
0.0,0.0,0.0,18254,10724,29509,31593,37940,2
0.0,0.0,0.0,18236,10748,29538,31593,37940,2
0.0,0.0,0.0,18254,10748,29509,31593,37820,2
0.0,0.0,0.0,18200,10771,29479,31529,37781,2
0.0,0.0,0.0,18236,10771,29450,31529,37701,2
0.0,0.0,0.0,18272,10795,29479,31593,37781,2
0.0,0.0,0.0,18200,10795,29479,31561,37701,2
0.0,0.0,0.0,18236,10795,29421,31434,37583,2
0.0,0.0,0.0,18236,10795,29479,31465,37741,2
0.0,0.0,0.0,18272,10819,29450,31465,37662,2
0.0,0.0,0.0,18236,10795,29450,31529,37622,2
0.0,0.0,0.0,18272,10819,29391,31465,37701,2
0.0,0.0,0.0,18290,10831,29421,31497,37583,2
0.0,0.0,0.0,18417,10831,29333,31465,37622,2
0.0,0.0,0.0,18508,10891,29274,31497,37583,2
0.0,0.0,0.0,18709,10903,29274,31561,37701,2
0.0,0.0,0.0,19005,10963,29274,31593,37701,2
0.0,0.0,0.0,19306,10987,29274,31720,37900,2
0.0,0.0,0.0,19554,11024,29274,31785,37741,2
0.0,0.0,0.0,20236,11109,28984,31720,37426,2
0.0,0.0,0.0,20315,11121,28812,31720,37465,2
0.0,0.0,0.0,20058,11121,28754,31656,37191,2
0.0,0.0,0.0,19902,11109,28812,31656,37152,2
0.0,0.0,0.0,19863,11109,28812,31752,37230,2
0.0,0.0,0.0,19805,11109,28726,31593,37075,2
0.0,0.0,0.0,19785,11084,28754,31593,37075,2
0.0,0.0,0.0,19727,11084,28697,31561,37114,2
0.0,0.0,0.0,19708,11084,28726,31561,37075,2
0.0,0.0,0.0,19689,11084,28726,31497,37075,2
0.0,0.0,0.0,19689,11060,28697,31434,36959,2
0.0,0.0,0.0,19631,11024,28612,31497,36998,2
0.0,0.0,0.0,19612,11036,28640,31465,36959,2
0.0,0.0,0.0,19612,11048,28640,31465,36882,2
0.0,0.0,0.0,19573,11024,28612,31465,36920,2
0.0,0.0,0.0,19535,11024,28555,31370,36920,2
0.0,0.0,0.0,19401,10963,28470,31370,36920,2
0.0,0.0,0.0,19458,10963,28414,31339,36843,2
0.0,0.0,0.0,19458,10963,28414,31339,36805,2
0.0,0.0,0.0,19458,10951,28442,31307,36843,2
0.0,0.0,0.0,19477,10963,28442,31307,36767,2
0.0,0.0,0.0,19458,10963,28357,31339,36805,2
0.0,0.0,0.0,19458,10963,28414,31339,36843,2
0.0,0.0,0.0,19420,10987,28414,31307,36728,2
0.0,0.0,0.0,19420,10963,28357,31276,36805,2
0.0,0.0,0.0,19401,10987,28414,31213,36767,2
0.0,0.0,0.0,19382,10963,28385,31276,36690,2
0.0,0.0,0.0,19306,10963,28357,31276,36652,2
0.0,0.0,0.0,19382,10963,28385,31276,36767,2
0.0,0.0,0.0,19382,10975,28385,31276,36767,2
0.0,0.0,0.0,19325,10987,28357,31244,36576,2
0.0,0.0,0.0,19363,10975,28357,31244,36690,2
0.0,0.0,0.0,19344,10987,28301,31213,36690,2
0.0,0.0,0.0,19325,10975,28301,31181,36690,2
0.0,0.0,0.0,19268,10963,28301,31213,36652,2
0.0,0.0,0.0,19306,10963,28301,31213,36614,2
0.0,0.0,0.0,19268,10963,28301,31181,36614,2
0.0,0.0,0.0,19325,10963,28245,31213,36690,2
0.0,0.0,0.0,19306,10963,28217,31213,36614,2
0.0,0.0,0.0,19249,10963,28217,31181,36614,2
0.0,0.0,0.0,19249,10963,28189,31213,36614,2
0.0,0.0,0.0,19249,10963,28161,31087,36499,2
0.0,0.0,0.0,19212,10963,28245,31087,36462,2
0.0,0.0,0.0,19193,10939,28161,31150,36462,2
0.0,0.0,0.0,19193,10963,28189,31119,36462,2
0.0,0.0,0.0,19174,10963,28189,31087,36614,2
0.0,0.0,0.0,19212,10939,28133,31056,36538,2
0.0,0.0,0.0,19193,10963,28189,31150,36499,2
0.0,0.0,0.0,19174,10987,28189,31025,36538,2
0.0,0.0,0.0,19155,10963,28161,31087,36538,2
0.0,0.0,0.0,19118,10939,28161,31087,36576,2
0.0,0.0,0.0,19099,10963,28161,31087,36538,2
0.0,0.0,0.0,19118,10951,28189,31087,36462,2
0.0,0.0,0.0,19099,10939,28245,31056,36499,2
0.0,0.0,0.0,19136,10951,28133,31087,36538,2
0.0,0.0,0.0,19080,10963,28133,31056,36462,2
0.0,0.0,0.0,19080,10963,28189,31025,36576,2
0.0,0.0,0.0,19080,10975,28189,30962,36424,2
0.0,0.0,0.0,19080,10939,28245,31056,36462,2
0.0,0.0,0.0,19043,10927,28133,31025,36386,2
0.0,0.0,0.0,19080,10915,28049,30994,36386,2
0.0,0.0,0.0,19043,10867,28077,30962,36386,2
0.0,0.0,0.0,19043,10879,28105,30962,36386,2
0.0,0.0,0.0,18968,10867,28077,30900,36462,2
0.0,0.0,0.0,18949,10867,28077,30962,36424,2
0.0,0.0,0.0,19005,10867,28049,30962,36386,2
0.0,0.0,0.0,19005,10855,28105,30962,36538,2
0.0,0.0,0.0,18968,10879,28077,30900,36614,2
0.0,0.0,0.0,18931,10867,28077,30962,36462,2
0.0,0.0,0.0,18931,10867,28077,30962,36499,2
0.0,0.0,0.0,18931,10879,28022,30962,36462,2
0.0,0.0,0.0,18912,10867,28077,30931,36462,2
0.0,0.0,0.0,18912,10879,28049,30962,36462,2
0.0,0.0,0.0,18857,10891,28049,30869,36462,2
0.0,0.0,0.0,18801,10891,28022,30838,36462,2
0.0,0.0,0.0,18783,10891,28077,30900,36462,2
0.0,0.0,0.0,18783,10915,28105,30869,36462,2
0.0,0.0,0.0,18783,10927,28049,30869,36462,2
0.0,0.0,0.0,18783,11012,28133,30869,36462,2
0.0,0.0,0.0,18801,11206,28189,30838,36462,2
0.0,0.0,0.0,18783,11280,28133,30776,36462,2
0.0,0.0,0.0,18783,11280,28133,30807,36462,2
0.0,0.0,0.0,18783,11280,28049,30807,36462,2
0.0,0.0,0.0,18746,11219,28049,30776,36538,2
0.0,0.0,0.0,18746,11182,28049,30715,36348,2
0.0,0.0,0.0,18709,11157,28022,30776,36499,2
0.0,0.0,0.0,18635,11109,27994,30715,36310,2
0.0,0.0,0.0,18635,11060,28022,30684,36462,2
0.0,0.0,0.0,18635,11060,27966,30684,36386,2
0.0,0.0,0.0,18562,11036,27939,30653,36386,2
0.0,0.0,0.0,18526,11024,27911,30653,36348,2
0.0,0.0,0.0,18544,11024,27911,30653,36348,2
0.0,0.0,0.0,18544,11048,27911,30653,36310,2
0.0,0.0,0.0,18508,11036,27911,30591,36310,2
0.0,0.0,0.0,18453,11036,27994,30591,36310,2
0.0,0.0,0.0,18435,11036,27883,30653,36424,2
0.0,0.0,0.0,18489,11060,27911,30653,36462,2
0.0,0.0,0.0,18471,11024,27911,30591,36310,2
0.0,0.0,0.0,18435,11024,27911,30622,36462,2
0.0,0.0,0.0,18435,11036,27966,30591,36424,2
0.0,0.0,0.0,18435,11036,27856,30591,36386,2
0.0,0.0,0.0,18417,11012,27939,30622,36348,2
0.0,0.0,0.0,18453,11060,27939,30622,36462,2
0.0,0.0,0.0,18417,11060,28022,30684,36462,2
0.0,0.0,0.0,18344,11036,28022,30622,36462,2
0.0,0.0,0.0,18272,11060,27939,30653,36386,2
0.0,0.0,0.0,18326,11060,28049,30622,36386,2
0.0,0.0,0.0,18308,11048,28022,30653,36499,2
0.0,0.0,0.0,18344,11060,28022,30653,36499,2
0.0,0.0,0.0,18308,11060,27966,30653,36538,2
0.0,0.0,0.0,18308,11060,27966,30715,36614,2
0.0,0.0,0.0,18290,11060,27939,30591,36499,2
0.0,0.0,0.0,18290,11060,27939,30653,36424,2
0.0,0.0,0.0,18272,11060,27994,30591,36499,2
0.0,0.0,0.0,18290,11060,27966,30591,36310,2
0.0,0.0,0.0,18344,11060,27966,30622,36348,2
0.0,0.0,0.0,18236,11060,27939,30622,36424,2
0.0,0.0,0.0,18236,11060,27966,30561,36386,2
0.0,0.0,0.0,18272,11060,28022,30591,36235,2
0.0,0.0,0.0,18236,11060,27939,30561,36348,2
0.0,0.0,0.0,18272,11060,27966,30591,36462,2
0.0,0.0,0.0,18236,11048,27966,30653,36424,2
0.0,0.0,0.0,18254,11036,27966,30591,36348,2
0.0,0.0,0.0,18236,11024,27911,30530,36310,2
0.0,0.0,0.0,18218,11060,27966,30591,36348,2
0.0,0.0,0.0,18272,11024,27911,30530,36272,2
0.0,0.0,0.0,18236,11024,27939,30530,36462,2
0.0,0.0,0.0,18236,11012,27939,30530,36272,2
0.0,0.0,0.0,18236,11024,27911,30591,36310,2
0.0,0.0,0.0,18200,11024,27939,30530,36348,2
0.0,0.0,0.0,18272,11012,27911,30561,36386,2
0.0,0.0,0.0,18236,11012,28022,30530,36386,2
0.0,0.0,0.0,18272,11012,28022,30530,36235,2
0.0,0.0,0.0,18272,10891,28357,30469,35972,2
0.0,0.0,0.0,18236,10819,28301,30377,36010,2
0.0,0.0,0.0,18147,10795,28133,30347,36010,2
0.0,0.0,0.0,18200,10819,28077,30347,36010,2
0.0,0.0,0.0,18147,10831,28022,30347,36047,2
0.0,0.0,0.0,18200,10867,28022,30347,36010,2
0.0,0.0,0.0,18075,10891,27966,30347,36047,2
0.0,0.0,0.0,18164,10963,28049,30347,36010,2
0.0,0.0,0.0,18129,10987,27911,30286,36047,2
0.0,0.0,0.0,18093,11012,27966,30286,36010,2
0.0,0.0,0.0,18093,11036,27911,30347,36010,2
0.0,0.0,0.0,18129,11060,27939,30347,36160,2
0.0,0.0,0.0,18111,11084,27939,30286,36047,2
0.0,0.0,0.0,18129,11109,27966,30286,36047,2
0.0,0.0,0.0,18129,11084,27911,30317,36010,2
0.0,0.0,0.0,18129,11109,27911,30347,36122,2
0.0,0.0,0.0,18129,11109,27939,30317,36010,2
0.0,0.0,0.0,18164,11133,27966,30347,36047,2
0.0,0.0,0.0,18164,11121,27939,30377,36085,2
0.0,0.0,0.0,18147,11157,27994,30286,36010,2
0.0,0.0,0.0,18147,11182,27966,30286,35972,2
0.0,0.0,0.0,18075,11206,27911,30317,36047,2
0.0,0.0,0.0,18164,11170,27966,30408,35861,2
0.0,0.0,0.0,18129,11182,27939,30286,36010,2
0.0,0.0,0.0,18129,11182,27911,30286,36010,2
0.0,0.0,0.0,18129,11206,27939,30347,36010,2
0.0,0.0,0.0,18093,11170,27939,30347,36010,2
0.0,0.0,0.0,18129,11182,27939,30408,35898,2
0.0,0.0,0.0,18093,11182,27939,30377,36010,2
0.0,0.0,0.0,18093,11206,27911,30347,36010,2
0.0,0.0,0.0,18129,11194,27911,30377,35935,2
0.0,0.0,0.0,18093,11206,27966,30377,36010,2
0.0,0.0,0.0,18057,11231,27911,30286,36010,2
0.0,0.0,0.0,18093,11231,27939,30347,36010,2
0.0,0.0,0.0,18093,11206,27911,30408,35935,2
0.0,0.0,0.0,18093,11219,27911,30347,35935,2
0.0,0.0,0.0,18111,11219,27883,30347,36010,2
0.0,0.0,0.0,18129,11206,27911,30347,35898,2
0.0,0.0,0.0,18129,11206,27911,30226,35898,2
0.0,0.0,0.0,18129,11206,27939,30317,35861,2
0.0,0.0,0.0,18093,11206,27966,30286,35861,2
0.0,0.0,0.0,18075,11219,27911,30347,35824,2
0.0,0.0,0.0,18111,11206,27939,30286,35898,2
0.0,0.0,0.0,18129,11206,27883,30377,36010,2
0.0,0.0,0.0,18093,11219,27911,30256,35861,2
0.0,0.0,0.0,18129,11206,27911,30286,35861,2
0.0,0.0,0.0,18075,11182,27966,30286,35972,2
0.0,0.0,0.0,18093,11194,27939,30347,35861,2
0.0,0.0,0.0,18075,11182,27966,30286,35787,2
0.0,0.0,0.0,18093,11206,27911,30286,35787,2
0.0,0.0,0.0,18093,11206,27911,30256,35935,2
0.0,0.0,0.0,18093,11206,27911,30226,35824,2
0.0,0.0,0.0,18129,11182,27966,30286,35824,2
0.0,0.0,0.0,18075,11206,27911,30286,35935,2
0.0,0.0,0.0,18022,11170,27939,30286,35935,2
0.0,0.0,0.0,18039,11206,27911,30286,36010,2
0.0,0.0,0.0,18075,11182,27966,30256,35898,2
0.0,0.0,0.0,18075,11194,27883,30286,35787,2
0.0,0.0,0.0,18075,11182,27911,30347,35898,2
0.0,0.0,0.0,18093,11182,27939,30347,35861,2
0.0,0.0,0.0,18057,11206,27911,30286,35861,2
0.0,0.0,0.0,18075,11170,27883,30317,35861,2
0.0,0.0,0.0,18057,11206,27911,30286,35712,2
0.0,0.0,0.0,18057,11182,27911,30286,35898,2
0.0,0.0,0.0,18075,11182,27828,30256,35861,2
0.0,0.0,0.0,18093,11194,27911,30347,35861,2
0.0,0.0,0.0,18129,11182,27939,30347,35898,2
0.0,0.0,0.0,18164,11206,27911,30256,35824,2
0.0,0.0,0.0,18200,11157,27966,30347,35712,2
0.0,0.0,0.0,18200,11206,27856,30286,35787,2
0.0,0.0,0.0,18200,11206,27856,30347,35861,2
0.0,0.0,0.0,18290,11170,27911,30377,35861,2
0.0,0.0,0.0,18453,11170,27911,30347,35861,2
0.0,0.0,0.0,18417,11182,27828,30347,35861,2
0.0,0.0,0.0,18380,11182,27828,30286,35861,2
0.0,0.0,0.0,18344,11157,27828,30286,35749,2
0.0,0.0,0.0,18272,11170,27883,30317,35824,2
0.0,0.0,0.0,18272,11157,27911,30347,35824,2
0.0,0.0,0.0,18308,11157,27883,30347,35861,2
0.0,0.0,0.0,18344,11133,27911,30377,35861,2
0.0,0.0,0.0,18417,11121,27800,30408,35935,2
0.0,0.0,0.0,18635,11157,27828,30438,36010,2
0.0,0.0,0.0,18654,11121,27745,30591,36047,2
0.0,0.0,0.0,18727,11109,27691,30530,36047,2
0.0,0.0,0.0,18820,11060,27800,30530,36122,2
0.0,0.0,0.0,18783,11060,27773,30591,36085,2
0.0,0.0,0.0,18801,11024,27745,30591,36047,2
0.0,0.0,0.0,18783,11036,27745,30469,35935,2
0.0,0.0,0.0,18764,11024,27718,30530,36047,2
0.0,0.0,0.0,18783,11024,27718,30591,35935,2
0.0,0.0,0.0,18783,11036,27691,30530,36047,2
0.0,0.0,0.0,18746,11024,27691,30469,35861,2
0.0,0.0,0.0,18709,11024,27636,30499,35898,2
0.0,0.0,0.0,18746,11036,27745,30408,35935,2
0.0,0.0,0.0,18727,11036,27691,30530,35861,2
0.0,0.0,0.0,18672,11036,27691,30469,36010,2
0.0,0.0,0.0,18727,11036,27718,30469,35935,2
0.0,0.0,0.0,18709,11060,27718,30469,35787,2
0.0,0.0,0.0,18691,11036,27718,30408,35861,2
0.0,0.0,0.0,18654,11024,27691,30469,35898,2
0.0,0.0,0.0,18635,11036,27745,30438,35861,2
0.0,0.0,0.0,18654,11060,27691,30408,35787,2
0.0,0.0,0.0,18672,11060,27691,30438,35861,2
0.0,0.0,0.0,18635,11036,27636,30469,35861,2
0.0,0.0,0.0,18562,11060,27663,30377,36010,2
0.0,0.0,0.0,18617,11048,27718,30408,35787,2
0.0,0.0,0.0,18581,11060,27691,30347,35749,2
0.0,0.0,0.0,18635,11060,27609,30408,35935,2
0.0,0.0,0.0,18562,11036,27663,30377,35824,2
0.0,0.0,0.0,18562,11012,27609,30408,35861,2
0.0,0.0,0.0,18526,11012,27636,30347,35787,2
0.0,0.0,0.0,18508,10987,27636,30347,35787,2
0.0,0.0,0.0,18508,10987,27609,30377,35787,2
0.0,0.0,0.0,18489,10987,27609,30347,35787,2
0.0,0.0,0.0,18471,10987,27636,30286,35712,2
0.0,0.0,0.0,18489,10975,27609,30286,35787,2
0.0,0.0,0.0,18453,10963,27581,30317,35861,2
0.0,0.0,0.0,18435,10867,27581,30256,35712,2
0.0,0.0,0.0,18417,10831,27636,30226,35676,2
0.0,0.0,0.0,18435,10783,27581,30165,35712,2
0.0,0.0,0.0,18380,10771,27581,30165,35712,2
0.0,0.0,0.0,18344,10748,27581,30165,35787,2
0.0,0.0,0.0,18362,10748,27609,30165,35824,2
0.0,0.0,0.0,18344,10748,27609,30165,35712,2
0.0,0.0,0.0,18272,10748,27581,30165,35861,2
0.0,0.0,0.0,18308,10771,27609,30165,35712,2
0.0,0.0,0.0,18290,10759,27527,30165,35712,2
0.0,0.0,0.0,18272,10771,27527,30165,35712,2
0.0,0.0,0.0,18236,10771,27581,30135,35749,2
0.0,0.0,0.0,18272,10771,27581,30105,35749,2
0.0,0.0,0.0,18236,10771,27636,30075,35712,2
0.0,0.0,0.0,18236,10783,27636,30105,35712,2
0.0,0.0,0.0,18272,10783,27636,30165,35861,2
0.0,0.0,0.0,18272,10795,27636,30135,35749,2
0.0,0.0,0.0,18272,10819,27609,30075,35712,2
0.0,0.0,0.0,18236,10819,27636,30165,35712,2
0.0,0.0,0.0,18272,10807,27691,30135,35712,2
0.0,0.0,0.0,18236,10795,27581,30105,35749,2
0.0,0.0,0.0,18290,10819,27663,30165,35787,2
0.0,0.0,0.0,18236,10819,27636,30105,35712,2
0.0,0.0,0.0,18236,10819,27609,30045,35676,2
0.0,0.0,0.0,18236,10843,27609,30105,35712,2
0.0,0.0,0.0,18200,10843,27609,30105,35676,2
0.0,0.0,0.0,18218,10831,27691,30165,35749,2
0.0,0.0,0.0,18200,10831,27636,30045,35602,2
0.0,0.0,0.0,18200,10819,27636,30135,35676,2
0.0,0.0,0.0,18200,10831,27636,30105,35712,2
0.0,0.0,0.0,18236,10843,27691,30105,35712,2
0.0,0.0,0.0,18200,10843,27636,30105,35639,2
0.0,0.0,0.0,18164,10867,27691,30165,35712,2
0.0,0.0,0.0,18164,10867,27691,30165,35787,2
0.0,0.0,0.0,18200,10867,27609,30105,35639,2
0.0,0.0,0.0,18164,10867,27636,30165,35749,2
0.0,0.0,0.0,18164,10867,27691,30105,35749,2
0.0,0.0,0.0,18182,10867,27663,30105,35639,2
0.0,0.0,0.0,18164,10867,27609,30105,35749,2
0.0,0.0,0.0,18147,10867,27663,30165,35749,2
0.0,0.0,0.0,18164,10867,27663,30165,35712,2
0.0,0.0,0.0,18147,10867,27691,30165,35787,2
0.0,0.0,0.0,18164,10879,27636,30045,35712,2
0.0,0.0,0.0,18147,10867,27609,30165,35749,2
0.0,0.0,0.0,18129,10879,27636,30226,35749,2
0.0,0.0,0.0,18129,10867,27691,30075,35712,2
0.0,0.0,0.0,18129,10891,27636,30165,35676,2
0.0,0.0,0.0,18111,10867,27636,30105,35676,2
0.0,0.0,0.0,18164,10879,27636,30195,35712,2
0.0,0.0,0.0,18129,10879,27691,30165,35749,2
0.0,0.0,0.0,18075,10867,27691,30165,35712,2
0.0,0.0,0.0,18075,10891,27636,30165,35824,2
0.0,0.0,0.0,18129,10891,27581,30165,35749,2
0.0,0.0,0.0,18075,10867,27609,30045,35639,2
0.0,0.0,0.0,18111,10879,27609,30075,35712,2
0.0,0.0,0.0,18093,10867,27581,30105,35712,2
0.0,0.0,0.0,18093,10867,27609,30045,35676,2
0.0,0.0,0.0,18111,10867,27581,30015,35749,2
0.0,0.0,0.0,18093,10891,27609,30045,35712,2
0.0,0.0,0.0,18129,10867,27581,30105,35861,2
0.0,0.0,0.0,18075,10891,27581,30165,35749,2
0.0,0.0,0.0,18129,10867,27581,30075,35787,2
0.0,0.0,0.0,18129,10891,27581,30165,35787,2
0.0,0.0,0.0,18093,10915,27609,30135,35712,2
0.0,0.0,0.0,18057,10915,27554,30165,35676,2
0.0,0.0,0.0,18129,10879,27581,30105,35639,2
0.0,0.0,0.0,18057,10891,27609,30135,35712,2
0.0,0.0,0.0,18057,10891,27636,30135,35639,2
0.0,0.0,0.0,18075,10891,27636,30105,35749,2
0.0,0.0,0.0,18075,10927,27581,30105,35712,2
0.0,0.0,0.0,18129,10915,27581,30045,35639,2
0.0,0.0,0.0,18111,10891,27636,30045,35712,2
0.0,0.0,0.0,18111,10879,27581,30105,35787,2
0.0,0.0,0.0,18057,10891,27581,30075,35639,2
0.0,0.0,0.0,18075,10891,27581,29984,35639,2
0.0,0.0,0.0,18057,10891,27527,30075,35639,2
0.0,0.0,0.0,18057,10879,27527,30075,35639,2
0.0,0.0,0.0,18057,10891,27554,30015,35565,2
0.0,0.0,0.0,18039,10867,27527,30045,35565,2
0.0,0.0,0.0,18057,10891,27527,30075,35712,2
0.0,0.0,0.0,18022,10879,27527,30045,35676,2
0.0,0.0,0.0,18057,10891,27499,30075,35639,2
0.0,0.0,0.0,18039,10867,27499,30015,35749,2
0.0,0.0,0.0,18022,10867,27527,30015,35712,2
0.0,0.0,0.0,18022,10867,27499,30015,35712,2
0.0,0.0,0.0,18039,10879,27527,30015,35749,2
0.0,0.0,0.0,18022,10867,27445,30045,35749,2
0.0,0.0,0.0,18022,10867,27499,30015,35639,2
0.0,0.0,0.0,18057,10891,27499,30015,35639,2
0.0,0.0,0.0,18022,10867,27527,29984,35712,2
0.0,0.0,0.0,18004,10879,27472,29984,35712,2
0.0,0.0,0.0,18022,10879,27527,30105,35749,2
0.0,0.0,0.0,18004,10879,27527,29984,35676,2
0.0,0.0,0.0,18004,10891,27554,30045,35639,2
0.0,0.0,0.0,18022,10915,27472,29984,35712,2
0.0,0.0,0.0,18022,10891,27499,30015,35639,2
0.0,0.0,0.0,18004,10891,27499,30015,35712,2
0.0,0.0,0.0,18057,10915,27527,30015,35712,2
0.0,0.0,0.0,18004,10915,27472,30015,35639,2
0.0,0.0,0.0,17986,10903,27499,30045,35602,2
0.0,0.0,0.0,18004,10915,27472,30015,35602,2
0.0,0.0,0.0,17986,10915,27499,30045,35676,2
0.0,0.0,0.0,18022,10915,27499,30015,35712,2
0.0,0.0,0.0,17986,10915,27472,30045,35639,2
0.0,0.0,0.0,18022,10903,27527,30045,35787,2
0.0,0.0,0.0,17968,10915,27472,29984,35602,2
0.0,0.0,0.0,17986,10915,27472,29984,35565,2
0.0,0.0,0.0,17986,10903,27499,29955,35602,2
0.0,0.0,0.0,17951,10915,27472,29955,35639,2
0.0,0.0,0.0,17968,10879,27472,30015,35602,2
0.0,0.0,0.0,17933,10891,27499,30015,35712,2
0.0,0.0,0.0,17880,10903,27499,30015,35639,2
0.0,0.0,0.0,17862,10915,27472,29984,35565,2
0.0,0.0,0.0,17862,10879,27472,29984,35565,2
0.0,0.0,0.0,17845,10867,27472,29984,35712,2
0.0,0.0,0.0,17792,10879,27472,30015,35749,2
0.0,0.0,0.0,17774,10867,27499,29984,35898,2
0.0,0.0,0.0,17704,10819,27418,29955,35712,2
0.0,0.0,0.0,17704,10819,27445,29865,35712,2
0.0,0.0,0.0,17722,10819,27445,29895,35712,2
0.0,0.0,0.0,17704,10819,27445,29895,35602,2
0.0,0.0,0.0,17669,10819,27472,29865,35712,2
0.0,0.0,0.0,17652,10819,27391,29865,35712,2
0.0,0.0,0.0,17669,10819,27418,29865,35712,2
0.0,0.0,0.0,17704,10843,27472,29865,35712,2
0.0,0.0,0.0,17704,10867,27418,29925,35639,2
0.0,0.0,0.0,17669,10867,27472,29984,35749,2
0.0,0.0,0.0,17634,10891,27499,29895,35676,2
0.0,0.0,0.0,17687,10891,27527,29865,35712,2
0.0,0.0,0.0,17704,10891,27527,29925,35639,2
0.0,0.0,0.0,17669,10891,27527,29925,35712,2
0.0,0.0,0.0,17704,10915,27527,29865,35749,2
0.0,0.0,0.0,17687,10891,27527,29865,35787,2
0.0,0.0,0.0,17652,10891,27472,29895,35712,2
0.0,0.0,0.0,17634,10879,27472,29925,35749,2
0.0,0.0,0.0,17652,10891,27472,29925,35676,2
0.0,0.0,0.0,17634,10867,27472,29895,35639,2
0.0,0.0,0.0,17669,10879,27418,29865,35639,2
0.0,0.0,0.0,17634,10879,27418,29895,35712,2
0.0,0.0,0.0,17634,10879,27418,29895,35676,2
0.0,0.0,0.0,17617,10831,27391,29775,35639,2
0.0,0.0,0.0,17565,10688,27609,29775,36010,2
0.0,0.0,0.0,17392,10535,27800,29627,36122,2
0.0,0.0,0.0,17357,10511,27527,29568,36160,2
0.0,0.0,0.0,17374,10535,27472,29568,36047,2
0.0,0.0,0.0,17357,10594,27581,29509,36010,2
0.0,0.0,0.0,17357,10605,27527,29568,35861,2
0.0,0.0,0.0,17357,10605,27499,29568,35935,2
0.0,0.0,0.0,17357,10617,27527,29597,35972,2
0.0,0.0,0.0,17357,10605,27472,29568,36010,2
0.0,0.0,0.0,17323,10629,27472,29509,36010,2
0.0,0.0,0.0,17357,10653,27472,29538,35861,2
0.0,0.0,0.0,17289,10676,27472,29568,35935,2
0.0,0.0,0.0,17323,10700,27472,29597,35898,2
0.0,0.0,0.0,17289,10748,27499,29568,35898,2
0.0,0.0,0.0,17254,10724,27472,29568,35861,2
0.0,0.0,0.0,17254,10700,27527,29538,35935,2
0.0,0.0,0.0,17289,10748,27527,29479,35935,2
0.0,0.0,0.0,17289,10724,27472,29509,35935,2
0.0,0.0,0.0,17289,10688,27472,29509,35935,2
0.0,0.0,0.0,17254,10724,27472,29538,35898,2
0.0,0.0,0.0,17220,10724,27418,29509,35935,2
0.0,0.0,0.0,17237,10724,27472,29509,35935,2
0.0,0.0,0.0,17220,10748,27472,29568,35898,2
0.0,0.0,0.0,17220,10748,27472,29509,36010,2
0.0,0.0,0.0,17220,10748,27472,29509,35935,2
0.0,0.0,0.0,17254,10748,27472,29538,36010,2
0.0,0.0,0.0,17220,10748,27418,29568,35935,2
0.0,0.0,0.0,17254,10748,27445,29479,35861,2
0.0,0.0,0.0,17254,10748,27472,29509,35898,2
0.0,0.0,0.0,17237,10771,27499,29509,35749,2
0.0,0.0,0.0,17237,10771,27472,29479,35787,2
0.0,0.0,0.0,17220,10771,27472,29509,35898,2
0.0,0.0,0.0,17237,10771,27472,29509,35898,2
0.0,0.0,0.0,17220,10771,27418,29509,36010,2
0.0,0.0,0.0,17220,10771,27445,29509,35935,2
0.0,0.0,0.0,17220,10771,27472,29509,35935,2
0.0,0.0,0.0,17220,10795,27472,29479,35935,2
0.0,0.0,0.0,17237,10783,27472,29450,35898,2
0.0,0.0,0.0,17220,10783,27472,29509,36010,2
0.0,0.0,0.0,17220,10795,27472,29509,35898,2
0.0,0.0,0.0,17220,10807,27418,29509,35935,2
0.0,0.0,0.0,17220,10795,27418,29538,35935,2
0.0,0.0,0.0,17220,10795,27472,29568,35898,2
0.0,0.0,0.0,17169,10795,27445,29509,36010,2
0.0,0.0,0.0,17220,10795,27472,29538,35861,2
0.0,0.0,0.0,17186,10819,27418,29538,35861,2
0.0,0.0,0.0,17220,10795,27418,29538,35898,2
0.0,0.0,0.0,17186,10783,27472,29509,35861,2
0.0,0.0,0.0,17237,10819,27472,29509,35861,2
0.0,0.0,0.0,17220,10819,27445,29509,35898,2
0.0,0.0,0.0,17220,10795,27418,29509,35861,2
0.0,0.0,0.0,17220,10807,27472,29509,35898,2
0.0,0.0,0.0,17186,10807,27418,29479,35898,2
0.0,0.0,0.0,17220,10819,27418,29509,35935,2
0.0,0.0,0.0,17220,10819,27472,29509,35898,2
0.0,0.0,0.0,17220,10831,27472,29568,35935,2
0.0,0.0,0.0,17186,10831,27418,29509,35935,2
0.0,0.0,0.0,17186,10843,27445,29509,35861,2
0.0,0.0,0.0,17220,10819,27391,29479,35824,2
0.0,0.0,0.0,17169,10831,27445,29509,35898,2
0.0,0.0,0.0,17186,10831,27472,29568,35861,2
0.0,0.0,0.0,17186,10831,27418,29450,35824,2
0.0,0.0,0.0,17186,10819,27527,29568,35935,2
0.0,0.0,0.0,17169,10831,27445,29509,35898,2
0.0,0.0,0.0,17152,10843,27391,29509,35861,2
0.0,0.0,0.0,17186,10819,27418,29538,35972,2
0.0,0.0,0.0,17220,10819,27472,29538,35935,2
0.0,0.0,0.0,17186,10831,27472,29509,35861,2
0.0,0.0,0.0,17220,10819,27472,29509,35898,2
0.0,0.0,0.0,17186,10831,27418,29509,35898,2
0.0,0.0,0.0,17169,10843,27418,29509,35861,2
0.0,0.0,0.0,17169,10843,27418,29538,35861,2
0.0,0.0,0.0,17169,10843,27418,29509,35861,2
0.0,0.0,0.0,17186,10843,27418,29450,35898,2
0.0,0.0,0.0,17186,10843,27391,29479,35787,2
0.0,0.0,0.0,17186,10843,27364,29509,35824,2
0.0,0.0,0.0,17169,10831,27472,29509,35861,2
0.0,0.0,0.0,17186,10819,27445,29568,35861,2
0.0,0.0,0.0,17169,10831,27418,29509,35787,2
0.0,0.0,0.0,17186,10843,27418,29509,35861,2
0.0,0.0,0.0,17186,10831,27418,29450,35787,2
0.0,0.0,0.0,17220,10843,27499,29479,35861,2
0.0,0.0,0.0,17186,10867,27445,29509,35935,2
0.0,0.0,0.0,17169,10831,27418,29509,35787,2
0.0,0.0,0.0,17152,10831,27418,29362,35787,2
0.0,0.0,0.0,17186,10831,27418,29479,35861,2
0.0,0.0,0.0,17152,10867,27391,29509,35861,2
0.0,0.0,0.0,17186,10843,27445,29509,35898,2
0.0,0.0,0.0,17186,10867,27364,29568,35935,2
0.0,0.0,0.0,17186,10843,27391,29421,35861,2
0.0,0.0,0.0,17152,10831,27391,29479,35935,2
0.0,0.0,0.0,17186,10867,27418,29479,35861,2
0.0,0.0,0.0,17186,10831,27391,29450,35898,2
0.0,0.0,0.0,17152,10843,27391,29450,35787,2
0.0,0.0,0.0,17152,10843,27418,29509,35749,2
0.0,0.0,0.0,17169,10831,27364,29450,35787,2
0.0,0.0,0.0,17152,10867,27418,29509,35861,2
0.0,0.0,0.0,17152,10819,27364,29538,35861,2
0.0,0.0,0.0,17152,10867,27391,29479,35861,2
0.0,0.0,0.0,17220,10867,27445,29450,35824,2
0.0,0.0,0.0,17169,10867,27418,29509,35861,2
0.0,0.0,0.0,17152,10867,27364,29509,35787,2
0.0,0.0,0.0,17186,10867,27418,29450,35898,2
0.0,0.0,0.0,17169,10891,27391,29391,35749,2
0.0,0.0,0.0,17169,10867,27391,29509,35861,2
0.0,0.0,0.0,17152,10867,27418,29509,35861,2
0.0,0.0,0.0,17186,10891,27418,29509,35787,2
0.0,0.0,0.0,17186,10867,27418,29538,35861,2
0.0,0.0,0.0,17186,10867,27364,29538,35861,2
0.0,0.0,0.0,17186,10891,27391,29450,35749,2
0.0,0.0,0.0,17186,10915,27418,29509,35787,2
0.0,0.0,0.0,17186,10891,27391,29509,35787,2
0.0,0.0,0.0,17186,10879,27364,29509,35861,2
0.0,0.0,0.0,17186,10903,27364,29509,35712,2
0.0,0.0,0.0,17152,10879,27364,29450,35787,2
0.0,0.0,0.0,17186,10915,27472,29509,35712,2
0.0,0.0,0.0,17186,10915,27364,29509,35861,2
0.0,0.0,0.0,17169,10891,27418,29538,35787,2
0.0,0.0,0.0,17152,10915,27364,29421,35824,2
0.0,0.0,0.0,17169,10915,27391,29479,35861,2
0.0,0.0,0.0,17186,10915,27364,29509,35749,2
0.0,0.0,0.0,17152,10915,27364,29450,35824,2
0.0,0.0,0.0,17186,10915,27418,29509,35898,2
0.0,0.0,0.0,17169,10915,27364,29450,35712,2
0.0,0.0,0.0,17220,10915,27418,29509,35749,2
0.0,0.0,0.0,17152,10915,27391,29538,35861,2
0.0,0.0,0.0,17152,10915,27364,29509,35749,2
0.0,0.0,0.0,17152,10891,27364,29479,35749,2
0.0,0.0,0.0,17186,10915,27364,29509,35749,2
0.0,0.0,0.0,17152,10927,27310,29509,35787,2
0.0,0.0,0.0,17169,10915,27418,29509,35787,2
0.0,0.0,0.0,17186,10915,27364,29509,35712,2
0.0,0.0,0.0,17186,10915,27364,29450,35712,2
0.0,0.0,0.0,17169,10915,27364,29509,35712,2
0.0,0.0,0.0,17186,10915,27364,29509,35787,2
0.0,0.0,0.0,17152,10915,27364,29509,35861,2
0.0,0.0,0.0,17169,10915,27364,29509,35787,2
0.0,0.0,0.0,17152,10915,27364,29421,35749,2
0.0,0.0,0.0,17186,10915,27364,29509,35749,2
0.0,0.0,0.0,17152,10915,27364,29421,35639,2
0.0,0.0,0.0,17135,10915,27364,29509,35749,2
0.0,0.0,0.0,17152,10915,27364,29450,35712,2
0.0,0.0,0.0,17186,10927,27364,29509,35712,2
0.0,0.0,0.0,17169,10915,27364,29509,35712,2
0.0,0.0,0.0,17152,10927,27364,29391,35861,2
0.0,0.0,0.0,17118,10915,27310,29509,35824,2
0.0,0.0,0.0,17203,10915,27364,29509,35787,2
0.0,0.0,0.0,17186,10915,27364,29509,35712,2
0.0,0.0,0.0,17169,10915,27310,29450,35787,2
0.0,0.0,0.0,17186,10915,27310,29479,35749,2
0.0,0.0,0.0,17152,10915,27310,29421,35787,2
0.0,0.0,0.0,17135,10927,27310,29421,35676,2
0.0,0.0,0.0,17152,10915,27337,29450,35749,2
0.0,0.0,0.0,17186,10915,27364,29450,35749,2
0.0,0.0,0.0,17152,10915,27337,29509,35861,2
0.0,0.0,0.0,17186,10915,27310,29509,35749,2
0.0,0.0,0.0,17169,10915,27364,29450,35749,2
0.0,0.0,0.0,17169,10915,27283,29450,35639,2
0.0,0.0,0.0,17135,10915,27337,29391,35712,2
0.0,0.0,0.0,17152,10915,27337,29450,35639,2
0.0,0.0,0.0,17152,10915,27337,29450,35676,2
0.0,0.0,0.0,17186,10915,27310,29391,35676,2
0.0,0.0,0.0,17169,10915,27310,29450,35787,2
0.0,0.0,0.0,17186,10915,27310,29479,35712,2
0.0,0.0,0.0,17169,10915,27283,29421,35676,2
0.0,0.0,0.0,17169,10915,27283,29509,35749,2
0.0,0.0,0.0,17186,10927,27310,29450,35565,2
0.0,0.0,0.0,17186,10915,27364,29421,35787,2
0.0,0.0,0.0,17169,10915,27310,29509,35712,2
0.0,0.0,0.0,17152,10915,27310,29450,35639,2
0.0,0.0,0.0,17152,10915,27283,29391,35676,2
0.0,0.0,0.0,17169,10915,27283,29421,35712,2
0.0,0.0,0.0,17152,10915,27337,29450,35712,2
0.0,0.0,0.0,17169,10915,27256,29509,35712,2
0.0,0.0,0.0,17169,10915,27283,29450,35639,2
0.0,0.0,0.0,17152,10915,27256,29450,35712,2
0.0,0.0,0.0,17186,10915,27256,29450,35639,2
0.0,0.0,0.0,17135,10915,27283,29421,35602,2
0.0,0.0,0.0,17152,10915,27256,29450,35712,2
0.0,0.0,0.0,17186,10915,27283,29391,35712,2
0.0,0.0,0.0,17152,10903,27283,29391,35639,2
0.0,0.0,0.0,17169,10915,27283,29450,35712,2
0.0,0.0,0.0,17152,10915,27256,29450,35639,2
0.0,0.0,0.0,17152,10891,27256,29450,35712,2
0.0,0.0,0.0,17186,10915,27283,29391,35639,2
0.0,0.0,0.0,17118,10915,27256,29450,35676,2
0.0,0.0,0.0,17169,10915,27256,29391,35676,2
0.0,0.0,0.0,17152,10891,27256,29391,35602,2
0.0,0.0,0.0,17152,10915,27256,29450,35787,2
0.0,0.0,0.0,17152,10891,27256,29450,35749,2
0.0,0.0,0.0,17152,10891,27283,29421,35602,2
0.0,0.0,0.0,17152,10915,27256,29421,35639,2
0.0,0.0,0.0,17152,10891,27202,29391,35639,2
0.0,0.0,0.0,17169,10915,27283,29421,35639,2
0.0,0.0,0.0,17152,10915,27202,29391,35639,2
0.0,0.0,0.0,17118,10891,27256,29362,35565,2
0.0,0.0,0.0,17152,10867,27256,29391,35639,2
0.0,0.0,0.0,17152,10867,27202,29391,35712,2
0.0,0.0,0.0,17152,10855,27202,29304,35565,2
0.0,0.0,0.0,17135,10867,27175,29362,35639,2
0.0,0.0,0.0,17169,10843,27148,29362,35565,2
0.0,0.0,0.0,17152,10843,27175,29391,35565,2
0.0,0.0,0.0,17152,10855,27175,29333,35639,2
0.0,0.0,0.0,17152,10819,27148,29391,35602,2
0.0,0.0,0.0,17169,10771,27095,29362,35565,2
0.0,0.0,0.0,17135,10748,27122,29333,35565,2
0.0,0.0,0.0,17101,10748,27148,29391,35712,2
0.0,0.0,0.0,17152,10748,27122,29333,35712,2
0.0,0.0,0.0,17118,10748,27148,29391,35565,2
0.0,0.0,0.0,17186,10771,27122,29333,35749,2
0.0,0.0,0.0,17118,10748,27095,29333,35676,2
0.0,0.0,0.0,17135,10748,27122,29274,35639,2
0.0,0.0,0.0,17169,10748,27148,29304,35602,2
0.0,0.0,0.0,17118,10748,27095,29333,35639,2
0.0,0.0,0.0,17152,10724,27095,29333,35565,2
0.0,0.0,0.0,17152,10736,27095,29391,35639,2
0.0,0.0,0.0,17084,10748,27095,29333,35639,2
0.0,0.0,0.0,17084,10748,27148,29274,35712,2
0.0,0.0,0.0,17084,10748,27148,29304,35712,2
0.0,0.0,0.0,17118,10771,27095,29304,35712,2
0.0,0.0,0.0,17101,10771,27122,29274,35639,2
0.0,0.0,0.0,17101,10771,27122,29421,35712,2
0.0,0.0,0.0,17101,10771,27095,29333,35712,2
0.0,0.0,0.0,17118,10795,27122,29274,35639,2
0.0,0.0,0.0,17152,10771,27148,29333,35639,2
0.0,0.0,0.0,17118,10783,27148,29333,35639,2
0.0,0.0,0.0,17050,10795,27148,29391,36010,2
0.0,0.0,0.0,17050,10795,27175,29304,35898,2
0.0,0.0,0.0,17050,10795,27148,29333,35787,2
0.0,0.0,0.0,17033,10771,27148,29274,35749,2
0.0,0.0,0.0,17033,10748,27148,29274,36085,2
0.0,0.0,0.0,17016,10748,27148,29274,36197,2
0.0,0.0,0.0,16983,10724,27068,29245,35935,2
0.0,0.0,0.0,17016,10724,27095,29274,36047,2
0.0,0.0,0.0,17016,10724,27148,29274,36085,2
0.0,0.0,0.0,16983,10748,27095,29216,36010,2
0.0,0.0,0.0,17016,10748,27068,29216,35935,2
0.0,0.0,0.0,17016,10748,27068,29245,35935,2
0.0,0.0,0.0,17016,10748,27095,29187,35972,2
0.0,0.0,0.0,17016,10748,27095,29274,35787,2
0.0,0.0,0.0,17016,10783,27122,29274,35787,2
0.0,0.0,0.0,16983,10795,27095,29274,35861,2
0.0,0.0,0.0,17016,10795,27095,29216,35787,2
0.0,0.0,0.0,16949,10795,27095,29245,35861,2
0.0,0.0,0.0,16983,10819,27095,29274,36010,2
0.0,0.0,0.0,16983,10819,27068,29274,35898,2
0.0,0.0,0.0,16966,10819,27095,29245,35787,2
0.0,0.0,0.0,17016,10843,27122,29304,35861,2
0.0,0.0,0.0,17016,10867,27095,29216,35749,2
0.0,0.0,0.0,16983,10843,27148,29274,35935,2
0.0,0.0,0.0,17016,10867,27148,29304,35898,2
0.0,0.0,0.0,17016,10843,27095,29274,35935,2
0.0,0.0,0.0,16983,10855,27095,29274,35861,2
0.0,0.0,0.0,17033,10867,27095,29274,35935,2
0.0,0.0,0.0,17016,10867,27122,29274,35898,2
0.0,0.0,0.0,16999,10867,27068,29274,35824,2
0.0,0.0,0.0,16983,10867,27148,29333,35898,2
0.0,0.0,0.0,17016,10867,27122,29274,35861,2
0.0,0.0,0.0,16983,10879,27148,29274,35824,2
0.0,0.0,0.0,17016,10867,27148,29274,35787,2
0.0,0.0,0.0,16966,10879,27122,29274,35712,2
0.0,0.0,0.0,17016,10891,27095,29274,35565,2
0.0,0.0,0.0,16966,10891,27148,29333,35861,2
0.0,0.0,0.0,16983,10891,27095,29274,35749,2
0.0,0.0,0.0,17016,10915,27148,29245,35787,2
0.0,0.0,0.0,17016,10915,27122,29245,35749,2
0.0,0.0,0.0,16966,10891,27095,29274,35861,2
0.0,0.0,0.0,16983,10915,27148,29274,35824,2
0.0,0.0,0.0,17016,10915,27122,29216,35787,2
0.0,0.0,0.0,17016,10891,27095,29304,35749,2
0.0,0.0,0.0,17050,10915,27148,29216,35787,2
0.0,0.0,0.0,16983,10879,27095,29216,35712,2
0.0,0.0,0.0,17016,10891,27148,29274,35898,2
0.0,0.0,0.0,17016,10819,27122,29216,35749,2
0.0,0.0,0.0,16966,10891,27122,29216,35712,2
0.0,0.0,0.0,17016,10915,27148,29274,35898,2
0.0,0.0,0.0,16999,10915,27148,29274,35861,2
0.0,0.0,0.0,17016,10891,27122,29245,35749,2
0.0,0.0,0.0,16983,10903,27148,29245,35749,2
0.0,0.0,0.0,16983,10903,27095,29245,35712,2
0.0,0.0,0.0,17016,10891,27148,29274,35749,2
0.0,0.0,0.0,17016,10891,27095,29274,35749,2
0.0,0.0,0.0,17016,10915,27148,29274,35639,2
0.0,0.0,0.0,16999,10891,27122,29274,35712,2
0.0,0.0,0.0,16966,10915,27148,29274,35861,2
0.0,0.0,0.0,16983,10891,27122,29274,35787,2
0.0,0.0,0.0,16949,10891,27122,29274,35712,2
0.0,0.0,0.0,17016,10915,27148,29304,35787,2
0.0,0.0,0.0,16983,10915,27122,29274,35639,2
0.0,0.0,0.0,16983,10915,27122,29304,35787,2
0.0,0.0,0.0,16983,10903,27148,29216,35639,2
0.0,0.0,0.0,16999,10891,27148,29274,35712,2
0.0,0.0,0.0,16983,10891,27175,29216,35712,2
0.0,0.0,0.0,16966,10915,27148,29274,35712,2
0.0,0.0,0.0,16966,10915,27148,29216,35749,2
0.0,0.0,0.0,16983,10915,27148,29216,35639,2
0.0,0.0,0.0,16966,10915,27148,29274,35861,2
0.0,0.0,0.0,16966,10915,27095,29304,35749,2
0.0,0.0,0.0,16966,10915,27148,29216,35712,2
0.0,0.0,0.0,16983,10915,27095,29274,35787,2
0.0,0.0,0.0,16983,10927,27148,29274,35861,2
0.0,0.0,0.0,16983,10915,27148,29274,35787,2
0.0,0.0,0.0,16983,10891,27122,29304,35861,2
0.0,0.0,0.0,16983,10927,27148,29274,35749,2
0.0,0.0,0.0,16983,10927,27122,29274,35824,2
0.0,0.0,0.0,17016,10915,27148,29274,35787,2
0.0,0.0,0.0,16983,10915,27148,29245,35861,2
0.0,0.0,0.0,16949,10903,27148,29274,35861,2
0.0,0.0,0.0,17033,10927,27148,29216,35787,2
0.0,0.0,0.0,16999,10915,27148,29274,35861,2
0.0,0.0,0.0,16966,10915,27095,29274,35712,2
0.0,0.0,0.0,16983,10939,27148,29245,35749,2
0.0,0.0,0.0,17016,10915,27148,29274,35861,2
0.0,0.0,0.0,16966,10939,27095,29274,35712,2
0.0,0.0,0.0,17016,10927,27148,29274,35639,2
0.0,0.0,0.0,16949,10927,27148,29245,35749,2
0.0,0.0,0.0,16999,10939,27148,29304,35824,2
0.0,0.0,0.0,16983,10927,27068,29274,35712,2
0.0,0.0,0.0,16999,10963,27148,29274,35565,2
0.0,0.0,0.0,16966,10939,27175,29304,35676,2
0.0,0.0,0.0,17016,10963,27148,29274,35639,2
0.0,0.0,0.0,17016,10927,27148,29274,35712,2
0.0,0.0,0.0,16983,10963,27175,29274,35565,2
0.0,0.0,0.0,17016,10939,27148,29304,35712,2
0.0,0.0,0.0,16949,10963,27148,29274,35824,2
0.0,0.0,0.0,16983,10939,27148,29274,35712,2
0.0,0.0,0.0,16983,10963,27122,29245,35787,2
0.0,0.0,0.0,17016,10939,27148,29245,35824,2
0.0,0.0,0.0,16983,10951,27095,29274,35861,2
0.0,0.0,0.0,16949,10927,27148,29274,35712,2
0.0,0.0,0.0,16966,10927,27148,29304,35749,2
0.0,0.0,0.0,16983,10963,27148,29245,35676,2
0.0,0.0,0.0,16983,10939,27175,29216,35712,2
0.0,0.0,0.0,17016,10963,27095,29216,35676,2
0.0,0.0,0.0,17033,10963,27148,29304,35712,2
0.0,0.0,0.0,17016,10939,27122,29245,35712,2
0.0,0.0,0.0,16999,10963,27148,29245,35602,2
0.0,0.0,0.0,17016,10963,27148,29274,35639,2
0.0,0.0,0.0,17050,10951,27175,29274,35639,2
0.0,0.0,0.0,16999,10963,27148,29274,35602,2
0.0,0.0,0.0,17016,10963,27095,29274,35565,2
0.0,0.0,0.0,16983,10963,27175,29333,35565,2
0.0,0.0,0.0,17016,10963,27148,29274,35639,2
0.0,0.0,0.0,17016,10963,27095,29274,35639,2
0.0,0.0,0.0,17016,10963,27148,29274,35565,2
0.0,0.0,0.0,17016,10951,27095,29216,35639,2
0.0,0.0,0.0,17016,10963,27095,29274,35639,2
0.0,0.0,0.0,16983,10975,27148,29304,35639,2
0.0,0.0,0.0,17016,10975,27068,29216,35565,2
0.0,0.0,0.0,17016,10963,27122,29274,35712,2
0.0,0.0,0.0,16983,10963,27148,29333,35787,2
0.0,0.0,0.0,16966,10963,27095,29274,35676,2
0.0,0.0,0.0,17016,10963,27095,29274,35749,2
0.0,0.0,0.0,17016,10963,27122,29274,35787,2
0.0,0.0,0.0,17016,10963,27095,29274,35676,2
0.0,0.0,0.0,17016,10963,27148,29304,35602,2
0.0,0.0,0.0,17033,10963,27095,29274,35565,2
0.0,0.0,0.0,16983,10975,27148,29274,35565,2
0.0,0.0,0.0,17016,10975,27148,29304,35565,2
0.0,0.0,0.0,16966,10987,27148,29333,35602,2
0.0,0.0,0.0,17050,10975,27148,29304,35565,2
0.0,0.0,0.0,17016,10963,27122,29304,35639,2
0.0,0.0,0.0,17016,10975,27095,29274,35639,2
0.0,0.0,0.0,17016,10963,27148,29216,35602,2
0.0,0.0,0.0,17050,10975,27095,29274,35639,2
0.0,0.0,0.0,17016,10975,27095,29274,35602,2
0.0,0.0,0.0,17016,10987,27095,29274,35676,2
0.0,0.0,0.0,17016,10975,27095,29216,35639,2
0.0,0.0,0.0,16999,10963,27122,29274,35639,2
0.0,0.0,0.0,16999,10975,27148,29304,35676,2
0.0,0.0,0.0,16999,10975,27041,29274,35676,2
0.0,0.0,0.0,17016,10975,27095,29274,35712,2
0.0,0.0,0.0,16983,10999,27095,29274,35565,2
0.0,0.0,0.0,16983,10975,27041,29304,35602,2
0.0,0.0,0.0,17016,10975,27122,29274,35676,2
0.0,0.0,0.0,17033,10975,27095,29274,35787,2
0.0,0.0,0.0,16999,10963,27068,29216,35712,2
0.0,0.0,0.0,16983,10987,27095,29304,35749,2
0.0,0.0,0.0,16966,10975,27095,29333,35712,2
0.0,0.0,0.0,16983,10987,27095,29274,35712,2
0.0,0.0,0.0,16983,10963,27095,29274,35639,2
0.0,0.0,0.0,16966,10987,27041,29304,35639,2
0.0,0.0,0.0,17016,10975,27095,29333,35565,2
0.0,0.0,0.0,16966,10987,27041,29274,35749,2
0.0,0.0,0.0,16983,10975,27095,29274,35565,2
0.0,0.0,0.0,16966,10975,27068,29274,35565,2
0.0,0.0,0.0,16966,10987,27122,29274,35676,2
0.0,0.0,0.0,17016,10975,27095,29216,35639,2
0.0,0.0,0.0,16966,11012,27122,29274,35712,2
0.0,0.0,0.0,16983,10975,27095,29274,35565,2
0.0,0.0,0.0,16999,10987,27041,29274,35676,2
0.0,0.0,0.0,16966,10987,27095,29274,35639,2
0.0,0.0,0.0,16983,10963,27095,29274,35602,2
0.0,0.0,0.0,16949,10975,27068,29274,35639,2
0.0,0.0,0.0,16983,10975,27041,29274,35787,2
0.0,0.0,0.0,16983,10987,27041,29245,35639,2
0.0,0.0,0.0,16983,10963,27095,29245,35787,2
0.0,0.0,0.0,16983,10963,27041,29304,35712,2
0.0,0.0,0.0,16966,10975,27068,29216,35712,2
0.0,0.0,0.0,16983,10963,27095,29245,35824,2
0.0,0.0,0.0,16983,10975,27095,29274,35861,2
0.0,0.0,0.0,16949,10963,27068,29245,35749,2
0.0,0.0,0.0,16966,10987,27041,29304,35712,2
0.0,0.0,0.0,16983,10963,27068,29304,35712,2
0.0,0.0,0.0,16966,10963,27041,29274,35676,2
0.0,0.0,0.0,16983,10963,27041,29274,35749,2
0.0,0.0,0.0,16983,10963,27041,29333,35749,2
0.0,0.0,0.0,16983,10963,27041,29245,35712,2
0.0,0.0,0.0,16949,10963,27015,29216,35602,2
0.0,0.0,0.0,16966,10963,27068,29274,35639,2
0.0,0.0,0.0,16983,10963,27068,29216,35492,2
0.0,0.0,0.0,16949,10963,27041,29158,35602,2
0.0,0.0,0.0,16949,10975,27041,29245,35676,2
0.0,0.0,0.0,16949,10987,27041,29216,35602,2
0.0,0.0,0.0,16949,10963,27041,29216,35676,2
0.0,0.0,0.0,16949,10987,27041,29245,35639,2
0.0,0.0,0.0,16966,10987,27041,29274,35639,2
0.0,0.0,0.0,16966,10975,27095,29216,35565,2
0.0,0.0,0.0,16949,10975,27041,29245,35565,2
0.0,0.0,0.0,16949,10987,27041,29274,35565,2
0.0,0.0,0.0,16966,10939,27068,29216,35639,2
0.0,0.0,0.0,16949,10963,27041,29274,35602,2
0.0,0.0,0.0,16966,10987,27041,29216,35712,2
0.0,0.0,0.0,16949,10963,27041,29216,35712,2
0.0,0.0,0.0,16966,10987,26988,29274,35565,2
0.0,0.0,0.0,16949,10975,27041,29245,35639,2
0.0,0.0,0.0,16949,10963,27041,29216,35639,2
0.0,0.0,0.0,16949,10975,27015,29245,35639,2
0.0,0.0,0.0,16949,10963,27095,29216,35565,2
0.0,0.0,0.0,16949,10963,27041,29216,35639,2
0.0,0.0,0.0,16949,10987,26988,29245,35639,2
0.0,0.0,0.0,16966,10987,27041,29304,35639,2
0.0,0.0,0.0,16966,11012,27041,29216,35712,2
0.0,0.0,0.0,16949,10987,27041,29216,35676,2
0.0,0.0,0.0,16966,10975,27095,29274,35565,2
0.0,0.0,0.0,16966,10963,27041,29216,35565,2
0.0,0.0,0.0,16966,11012,26988,29216,35455,2
0.0,0.0,0.0,16966,10975,26988,29216,35418,2
0.0,0.0,0.0,16949,10987,27041,29216,35639,2
0.0,0.0,0.0,16915,10975,26988,29216,35565,2
0.0,0.0,0.0,16966,10987,26988,29216,35639,2
0.0,0.0,0.0,16915,10963,26988,29216,35639,2
0.0,0.0,0.0,16915,10987,26961,29245,35565,2
0.0,0.0,0.0,16949,11012,26961,29216,35565,2
0.0,0.0,0.0,16949,10999,27041,29216,35492,2
0.0,0.0,0.0,16915,10987,27041,29216,35565,2
0.0,0.0,0.0,16949,10987,26988,29216,35565,2
0.0,0.0,0.0,16898,10987,27041,29216,35565,2
0.0,0.0,0.0,16915,10987,27041,29245,35565,2
0.0,0.0,0.0,16949,11036,27041,29216,35528,2
0.0,0.0,0.0,16932,11036,27041,29274,35565,2
0.0,0.0,0.0,16949,11036,26988,29216,35565,2
0.0,0.0,0.0,16949,11012,26988,29158,35492,2
0.0,0.0,0.0,16949,11024,27041,29216,35418,2
0.0,0.0,0.0,16882,11024,26988,29304,35455,2
0.0,0.0,0.0,16949,11024,26961,29216,35418,2
0.0,0.0,0.0,16915,11036,27041,29158,35492,2
0.0,0.0,0.0,16949,11024,26961,29158,35492,2
0.0,0.0,0.0,16949,10987,26961,29216,35565,2
0.0,0.0,0.0,16949,10963,26935,29216,35639,2
0.0,0.0,0.0,16915,10927,26908,29100,35565,2
0.0,0.0,0.0,16915,10915,26935,29100,35492,2
0.0,0.0,0.0,16949,10915,26882,29216,35602,2
0.0,0.0,0.0,16898,10891,26935,29158,35565,2
0.0,0.0,0.0,16882,10891,26882,29100,35565,2
0.0,0.0,0.0,16898,10891,26882,29187,35565,2
0.0,0.0,0.0,16882,10915,26935,29216,35639,2
0.0,0.0,0.0,16882,10879,26882,29158,35418,2
0.0,0.0,0.0,16898,10915,26935,29187,35565,2
0.0,0.0,0.0,16898,10915,26882,29158,35418,2
0.0,0.0,0.0,16882,10891,26855,29158,35639,2
0.0,0.0,0.0,16882,10915,26908,29129,35565,2
0.0,0.0,0.0,16882,10915,26855,29100,35492,2
0.0,0.0,0.0,16882,10915,26855,29129,35528,2
0.0,0.0,0.0,16915,10927,26882,29129,35492,2
0.0,0.0,0.0,16898,10915,26935,29187,35565,2
0.0,0.0,0.0,16915,10927,26882,29158,35492,2
0.0,0.0,0.0,16882,10915,26882,29100,35565,2
0.0,0.0,0.0,16882,10915,26829,29158,35455,2
0.0,0.0,0.0,16915,10891,26855,29100,35492,2
0.0,0.0,0.0,16882,10891,26855,29100,35418,2
0.0,0.0,0.0,16882,10903,26829,29158,35418,2
0.0,0.0,0.0,16915,10915,26882,29100,35492,2
0.0,0.0,0.0,16915,10915,26829,29100,35418,2
0.0,0.0,0.0,16966,10927,26855,29100,35565,2
0.0,0.0,0.0,16915,10963,26829,29158,35455,2
0.0,0.0,0.0,16949,10963,26829,29100,35418,2
0.0,0.0,0.0,16949,10975,26855,29042,35418,2
0.0,0.0,0.0,16949,10987,26802,29100,35492,2
0.0,0.0,0.0,16966,11012,26829,29071,35382,2
0.0,0.0,0.0,17033,11109,26749,29071,35309,2
0.0,0.0,0.0,17050,11182,26697,29042,35272,2
0.0,0.0,0.0,17050,11182,26723,29013,35455,2
0.0,0.0,0.0,17084,11170,26749,29042,35309,2
0.0,0.0,0.0,17050,11157,26723,29042,35163,2
0.0,0.0,0.0,17050,11157,26776,29042,35127,2
0.0,0.0,0.0,17033,11145,26749,29042,35163,2
0.0,0.0,0.0,17050,11157,26749,29042,35127,2
0.0,0.0,0.0,17050,11145,26723,29042,35199,2
0.0,0.0,0.0,17050,11157,26723,29042,35127,2
0.0,0.0,0.0,17016,11157,26723,28955,35236,2
0.0,0.0,0.0,17016,11182,26749,29042,35127,2
0.0,0.0,0.0,17016,11133,26749,28984,35127,2
0.0,0.0,0.0,17033,11121,26723,29042,35199,2
0.0,0.0,0.0,16999,11121,26723,29042,35163,2
0.0,0.0,0.0,17050,11157,26749,29013,35127,2
0.0,0.0,0.0,17016,11133,26723,28955,35127,2
0.0,0.0,0.0,16999,11121,26723,28984,35055,2
0.0,0.0,0.0,17050,11133,26723,29013,35091,2
0.0,0.0,0.0,17033,11133,26723,28984,35127,2
0.0,0.0,0.0,17033,11157,26723,29042,35091,2
0.0,0.0,0.0,17016,11121,26723,28955,35091,2
0.0,0.0,0.0,17067,11133,26776,29042,35272,2
0.0,0.0,0.0,17033,11157,26749,28984,35127,2
0.0,0.0,0.0,17016,11133,26749,29042,35127,2
0.0,0.0,0.0,17016,11157,26749,28984,35163,2
0.0,0.0,0.0,17033,11133,26776,29042,35091,2
0.0,0.0,0.0,17016,11133,26855,28984,35055,2
0.0,0.0,0.0,16966,11157,26829,28984,35163,2
0.0,0.0,0.0,17050,11157,26829,28955,34982,2
0.0,0.0,0.0,17016,11157,26802,29042,35127,2
0.0,0.0,0.0,17016,11133,26829,29013,35055,2
0.0,0.0,0.0,16999,11157,26829,28984,35055,2
0.0,0.0,0.0,16966,11157,26829,29042,35055,2
0.0,0.0,0.0,17016,11170,26829,29042,35127,2
0.0,0.0,0.0,16966,11157,26829,29042,35055,2
0.0,0.0,0.0,17016,11145,26829,29042,35127,2
0.0,0.0,0.0,16983,11157,26776,28955,35055,2
0.0,0.0,0.0,16999,11157,26776,28984,35091,2
0.0,0.0,0.0,16983,11109,26749,28955,35055,2
0.0,0.0,0.0,16949,11133,26829,28984,35091,2
0.0,0.0,0.0,16966,11133,26749,29042,35055,2
0.0,0.0,0.0,17016,11121,26776,29042,35163,2
0.0,0.0,0.0,16999,11133,26802,28955,35163,2
0.0,0.0,0.0,17016,11121,26776,29042,35091,2
0.0,0.0,0.0,16983,11133,26749,28984,35091,2
0.0,0.0,0.0,16966,11157,26776,28984,35055,2
0.0,0.0,0.0,16966,11157,26749,28984,35127,2
0.0,0.0,0.0,16983,11157,26776,29042,35127,2
0.0,0.0,0.0,16949,11157,26776,28984,35055,2
0.0,0.0,0.0,16983,11133,26776,29042,35055,2
0.0,0.0,0.0,16949,11157,26802,28984,35127,2
0.0,0.0,0.0,16949,11157,26776,29042,35055,2
0.0,0.0,0.0,16949,11157,26749,28984,35055,2
0.0,0.0,0.0,16949,11157,26723,28984,35055,2
0.0,0.0,0.0,16949,11133,26776,28984,34982,2
0.0,0.0,0.0,16915,11157,26776,28955,35018,2
0.0,0.0,0.0,16949,11133,26776,28898,35127,2
0.0,0.0,0.0,16915,11157,26829,28984,35018,2
0.0,0.0,0.0,16949,11157,26802,29042,35127,2
0.0,0.0,0.0,16949,11157,26829,29042,35127,2
0.0,0.0,0.0,16949,11133,26802,29071,35127,2
0.0,0.0,0.0,16898,11145,26749,29013,35018,2
0.0,0.0,0.0,16915,11133,26802,29013,35018,2
0.0,0.0,0.0,16949,11133,26829,29042,34946,2
0.0,0.0,0.0,16949,11157,26829,28984,34982,2
0.0,0.0,0.0,16949,11133,26829,29042,35127,2
0.0,0.0,0.0,16949,11133,26829,29013,35055,2
0.0,0.0,0.0,16949,11133,26829,28955,35091,2
0.0,0.0,0.0,17050,11109,26935,29042,35018,2
0.0,0.0,0.0,17152,11109,27095,29042,35163,2
0.0,0.0,0.0,17084,11121,26935,29071,35055,2
0.0,0.0,0.0,17067,11109,27041,29042,35199,2
0.0,0.0,0.0,17033,11072,27445,29274,35455,2
0.0,0.0,0.0,17016,11060,27418,29274,35272,2
0.0,0.0,0.0,17016,11060,27256,29245,35272,2
0.0,0.0,0.0,16983,11060,27175,29216,35309,2
0.0,0.0,0.0,16966,11036,27175,29216,35345,2
0.0,0.0,0.0,16983,11036,27175,29158,35272,2
0.0,0.0,0.0,16966,11060,27095,29158,35199,2
0.0,0.0,0.0,16932,11036,27122,29187,35127,2
0.0,0.0,0.0,16966,11060,27148,29216,35345,2
0.0,0.0,0.0,16983,11060,27095,29216,35309,2
0.0,0.0,0.0,16966,11024,27068,29158,35309,2
0.0,0.0,0.0,16966,11012,27095,29129,35127,2
0.0,0.0,0.0,17118,10963,27041,29042,35163,2
0.0,0.0,0.0,17118,10939,26961,29100,35199,2
0.0,0.0,0.0,17101,10963,26935,29071,35199,2
0.0,0.0,0.0,17118,10963,26908,29071,35127,2
0.0,0.0,0.0,17118,10987,26961,29042,35163,2
0.0,0.0,0.0,17084,11012,26935,29100,35127,2
0.0,0.0,0.0,17118,11012,26935,29071,35199,2
0.0,0.0,0.0,17118,11036,26935,29042,35199,2
0.0,0.0,0.0,17101,11024,26935,29158,35199,2
0.0,0.0,0.0,17101,11060,26935,29071,35163,2
0.0,0.0,0.0,17067,11024,26935,29100,35163,2
0.0,0.0,0.0,17084,11060,26961,29042,35127,2
0.0,0.0,0.0,17101,11060,26935,29129,35272,2
0.0,0.0,0.0,17118,11036,26935,29100,35272,2
0.0,0.0,0.0,17101,11036,26961,29100,35163,2
0.0,0.0,0.0,17101,11060,26935,29158,35127,2
0.0,0.0,0.0,17084,11060,26961,29071,35127,2
0.0,0.0,0.0,17084,11060,26935,29042,35127,2
0.0,0.0,0.0,17084,11060,26935,29071,35163,2
0.0,0.0,0.0,17084,11072,26935,29071,35127,2
0.0,0.0,0.0,17050,11060,26961,29042,35163,2
0.0,0.0,0.0,17084,11060,26935,29042,35163,2
0.0,0.0,0.0,17050,11060,26961,29071,35055,2
0.0,0.0,0.0,17016,11072,26908,29042,35055,2
0.0,0.0,0.0,17067,11060,26961,29071,35055,2
0.0,0.0,0.0,17033,11060,26961,29100,35199,2
0.0,0.0,0.0,17033,11060,26935,29042,35055,2
0.0,0.0,0.0,17050,11060,26908,29100,35091,2
0.0,0.0,0.0,17067,11072,26882,29100,35127,2
0.0,0.0,0.0,17050,11060,26935,29042,35055,2
0.0,0.0,0.0,17033,11060,26882,29071,35055,2
0.0,0.0,0.0,17050,11060,26908,29042,35055,2
0.0,0.0,0.0,17016,11060,26935,29071,35055,2
0.0,0.0,0.0,17033,11072,26882,29100,35018,2
