GyroX,GyroY,GyroZ,Thumb,Index,Middle,Ring,Pinky,Gesture
0.0,0.0,0.0,16615,24342,23385,31213,41088,0
0.0,0.0,0.0,16615,24342,23385,31181,41221,0
0.0,0.0,0.0,16615,24318,23339,31087,41044,0
0.0,0.0,0.0,16681,24318,23339,31150,41044,0
0.0,0.0,0.0,16882,24342,23362,31150,40912,0
0.0,0.0,0.0,17084,24606,23477,31465,40912,0
0.0,0.0,0.0,17101,24702,23477,31497,40955,0
0.0,0.0,0.0,17084,24727,23615,31720,41221,0
0.0,0.0,0.0,17016,24678,23522,31656,41309,0
0.0,0.0,0.0,17016,24582,23477,31624,41309,0
0.0,0.0,0.0,16915,24558,23431,31497,41132,0
0.0,0.0,0.0,16748,24438,23385,31529,41265,0
0.0,0.0,0.0,16582,24510,23294,31402,41221,0
0.0,0.0,0.0,16336,24510,23339,31465,40955,0
0.0,0.0,0.0,15916,24510,23294,31370,40955,0
0.0,0.0,0.0,15710,24486,23294,31339,40780,0
0.0,0.0,0.0,15553,24438,23294,31370,40736,0
0.0,0.0,0.0,15647,24462,23248,31276,40649,0
0.0,0.0,0.0,15663,24510,23271,31276,40562,0
0.0,0.0,0.0,15584,24558,23248,31025,40173,0
0.0,0.0,0.0,16222,24438,23180,30931,40216,0
0.0,0.0,0.0,16499,24414,23157,30838,40259,0
0.0,0.0,0.0,16681,24318,23203,30838,40346,0
0.0,0.0,0.0,16915,24271,23067,30776,40216,0
0.0,0.0,0.0,16983,24176,23022,30745,40302,0
0.0,0.0,0.0,17050,24152,23044,30715,40259,0
0.0,0.0,0.0,17101,24105,23022,30715,40475,0
0.0,0.0,0.0,17135,24081,23022,30745,40346,0
0.0,0.0,0.0,17101,24081,23022,30715,40346,0
0.0,0.0,0.0,17101,24034,23022,30684,40432,0
0.0,0.0,0.0,17084,24034,22999,30684,40346,0
0.0,0.0,0.0,17067,24034,23022,30715,40216,0
0.0,0.0,0.0,17016,24034,22932,30653,40346,0
0.0,0.0,0.0,17016,24034,23022,30653,40302,0
0.0,0.0,0.0,16949,23964,22932,30653,40131,0
0.0,0.0,0.0,16898,24058,22999,30715,40346,0
0.0,0.0,0.0,16882,24034,22955,30776,40259,0
0.0,0.0,0.0,16831,24129,22932,30653,40259,0
0.0,0.0,0.0,16748,24081,22932,30715,40259,0
0.0,0.0,0.0,16499,24271,22955,30776,40259,0
0.0,0.0,0.0,16352,24223,22932,30745,40173,0
0.0,0.0,0.0,16352,24318,22932,30776,40088,0
0.0,0.0,0.0,16549,24271,22887,30684,40002,0
0.0,0.0,0.0,17495,24366,22843,30653,39960,0
0.0,0.0,0.0,18562,24366,22977,30653,40002,0
0.0,0.0,0.0,18912,24414,23022,30715,39705,0
0.0,0.0,0.0,19155,24318,22977,30622,39705,0
0.0,0.0,0.0,19174,24414,22932,30591,39663,0
0.0,0.0,0.0,19024,24318,22887,30653,39663,0
0.0,0.0,0.0,19080,24271,22887,30591,39536,0
0.0,0.0,0.0,19005,24271,22820,30622,39578,0
0.0,0.0,0.0,18987,24223,22843,30591,39663,0
0.0,0.0,0.0,18968,24223,22843,30561,39578,0
0.0,0.0,0.0,18949,24247,22798,30530,39578,0
0.0,0.0,0.0,18931,24247,22776,30469,39494,0
0.0,0.0,0.0,18894,24223,22754,30499,39536,0
0.0,0.0,0.0,18875,24223,22665,30438,39411,0
0.0,0.0,0.0,18857,24223,22665,30499,39494,0
0.0,0.0,0.0,18857,24176,22665,30469,39452,0
0.0,0.0,0.0,18875,24199,22709,30499,39327,0
0.0,0.0,0.0,18857,24199,22709,30499,39411,0
0.0,0.0,0.0,18838,24176,22665,30438,39494,0
0.0,0.0,0.0,18783,24129,22665,30469,39369,0
0.0,0.0,0.0,18783,24176,22687,30469,39411,0
0.0,0.0,0.0,18764,24081,22665,30469,39411,0
0.0,0.0,0.0,18968,24199,22709,30438,39369,0
0.0,0.0,0.0,19231,24318,22843,30377,39160,0
0.0,0.0,0.0,19080,24438,22910,30377,39160,0
0.0,0.0,0.0,18801,24438,22820,30286,38953,0
0.0,0.0,0.0,18820,24414,22798,30195,38830,0
0.0,0.0,0.0,18672,24414,22798,30105,38912,0
0.0,0.0,0.0,18562,24318,22776,30075,38912,0
0.0,0.0,0.0,18489,24366,22754,30045,38912,0
0.0,0.0,0.0,18453,24414,22776,30135,39036,0
0.0,0.0,0.0,18344,24606,22820,30165,39160,0
0.0,0.0,0.0,18344,24702,22887,30165,39160,0
0.0,0.0,0.0,18290,24702,22865,30105,39036,0
0.0,0.0,0.0,18236,24727,22865,30226,39244,0
0.0,0.0,0.0,18236,24751,22843,30165,39077,0
0.0,0.0,0.0,18272,24702,22865,30135,38995,0
0.0,0.0,0.0,18272,24702,22843,30165,39077,0
0.0,0.0,0.0,18272,24702,22843,30165,39036,0
0.0,0.0,0.0,18344,24654,22843,30195,39077,0
0.0,0.0,0.0,18308,24558,22776,30165,38995,0
0.0,0.0,0.0,18362,24606,22754,30105,38995,0
0.0,0.0,0.0,18380,24606,22798,30105,38995,0
0.0,0.0,0.0,18380,24630,22798,30165,38995,0
0.0,0.0,0.0,18236,24558,22754,30165,38995,0
0.0,0.0,0.0,18200,24606,22754,30165,39036,0
0.0,0.0,0.0,18147,24510,22776,30165,38995,0
0.0,0.0,0.0,18164,24510,22754,30165,38953,0
0.0,0.0,0.0,18129,24558,22754,30165,38830,0
0.0,0.0,0.0,18093,24534,22709,30165,38953,0
0.0,0.0,0.0,18129,24510,22754,30165,38912,0
0.0,0.0,0.0,18075,24510,22731,30165,38912,0
0.0,0.0,0.0,18093,24462,22754,30165,38995,0
0.0,0.0,0.0,18129,24462,22687,30165,39036,0
0.0,0.0,0.0,18057,24510,22709,30165,38871,0
0.0,0.0,0.0,18039,24462,22665,30105,38871,0
0.0,0.0,0.0,18057,24414,22665,30165,38585,0
0.0,0.0,0.0,18004,24414,22709,30105,38422,0
0.0,0.0,0.0,18004,24414,22665,30105,38625,0
0.0,0.0,0.0,18004,24390,22621,30075,38341,0
0.0,0.0,0.0,18004,24414,22665,30105,38422,0
0.0,0.0,0.0,17968,24414,22621,29984,38463,0
0.0,0.0,0.0,17933,24342,22621,30105,38260,0
0.0,0.0,0.0,17933,24342,22621,30015,38260,0
0.0,0.0,0.0,17933,24414,22621,30015,38260,0
0.0,0.0,0.0,17880,24318,22621,30015,38220,0
0.0,0.0,0.0,17915,24318,22576,30015,38341,0
0.0,0.0,0.0,17915,24342,22599,30045,38180,0
0.0,0.0,0.0,17880,24271,22576,30045,38260,0
0.0,0.0,0.0,17862,24318,22576,29984,38180,0
0.0,0.0,0.0,17862,24318,22576,30045,38180,0
0.0,0.0,0.0,17880,24342,22599,30045,38220,0
0.0,0.0,0.0,17862,24271,22576,30165,38180,0
0.0,0.0,0.0,17915,24223,22599,30045,38180,0
0.0,0.0,0.0,17809,24271,22599,29984,38180,0
0.0,0.0,0.0,17862,24271,22576,29984,38140,0
0.0,0.0,0.0,17845,24247,22554,29984,38100,0
0.0,0.0,0.0,17809,24223,22576,29984,38059,0
0.0,0.0,0.0,17845,24247,22532,30015,38100,0
0.0,0.0,0.0,17845,24223,22532,30075,38220,0
0.0,0.0,0.0,17862,24152,22510,29955,38140,0
0.0,0.0,0.0,17845,24223,22488,29955,38059,0
0.0,0.0,0.0,17880,24176,22532,29984,38220,0
0.0,0.0,0.0,17880,24271,22488,29925,38019,0
0.0,0.0,0.0,17845,24247,22488,29984,38100,0
0.0,0.0,0.0,17862,24223,22444,29984,38100,0
0.0,0.0,0.0,17845,24199,22510,29984,38100,0
0.0,0.0,0.0,17845,24223,22488,29895,38019,0
0.0,0.0,0.0,17809,24176,22488,29865,38019,0
0.0,0.0,0.0,17809,24223,22510,29984,38059,0
0.0,0.0,0.0,17845,24199,22488,29925,38059,0
0.0,0.0,0.0,17827,24176,22444,29925,38100,0
0.0,0.0,0.0,17845,24176,22466,29895,37980,0
0.0,0.0,0.0,17809,24176,22488,29895,37860,0
0.0,0.0,0.0,17809,24081,22576,29925,38019,0
0.0,0.0,0.0,17792,24152,22554,29984,37860,0
0.0,0.0,0.0,17845,24129,22532,29895,37900,0
0.0,0.0,0.0,17792,24129,22532,29865,37900,0
0.0,0.0,0.0,17809,24081,22554,29925,37940,0
0.0,0.0,0.0,17792,24081,22576,29895,37900,0
0.0,0.0,0.0,17809,24081,22510,29865,37940,0
0.0,0.0,0.0,17845,24105,22532,29865,37900,0
0.0,0.0,0.0,17845,24058,22532,29895,37860,0
0.0,0.0,0.0,17809,24034,22532,29805,37781,0
0.0,0.0,0.0,17809,24081,22576,29925,37860,0
0.0,0.0,0.0,17792,24081,22510,29865,37860,0
0.0,0.0,0.0,17774,24129,22510,29805,37781,0
0.0,0.0,0.0,17792,24081,22510,29865,37781,0
0.0,0.0,0.0,17792,24058,22510,29895,37820,0
0.0,0.0,0.0,17809,24058,22488,29865,37860,0
0.0,0.0,0.0,17774,24034,22488,29895,37820,0
0.0,0.0,0.0,17809,24058,22488,29865,37900,0
0.0,0.0,0.0,17774,23987,22488,29865,37860,0
0.0,0.0,0.0,17774,24058,22510,29865,37860,0
0.0,0.0,0.0,17774,24058,22488,29805,37741,0
0.0,0.0,0.0,17774,24034,22488,29835,37820,0
0.0,0.0,0.0,17774,24034,22466,29775,37741,0
0.0,0.0,0.0,17809,24034,22466,29805,37781,0
0.0,0.0,0.0,17774,24058,22488,29805,37860,0
0.0,0.0,0.0,17792,24034,22488,29865,37781,0
0.0,0.0,0.0,17774,24034,22444,29865,37781,0
0.0,0.0,0.0,17809,23987,22444,29835,37781,0
0.0,0.0,0.0,17774,24034,22423,29775,37662,0
0.0,0.0,0.0,17774,23987,22488,29805,37701,0
0.0,0.0,0.0,17774,24034,22401,29746,37662,0
0.0,0.0,0.0,17774,24011,22466,29835,37662,0
0.0,0.0,0.0,17792,24011,22466,29805,37701,0
0.0,0.0,0.0,17774,23940,22423,29805,37741,0
0.0,0.0,0.0,17774,23964,22401,29805,37622,0
0.0,0.0,0.0,17774,23987,22466,29746,37701,0
0.0,0.0,0.0,17774,23940,22444,29775,37662,0
0.0,0.0,0.0,17774,23987,22401,29746,37701,0
0.0,0.0,0.0,17722,23964,22423,29775,37701,0
0.0,0.0,0.0,17722,23987,22444,29775,37701,0
0.0,0.0,0.0,17722,23964,22401,29775,37662,0
0.0,0.0,0.0,17739,23964,22423,29686,37701,0
0.0,0.0,0.0,17739,23987,22401,29746,37781,0
0.0,0.0,0.0,17722,23940,22401,29657,37662,0
0.0,0.0,0.0,17722,23940,22401,29746,37701,0
0.0,0.0,0.0,17739,23964,22401,29746,37662,0
0.0,0.0,0.0,17739,23940,22379,29746,37662,0
0.0,0.0,0.0,17687,23894,22401,29746,37543,0
0.0,0.0,0.0,17704,23940,22401,29746,37701,0
0.0,0.0,0.0,17669,23940,22401,29686,37622,0
0.0,0.0,0.0,17722,23940,22357,29686,37543,0
0.0,0.0,0.0,17739,23870,22401,29686,37701,0
0.0,0.0,0.0,17687,23894,22357,29746,37543,0
0.0,0.0,0.0,17704,23894,22357,29686,37543,0
0.0,0.0,0.0,17739,23847,22401,29657,37543,0
0.0,0.0,0.0,17687,23917,22357,29657,37622,0
0.0,0.0,0.0,17704,23894,22401,29686,37543,0
0.0,0.0,0.0,17722,23870,22401,29686,37465,0
0.0,0.0,0.0,17704,23894,22401,29746,37543,0
0.0,0.0,0.0,17704,23870,22335,29657,37465,0
0.0,0.0,0.0,17774,23894,22401,29686,37622,0
0.0,0.0,0.0,17704,23870,22357,29657,37583,0
0.0,0.0,0.0,17669,23847,22313,29657,37543,0
0.0,0.0,0.0,17687,23847,22357,29657,37622,0
0.0,0.0,0.0,17722,23847,22357,29627,37701,0
0.0,0.0,0.0,17687,23870,22313,29627,37622,0
0.0,0.0,0.0,17687,23847,22335,29627,37662,0
0.0,0.0,0.0,17669,23870,22313,29568,37622,0
0.0,0.0,0.0,17687,23847,22313,29538,37543,0
0.0,0.0,0.0,17722,23847,22335,29568,37622,0
0.0,0.0,0.0,17687,23847,22335,29568,37543,0
0.0,0.0,0.0,17669,23800,22335,29568,37662,0
0.0,0.0,0.0,17669,23847,22335,29538,37701,0
0.0,0.0,0.0,17687,23847,22313,29538,37504,0
0.0,0.0,0.0,17669,23847,22313,29627,37622,0
0.0,0.0,0.0,17634,23847,22313,29627,37741,0
0.0,0.0,0.0,17669,23777,22335,29627,37622,0
0.0,0.0,0.0,17669,23800,22335,29538,37465,0
0.0,0.0,0.0,17669,23847,22313,29538,37543,0
0.0,0.0,0.0,17634,23847,22313,29538,37543,0
0.0,0.0,0.0,17669,23847,22313,29568,37583,0
0.0,0.0,0.0,17669,23824,22313,29597,37465,0
0.0,0.0,0.0,17634,23800,22270,29538,37622,0
0.0,0.0,0.0,17652,23800,22313,29568,37465,0
0.0,0.0,0.0,17652,23777,22270,29509,37543,0
0.0,0.0,0.0,17634,23777,22313,29597,37504,0
0.0,0.0,0.0,17600,23754,22248,29538,37701,0
0.0,0.0,0.0,17600,23754,22313,29538,37662,0
0.0,0.0,0.0,17634,23777,22270,29538,37543,0
0.0,0.0,0.0,17722,23800,22313,29509,37465,0
0.0,0.0,0.0,17600,23800,22270,29509,37622,0
0.0,0.0,0.0,17600,23754,22292,29568,37662,0
0.0,0.0,0.0,17652,23754,22270,29509,37543,0
0.0,0.0,0.0,17582,23754,22248,29479,37543,0
0.0,0.0,0.0,17634,23707,22313,29509,37465,0
0.0,0.0,0.0,17652,23777,22270,29509,37543,0
0.0,0.0,0.0,17600,23800,22248,29509,37622,0
0.0,0.0,0.0,17634,23777,22248,29538,37543,0
0.0,0.0,0.0,17600,23754,22226,29538,37465,0
0.0,0.0,0.0,17634,23777,22205,29509,37465,0
0.0,0.0,0.0,17634,23707,22270,29509,37543,0
0.0,0.0,0.0,17634,23754,22313,29509,37583,0
0.0,0.0,0.0,17582,23684,22248,29479,37543,0
0.0,0.0,0.0,17565,23754,22270,29479,37465,0
0.0,0.0,0.0,17634,23754,22270,29479,37583,0
0.0,0.0,0.0,17634,23754,22226,29450,37386,0
0.0,0.0,0.0,17600,23754,22248,29509,37543,0
0.0,0.0,0.0,17582,23684,22226,29450,37465,0
0.0,0.0,0.0,17582,23754,22226,29450,37386,0
0.0,0.0,0.0,17582,23684,22248,29479,37543,0
0.0,0.0,0.0,17565,23684,22226,29450,37543,0
0.0,0.0,0.0,17582,23707,22226,29421,37347,0
0.0,0.0,0.0,17600,23684,22226,29450,37386,0
0.0,0.0,0.0,17582,23707,22270,29450,37662,0
0.0,0.0,0.0,17565,23707,22248,29421,37465,0
0.0,0.0,0.0,17600,23707,22226,29450,37426,0
0.0,0.0,0.0,17582,23684,22226,29450,37504,0
0.0,0.0,0.0,17582,23661,22270,29509,37426,0
0.0,0.0,0.0,17565,23684,22183,29421,37230,0
0.0,0.0,0.0,17565,23661,22226,29421,37386,0
0.0,0.0,0.0,17600,23707,22183,29450,37465,0
0.0,0.0,0.0,17600,23684,22226,29479,37465,0
0.0,0.0,0.0,17565,23569,22226,29450,37230,0
0.0,0.0,0.0,17582,23707,22226,29391,37230,0
0.0,0.0,0.0,17617,23661,22226,29450,37308,0
0.0,0.0,0.0,17565,23615,22140,29391,37191,0
0.0,0.0,0.0,17565,23684,22226,29391,37347,0
0.0,0.0,0.0,17600,23661,22183,29421,37504,0
0.0,0.0,0.0,17565,23661,22183,29391,37152,0
0.0,0.0,0.0,17565,23661,22226,29421,37230,0
0.0,0.0,0.0,17617,23638,22226,29391,37230,0
0.0,0.0,0.0,17582,23684,22205,29391,37230,0
0.0,0.0,0.0,17582,23661,22226,29391,37386,0
0.0,0.0,0.0,17565,23592,22226,29391,37308,0
0.0,0.0,0.0,17582,23638,22183,29391,37386,0
0.0,0.0,0.0,17530,23661,22270,29421,37465,0
0.0,0.0,0.0,17582,23615,22226,29421,37347,0
0.0,0.0,0.0,17565,23638,22270,29391,37230,0
0.0,0.0,0.0,17547,23615,22270,29391,37465,0
0.0,0.0,0.0,17530,23615,22226,29391,37386,0
0.0,0.0,0.0,17565,23615,22226,29391,37308,0
0.0,0.0,0.0,17565,23592,22226,29421,37386,0
0.0,0.0,0.0,17530,23661,22183,29333,37269,0
0.0,0.0,0.0,17565,23592,22226,29333,37036,0
0.0,0.0,0.0,17582,23661,22226,29333,37152,0
0.0,0.0,0.0,17565,23638,22226,29391,37152,0
0.0,0.0,0.0,17513,23661,22226,29333,37152,0
0.0,0.0,0.0,17565,23592,22226,29362,37347,0
0.0,0.0,0.0,17582,23615,22226,29421,37465,0
0.0,0.0,0.0,17565,23569,22205,29391,37152,0
0.0,0.0,0.0,17565,23615,22183,29304,37269,0
0.0,0.0,0.0,17547,23522,22226,29391,37114,0
0.0,0.0,0.0,17565,23546,22161,29421,37075,0
0.0,0.0,0.0,17565,23546,22226,29333,37386,0
0.0,0.0,0.0,17565,23569,22161,29333,37152,0
0.0,0.0,0.0,17530,23569,22161,29274,37075,0
0.0,0.0,0.0,17582,23592,22161,29333,37269,0
0.0,0.0,0.0,17600,23569,22140,29333,37152,0
0.0,0.0,0.0,17634,23522,22183,29333,37114,0
0.0,0.0,0.0,17669,23499,22161,29304,37152,0
0.0,0.0,0.0,17634,23569,22140,29333,37075,0
0.0,0.0,0.0,17652,23499,22183,29391,36998,0
0.0,0.0,0.0,17652,23569,22140,29391,37075,0
0.0,0.0,0.0,17704,23569,22161,29391,36959,0
0.0,0.0,0.0,17652,23522,22140,29391,36998,0
0.0,0.0,0.0,17634,23522,22183,29333,37075,0
0.0,0.0,0.0,17634,23522,22140,29362,37036,0
0.0,0.0,0.0,17634,23569,22140,29391,37152,0
0.0,0.0,0.0,17669,23569,22140,29333,37075,0
0.0,0.0,0.0,17634,23546,22161,29333,37386,0
0.0,0.0,0.0,17669,23522,22183,29333,37114,0
0.0,0.0,0.0,17600,23522,22161,29333,37269,0
0.0,0.0,0.0,17600,23522,22140,29333,37114,0
0.0,0.0,0.0,17600,23569,22096,29333,37269,0
0.0,0.0,0.0,17600,23499,22096,29304,37230,0
0.0,0.0,0.0,17617,23477,22140,29333,37191,0
0.0,0.0,0.0,17600,23477,22183,29391,37308,0
0.0,0.0,0.0,17600,23477,22140,29362,37191,0
0.0,0.0,0.0,17600,23477,22140,29274,37114,0
0.0,0.0,0.0,17600,23499,22140,29333,37347,0
0.0,0.0,0.0,17565,23499,22118,29304,37230,0
0.0,0.0,0.0,17600,23569,22096,29304,37036,0
0.0,0.0,0.0,17582,23477,22140,29391,37152,0
0.0,0.0,0.0,17582,23477,22118,29304,37230,0
0.0,0.0,0.0,17565,23522,22075,29304,37114,0
0.0,0.0,0.0,17582,23477,22140,29333,37114,0
0.0,0.0,0.0,17582,23477,22096,29333,36998,0
0.0,0.0,0.0,17600,23431,22140,29362,37114,0
0.0,0.0,0.0,17565,23477,22140,29274,37036,0
0.0,0.0,0.0,17565,23454,22075,29391,37230,0
0.0,0.0,0.0,17565,23477,22118,29274,37075,0
0.0,0.0,0.0,17582,23477,22118,29333,36998,0
0.0,0.0,0.0,17565,23477,22075,29333,36920,0
0.0,0.0,0.0,17565,23477,22096,29304,36920,0
0.0,0.0,0.0,17582,23477,22053,29274,37152,0
0.0,0.0,0.0,17565,23499,22075,29304,36998,0
0.0,0.0,0.0,17582,23477,22053,29274,37075,0
0.0,0.0,0.0,17565,23454,22096,29274,36843,0
0.0,0.0,0.0,17600,23477,22075,29304,37075,0
0.0,0.0,0.0,17565,23431,22096,29274,37152,0
0.0,0.0,0.0,17530,23431,22053,29245,36959,0
0.0,0.0,0.0,17495,23408,22053,29274,37152,0
0.0,0.0,0.0,17565,23431,22075,29216,37114,0
0.0,0.0,0.0,17565,23477,22075,29187,36843,0
0.0,0.0,0.0,17495,23477,22096,29274,36920,0
0.0,0.0,0.0,17513,23431,22032,29216,36843,0
0.0,0.0,0.0,17513,23431,22053,29216,36959,0
0.0,0.0,0.0,17513,23431,22096,29274,36998,0
0.0,0.0,0.0,17547,23431,22053,29274,36998,0
0.0,0.0,0.0,17565,23431,22053,29216,37114,0
0.0,0.0,0.0,17530,23477,22053,29274,36998,0
0.0,0.0,0.0,17513,23431,22032,29216,36959,0
0.0,0.0,0.0,17513,23431,22010,29216,36959,0
0.0,0.0,0.0,17530,23431,22096,29274,37152,0
0.0,0.0,0.0,17530,23385,22032,29187,37114,0
0.0,0.0,0.0,17443,23362,22010,29216,37075,0
0.0,0.0,0.0,17289,23431,22010,29274,36805,0
0.0,0.0,0.0,16698,23385,21903,29627,36843,0
0.0,0.0,0.0,16401,23294,21882,29627,37269,0
0.0,0.0,0.0,16368,23316,21860,29568,36998,0
0.0,0.0,0.0,16189,23294,21903,29509,36767,0
0.0,0.0,0.0,16076,23316,21882,29509,36538,0
0.0,0.0,0.0,16012,23225,21882,29538,36614,0
0.0,0.0,0.0,15964,23248,21839,29509,36538,0
0.0,0.0,0.0,15900,23225,21924,29509,37075,0
0.0,0.0,0.0,15916,23225,21882,29479,36959,0
0.0,0.0,0.0,16060,23271,22010,29042,36614,0
0.0,0.0,0.0,16076,23203,21882,29509,37075,0
0.0,0.0,0.0,16125,23294,21924,29450,37114,0
0.0,0.0,0.0,16125,23157,21924,29538,37114,0
0.0,0.0,0.0,16141,23225,21924,29509,36805,0
0.0,0.0,0.0,16157,23203,21903,29479,36614,0
0.0,0.0,0.0,16157,23157,21882,29391,36805,0
0.0,0.0,0.0,16222,23248,21882,29509,36767,0
0.0,0.0,0.0,16157,23203,21882,29509,36920,0
0.0,0.0,0.0,16173,23203,21924,29450,36959,0
0.0,0.0,0.0,16189,23203,21882,29450,36690,0
0.0,0.0,0.0,16222,23112,21882,29509,36690,0
0.0,0.0,0.0,16173,23135,21882,29450,36998,0
0.0,0.0,0.0,16222,23203,21924,29421,36767,0
0.0,0.0,0.0,16157,23248,21924,29450,36805,0
0.0,0.0,0.0,16157,23157,21903,29391,36576,0
0.0,0.0,0.0,16222,23157,21967,29450,36805,0
0.0,0.0,0.0,16222,23135,21903,29479,36690,0
0.0,0.0,0.0,16189,23112,21882,29450,36690,0
0.0,0.0,0.0,16222,23112,21903,29450,36882,0
0.0,0.0,0.0,16173,23112,21860,29391,36462,0
0.0,0.0,0.0,16125,23135,21882,29450,36920,0
0.0,0.0,0.0,16222,23157,21882,29509,36843,0
0.0,0.0,0.0,16157,23112,21882,29450,36614,0
0.0,0.0,0.0,16173,23112,21882,29450,36920,0
0.0,0.0,0.0,16157,23157,21839,29421,36690,0
0.0,0.0,0.0,16189,23157,21839,29568,36652,0
0.0,0.0,0.0,16222,23112,21903,29450,36767,0
0.0,0.0,0.0,16222,23135,21882,29450,36920,0
0.0,0.0,0.0,16157,23112,21882,29421,36614,0
0.0,0.0,0.0,16222,23112,21882,29450,36538,0
0.0,0.0,0.0,16173,23135,21818,29421,36614,0
0.0,0.0,0.0,16222,23112,21882,29333,36805,0
0.0,0.0,0.0,16189,23135,21882,29391,36767,0
0.0,0.0,0.0,16222,23112,21860,29421,36462,0
0.0,0.0,0.0,16206,23112,21839,29450,36576,0
0.0,0.0,0.0,16222,23112,21818,29421,36424,0
0.0,0.0,0.0,16222,23067,21860,29391,36538,0
0.0,0.0,0.0,16238,23112,21882,29450,36538,0
0.0,0.0,0.0,16222,23067,21839,29450,36998,0
0.0,0.0,0.0,16222,23112,21796,29391,36882,0
0.0,0.0,0.0,16222,23135,21796,29421,36462,0
0.0,0.0,0.0,16222,23112,21839,29391,36499,0
0.0,0.0,0.0,16287,23112,21818,29391,36462,0
0.0,0.0,0.0,16222,23112,21796,29391,36538,0
0.0,0.0,0.0,16254,23067,21818,29391,36805,0
0.0,0.0,0.0,16254,23112,21839,29333,36959,0
0.0,0.0,0.0,16222,23067,21818,29421,36843,0
0.0,0.0,0.0,16189,23112,21839,29450,36959,0
0.0,0.0,0.0,16222,23112,21882,29391,36882,0
0.0,0.0,0.0,16238,23022,21818,29421,36920,0
0.0,0.0,0.0,16254,23067,21839,29362,36843,0
0.0,0.0,0.0,16287,23067,21818,29391,36920,0
0.0,0.0,0.0,16287,23067,21818,29391,36920,0
0.0,0.0,0.0,16222,23067,21818,29333,36882,0
0.0,0.0,0.0,16238,23067,21796,29391,36959,0
0.0,0.0,0.0,16287,23067,21796,29391,36959,0
0.0,0.0,0.0,16254,23067,21796,29391,36920,0
0.0,0.0,0.0,16287,23067,21796,29391,36920,0
0.0,0.0,0.0,16254,23044,21796,29333,36843,0
0.0,0.0,0.0,16222,23067,21796,29391,36805,0
0.0,0.0,0.0,16222,23112,21796,29391,36767,0
0.0,0.0,0.0,16238,23022,21796,29391,36998,0
0.0,0.0,0.0,16222,23044,21775,29391,36882,0
0.0,0.0,0.0,16254,23022,21839,29450,36998,0
0.0,0.0,0.0,16287,23022,21818,29391,36998,0
0.0,0.0,0.0,16287,22999,21796,29333,36959,0
0.0,0.0,0.0,16287,23044,21796,29362,36959,0
0.0,0.0,0.0,16271,23022,21796,29333,36882,0
0.0,0.0,0.0,16303,23044,21775,29304,36882,0
0.0,0.0,0.0,16336,23022,21796,29304,36959,0
0.0,0.0,0.0,16287,22999,21775,29333,36959,0
0.0,0.0,0.0,16303,23022,21796,29362,36998,0
0.0,0.0,0.0,16352,23022,21796,29333,36959,0
0.0,0.0,0.0,16303,23067,21754,29333,36843,0
0.0,0.0,0.0,16303,23022,21754,29391,36998,0
0.0,0.0,0.0,16352,23022,21754,29333,36920,0
0.0,0.0,0.0,16352,23044,21754,29362,36805,0
0.0,0.0,0.0,16352,23022,21796,29333,36843,0
0.0,0.0,0.0,16352,23022,21733,29274,36882,0
0.0,0.0,0.0,16352,23022,21775,29274,36843,0
0.0,0.0,0.0,16352,23022,21754,29304,36920,0
0.0,0.0,0.0,16352,22955,21733,29274,36882,0
0.0,0.0,0.0,16352,22977,21796,29391,36920,0
0.0,0.0,0.0,16336,23022,21754,29333,36805,0
0.0,0.0,0.0,16352,23022,21733,29274,36805,0
0.0,0.0,0.0,16385,23022,21796,29333,36920,0
0.0,0.0,0.0,16368,23022,21754,29304,36767,0
0.0,0.0,0.0,16319,23044,21775,29274,36767,0
0.0,0.0,0.0,16303,22977,21711,29274,36767,0
0.0,0.0,0.0,16336,23022,21711,29274,36843,0
0.0,0.0,0.0,16352,22977,21754,29333,36843,0
0.0,0.0,0.0,16319,22977,21733,29391,36920,0
0.0,0.0,0.0,16417,23067,21711,29333,36843,0
0.0,0.0,0.0,16368,23022,21711,29333,36767,0
0.0,0.0,0.0,16417,23044,21711,29304,36767,0
0.0,0.0,0.0,16450,23022,21733,29304,36728,0
0.0,0.0,0.0,16483,23022,21754,29333,36843,0
0.0,0.0,0.0,16450,23044,21711,29274,36767,0
0.0,0.0,0.0,16483,22977,21733,29333,36882,0
0.0,0.0,0.0,16450,23022,21754,29362,36767,0
0.0,0.0,0.0,16483,23022,21711,29274,36690,0
0.0,0.0,0.0,16483,22999,21711,29333,36767,0
0.0,0.0,0.0,16483,22999,21711,29158,36843,0
0.0,0.0,0.0,16483,22999,21690,29304,36767,0
0.0,0.0,0.0,16467,22932,21711,29274,36690,0
0.0,0.0,0.0,16483,23022,21711,29304,36728,0
0.0,0.0,0.0,16434,22999,21711,29274,36805,0
0.0,0.0,0.0,16450,22999,21711,29274,36805,0
0.0,0.0,0.0,16483,22977,21648,29391,36843,0
0.0,0.0,0.0,16483,22999,21711,29333,36690,0
0.0,0.0,0.0,16483,22955,21711,29333,36805,0
0.0,0.0,0.0,16434,22977,21648,29304,36767,0
0.0,0.0,0.0,16483,22977,21711,29333,36690,0
0.0,0.0,0.0,16450,22955,21669,29333,36690,0
0.0,0.0,0.0,16434,22977,21648,29274,36728,0
0.0,0.0,0.0,16483,22977,21648,29304,36767,0
0.0,0.0,0.0,16434,22932,21711,29274,36767,0
0.0,0.0,0.0,16483,23044,21648,29274,36728,0
0.0,0.0,0.0,16483,22932,21669,29274,36767,0
0.0,0.0,0.0,16450,22932,21648,29274,36690,0
0.0,0.0,0.0,16434,22955,21669,29304,36690,0
0.0,0.0,0.0,16434,22977,21627,29245,36690,0
0.0,0.0,0.0,16450,22977,21648,29274,36767,0
0.0,0.0,0.0,16417,22977,21648,29274,36614,0
0.0,0.0,0.0,16434,22932,21648,29274,36767,0
0.0,0.0,0.0,16450,22955,21690,29304,36728,0
0.0,0.0,0.0,16450,22977,21648,29274,36690,0
0.0,0.0,0.0,16450,22977,21627,29274,36690,0
0.0,0.0,0.0,16385,22932,21648,29304,36690,0
0.0,0.0,0.0,16417,22977,21627,29274,36690,0
0.0,0.0,0.0,16417,22932,21627,29187,36728,0
0.0,0.0,0.0,16434,22932,21627,29274,36690,0
0.0,0.0,0.0,16385,22932,21627,29216,36462,0
0.0,0.0,0.0,16385,22955,21606,29245,36310,0
0.0,0.0,0.0,16352,22977,21648,29216,36310,0
0.0,0.0,0.0,16385,22932,21648,29304,36348,0
0.0,0.0,0.0,16385,22977,21627,29274,36272,0
0.0,0.0,0.0,16368,22910,21627,29274,36235,0
0.0,0.0,0.0,16368,22932,21627,29245,36160,0
0.0,0.0,0.0,16385,22887,21627,29274,36160,0
0.0,0.0,0.0,16368,22955,21627,29245,36085,0
0.0,0.0,0.0,16368,22932,21648,29304,36197,0
0.0,0.0,0.0,16368,22977,21627,29216,36235,0
0.0,0.0,0.0,16385,22932,21627,29274,36160,0
0.0,0.0,0.0,16385,22932,21606,29274,36160,0
0.0,0.0,0.0,16368,22887,21627,29216,36235,0
0.0,0.0,0.0,16368,22910,21627,29333,36272,0
0.0,0.0,0.0,16352,22932,21606,29216,36235,0
0.0,0.0,0.0,16352,22932,21648,29216,36310,0
0.0,0.0,0.0,16319,22932,21648,29274,36386,0
0.0,0.0,0.0,16303,22932,21627,29245,36462,0
0.0,0.0,0.0,16303,22887,21606,29304,36348,0
0.0,0.0,0.0,16287,22932,21606,29274,36348,0
0.0,0.0,0.0,16303,22865,21584,29245,36348,0
0.0,0.0,0.0,16303,22887,21627,29274,36348,0
0.0,0.0,0.0,16352,22865,21584,29216,36310,0
0.0,0.0,0.0,16336,22932,21627,29216,36235,0
0.0,0.0,0.0,16303,22932,21648,29216,36348,0
0.0,0.0,0.0,16319,22887,21627,29216,36310,0
0.0,0.0,0.0,16303,22910,21584,29216,36386,0
0.0,0.0,0.0,16287,22887,21627,29274,36310,0
0.0,0.0,0.0,16303,22932,21584,29274,36310,0
0.0,0.0,0.0,16303,22932,21627,29216,36310,0
0.0,0.0,0.0,16287,22910,21627,29274,36235,0
0.0,0.0,0.0,16319,22865,21584,29187,36197,0
0.0,0.0,0.0,16287,22865,21606,29216,36085,0
0.0,0.0,0.0,16352,22843,21627,29274,36160,0
0.0,0.0,0.0,16352,22932,21627,29187,36160,0
0.0,0.0,0.0,16319,22887,21584,29274,36197,0
0.0,0.0,0.0,16319,22932,21563,29158,36160,0
0.0,0.0,0.0,16352,22910,21584,29216,36197,0
0.0,0.0,0.0,16287,22955,21584,29216,36160,0
0.0,0.0,0.0,16336,22887,21542,29216,36085,0
0.0,0.0,0.0,16303,22932,21584,29274,36235,0
0.0,0.0,0.0,16303,22887,21584,29216,36085,0
0.0,0.0,0.0,16303,22865,21584,29216,36047,0
0.0,0.0,0.0,16303,22977,21563,29216,36122,0
0.0,0.0,0.0,16352,22932,21584,29274,36235,0
0.0,0.0,0.0,16352,22887,21606,29216,36160,0
0.0,0.0,0.0,16287,22865,21584,29129,36047,0
0.0,0.0,0.0,16352,22910,21627,29216,36160,0
0.0,0.0,0.0,16287,22865,21584,29158,36047,0
0.0,0.0,0.0,16303,22865,21542,29216,36122,0
0.0,0.0,0.0,16303,22865,21563,29216,36160,0
0.0,0.0,0.0,16336,22865,21563,29216,36122,0
0.0,0.0,0.0,16254,22843,21563,29187,36160,0
0.0,0.0,0.0,16319,22887,21563,29187,36122,0
0.0,0.0,0.0,16303,22843,21563,29187,36122,0
0.0,0.0,0.0,16303,22865,21563,29216,36085,0
0.0,0.0,0.0,16303,22887,21584,29216,36160,0
0.0,0.0,0.0,16287,22865,21542,29187,36160,0
0.0,0.0,0.0,16303,22887,21584,29187,36122,0
0.0,0.0,0.0,16352,22843,21606,29158,36085,0
0.0,0.0,0.0,16319,22843,21563,29158,36085,0
0.0,0.0,0.0,16303,22932,21584,29100,36010,0
0.0,0.0,0.0,16303,22887,21563,29187,36085,0
0.0,0.0,0.0,16287,22887,21542,29129,36235,0
0.0,0.0,0.0,16287,22843,21521,29158,36348,0
0.0,0.0,0.0,16287,22887,21563,29187,36160,0
0.0,0.0,0.0,16287,22798,21563,29216,36197,0
0.0,0.0,0.0,16287,22843,21542,29158,36085,0
0.0,0.0,0.0,16287,22843,21542,29100,36047,0
0.0,0.0,0.0,16287,22865,21542,29245,36197,0
0.0,0.0,0.0,16287,22843,21542,29129,36160,0
0.0,0.0,0.0,16287,22843,21542,29129,36160,0
0.0,0.0,0.0,16287,22843,21584,29158,36160,0
0.0,0.0,0.0,16303,22865,21542,29129,36085,0
0.0,0.0,0.0,16271,22843,21542,29129,36310,0
0.0,0.0,0.0,16287,22843,21584,29158,36462,0
0.0,0.0,0.0,16303,22887,21500,29158,36085,0
0.0,0.0,0.0,16303,22843,21542,29100,36085,0
0.0,0.0,0.0,16303,22887,21542,29100,36010,0
0.0,0.0,0.0,16287,22865,21500,29129,36010,0
0.0,0.0,0.0,16303,22820,21521,29158,36047,0
0.0,0.0,0.0,16303,22843,21563,29129,36122,0
0.0,0.0,0.0,16287,22843,21542,29100,36047,0
0.0,0.0,0.0,16303,22865,21542,29187,36160,0
0.0,0.0,0.0,16336,22887,21584,29158,36235,0
0.0,0.0,0.0,16287,22843,21563,29158,36122,0
0.0,0.0,0.0,16287,22843,21542,29158,36160,0
0.0,0.0,0.0,16287,22887,21542,29158,36160,0
0.0,0.0,0.0,16254,22865,21542,29158,36047,0
0.0,0.0,0.0,16254,22843,21542,29100,36160,0
0.0,0.0,0.0,16303,22843,21563,29158,36235,0
0.0,0.0,0.0,16254,22843,21542,29187,35935,0
0.0,0.0,0.0,16287,22843,21563,29158,36047,0
0.0,0.0,0.0,16287,22776,21500,29129,36122,0
0.0,0.0,0.0,16271,22843,21500,29100,36010,0
0.0,0.0,0.0,16287,22843,21479,29100,36085,0
0.0,0.0,0.0,16287,22798,21542,29158,36462,0
0.0,0.0,0.0,16303,22865,21542,29129,35972,0
0.0,0.0,0.0,16254,22798,21500,29187,35935,0
0.0,0.0,0.0,16352,22843,21479,29100,35935,0
0.0,0.0,0.0,16352,22887,21542,29100,35935,0
0.0,0.0,0.0,16319,22887,21500,29129,35935,0
0.0,0.0,0.0,16336,22865,21500,29100,35935,0
0.0,0.0,0.0,16352,22910,21500,29158,36386,0
0.0,0.0,0.0,16303,22865,21500,29129,36462,0
0.0,0.0,0.0,16352,22887,21479,29100,36348,0
0.0,0.0,0.0,16303,22843,21458,29129,36386,0
0.0,0.0,0.0,16303,22798,21479,29071,36310,0
0.0,0.0,0.0,16352,22843,21542,29100,36462,0
0.0,0.0,0.0,16336,22843,21479,29100,36386,0
0.0,0.0,0.0,16336,22843,21479,29100,36462,0
0.0,0.0,0.0,16352,22843,21500,29100,36348,0
0.0,0.0,0.0,16319,22843,21521,29100,36462,0
0.0,0.0,0.0,16352,22820,21458,29129,36348,0
0.0,0.0,0.0,16303,22865,21458,29100,36386,0
0.0,0.0,0.0,16352,22843,21479,29042,36386,0
0.0,0.0,0.0,16319,22798,21500,29100,36348,0
0.0,0.0,0.0,16303,22798,21521,29042,36386,0
0.0,0.0,0.0,16303,22843,21479,29071,36386,0
0.0,0.0,0.0,16352,22887,21542,29071,36538,0
0.0,0.0,0.0,16287,22798,21458,29042,36348,0
0.0,0.0,0.0,16303,22843,21458,29100,36310,0
0.0,0.0,0.0,16303,22798,21500,29100,36462,0
0.0,0.0,0.0,16303,22843,21437,29042,36348,0
0.0,0.0,0.0,16287,22843,21479,29100,36386,0
0.0,0.0,0.0,16287,22798,21458,29100,36348,0
0.0,0.0,0.0,16303,22798,21479,29100,36462,0
0.0,0.0,0.0,16319,22798,21458,29100,36348,0
0.0,0.0,0.0,16303,22843,21479,29042,36348,0
0.0,0.0,0.0,16319,22798,21458,29071,36424,0
0.0,0.0,0.0,16303,22776,21479,29042,36348,0
0.0,0.0,0.0,16319,22798,21458,29042,36386,0
0.0,0.0,0.0,16287,22843,21479,29042,36424,0
0.0,0.0,0.0,16303,22776,21458,29071,36310,0
0.0,0.0,0.0,16254,22754,21479,29042,36348,0
0.0,0.0,0.0,16287,22776,21437,29042,36310,0
0.0,0.0,0.0,16303,22798,21458,29042,36348,0
0.0,0.0,0.0,16287,22798,21416,29100,36235,0
0.0,0.0,0.0,16287,22798,21479,29100,36310,0
0.0,0.0,0.0,16303,22776,21458,29042,36272,0
0.0,0.0,0.0,16287,22776,21458,29042,36348,0
0.0,0.0,0.0,16287,22798,21395,29042,36235,0
0.0,0.0,0.0,16287,22754,21458,29042,36310,0
0.0,0.0,0.0,16303,22798,21395,28984,36272,0
0.0,0.0,0.0,16303,22798,21458,29100,36386,0
0.0,0.0,0.0,16303,22843,21458,28984,36424,0
0.0,0.0,0.0,16287,22798,21416,29013,35898,0
0.0,0.0,0.0,16287,22843,21416,29042,36160,0
0.0,0.0,0.0,16287,22798,21458,29042,36197,0
0.0,0.0,0.0,16303,22798,21437,28955,36010,0
0.0,0.0,0.0,16287,22776,21416,29042,35935,0
0.0,0.0,0.0,16287,22798,21416,28984,35935,0
0.0,0.0,0.0,16303,22798,21458,28955,36010,0
0.0,0.0,0.0,16287,22776,21437,28984,35861,0
0.0,0.0,0.0,16287,22776,21395,28955,35861,0
0.0,0.0,0.0,16303,22798,21395,28927,36160,0
0.0,0.0,0.0,16303,22798,21416,28955,36085,0
0.0,0.0,0.0,16287,22798,21395,28927,36197,0
0.0,0.0,0.0,16254,22798,21395,28927,35787,0
0.0,0.0,0.0,16254,22754,21458,28984,35861,0
0.0,0.0,0.0,16238,22776,21437,28927,35787,0
0.0,0.0,0.0,16222,22843,21416,28984,35972,0
0.0,0.0,0.0,16271,22776,21375,28927,36010,0
0.0,0.0,0.0,16109,22776,21479,28984,35898,0
0.0,0.0,0.0,16060,22798,21416,28955,36085,0
0.0,0.0,0.0,16076,22798,21395,28984,35861,0
0.0,0.0,0.0,15900,22776,21375,28927,35787,0
0.0,0.0,0.0,15663,22754,21458,28898,35787,0
0.0,0.0,0.0,15837,22798,21416,28927,35935,0
0.0,0.0,0.0,15837,22887,21395,28984,36197,0
0.0,0.0,0.0,15506,22932,21416,28984,36047,0
0.0,0.0,0.0,15150,23022,21542,29013,36047,0
0.0,0.0,0.0,14967,23248,21627,28955,35861,0
0.0,0.0,0.0,14967,23339,21648,28984,35861,0
0.0,0.0,0.0,14726,23546,21754,29042,35787,0
0.0,0.0,0.0,14355,23661,21882,29100,35749,0
0.0,0.0,0.0,14429,23569,21796,29042,35639,0
0.0,0.0,0.0,13935,23522,21796,29013,35565,0
0.0,0.0,0.0,13792,23569,21796,28984,35565,0
0.0,0.0,0.0,13906,23477,21796,28984,35528,0
0.0,0.0,0.0,14195,23522,21796,29013,35565,0
0.0,0.0,0.0,14816,23477,21754,28927,35602,0
0.0,0.0,0.0,15350,23408,21711,28955,35602,0
0.0,0.0,0.0,15789,23477,21648,28984,35676,0
0.0,0.0,0.0,16189,23431,21648,29042,35639,0
0.0,0.0,0.0,16698,23431,21669,29042,35861,0
0.0,0.0,0.0,16932,23499,21606,29042,35861,0
0.0,0.0,0.0,17254,23522,21584,28984,35861,0
0.0,0.0,0.0,17374,23522,21563,29042,35898,0
0.0,0.0,0.0,17530,23569,21542,29071,35935,0
0.0,0.0,0.0,17774,23661,21542,29100,35898,0
0.0,0.0,0.0,17933,23684,21542,29187,35935,0
0.0,0.0,0.0,17915,23707,21627,29158,35861,0
0.0,0.0,0.0,18093,23754,21521,29129,36010,0
0.0,0.0,0.0,18057,23754,21542,29100,35972,0
0.0,0.0,0.0,18022,23684,21479,29071,35935,0
0.0,0.0,0.0,17986,23707,21542,29129,36010,0
0.0,0.0,0.0,17933,23661,21542,29042,35898,0
0.0,0.0,0.0,17933,23661,21542,29100,36010,0
0.0,0.0,0.0,17915,23684,21542,29071,36010,0
0.0,0.0,0.0,17915,23661,21542,29100,36010,0
0.0,0.0,0.0,17880,23661,21521,29042,35935,0
0.0,0.0,0.0,17880,23661,21542,29071,35972,0
0.0,0.0,0.0,17915,23638,21500,29042,35972,0
0.0,0.0,0.0,17862,23615,21479,29013,35861,0
0.0,0.0,0.0,17845,23661,21458,28984,35935,0
0.0,0.0,0.0,17809,23522,21521,29042,35972,0
0.0,0.0,0.0,17809,23661,21458,29042,35898,0
0.0,0.0,0.0,17845,23615,21458,28984,35898,0
0.0,0.0,0.0,17845,23592,21479,28984,35861,0
0.0,0.0,0.0,17845,23569,21458,29071,35898,0
0.0,0.0,0.0,17862,23615,21458,29042,36010,0
0.0,0.0,0.0,17845,23754,21458,29071,35935,0
0.0,0.0,0.0,17845,23569,21500,29042,35861,0
0.0,0.0,0.0,17827,23499,21479,29071,35972,0
0.0,0.0,0.0,17845,23569,21542,29042,36010,0
0.0,0.0,0.0,17827,23569,21479,29042,36010,0
0.0,0.0,0.0,17757,23569,21479,28984,35935,0
0.0,0.0,0.0,17774,23592,21479,29013,35861,0
0.0,0.0,0.0,17809,23615,21458,28984,35935,0
0.0,0.0,0.0,17757,23615,21458,28955,35861,0
0.0,0.0,0.0,17774,23522,21500,28955,35861,0
0.0,0.0,0.0,17774,23546,21437,28927,35824,0
0.0,0.0,0.0,17739,23569,21458,29013,35787,0
0.0,0.0,0.0,17774,23569,21479,29042,35935,0
0.0,0.0,0.0,17757,23522,21500,29042,35787,0
0.0,0.0,0.0,17704,23522,21458,28984,35787,0
0.0,0.0,0.0,17722,23569,21458,29042,35861,0
0.0,0.0,0.0,17739,23522,21458,28955,35824,0
0.0,0.0,0.0,17722,23522,21479,28955,35861,0
0.0,0.0,0.0,17739,23522,21416,29042,35787,0
0.0,0.0,0.0,17739,23569,21458,28927,35749,0
0.0,0.0,0.0,17704,23522,21375,28955,35749,0
0.0,0.0,0.0,17722,23522,21416,29013,35898,0
0.0,0.0,0.0,17722,23522,21416,29042,35898,0
0.0,0.0,0.0,17722,23499,21395,28927,35861,0
0.0,0.0,0.0,17669,23499,21416,28984,35861,0
0.0,0.0,0.0,17704,23522,21375,28955,35861,0
0.0,0.0,0.0,17722,23477,21416,28955,35898,0
0.0,0.0,0.0,17704,23499,21395,28984,35861,0
0.0,0.0,0.0,17704,23477,21458,28984,35787,0
0.0,0.0,0.0,17704,23477,21375,28955,35824,0
0.0,0.0,0.0,17704,23477,21375,28840,35861,0
0.0,0.0,0.0,17704,23477,21375,28984,35787,0
0.0,0.0,0.0,17704,23477,21416,28984,35787,0
0.0,0.0,0.0,17704,23499,21375,28955,35749,0
0.0,0.0,0.0,17704,23431,21416,28955,35861,0
0.0,0.0,0.0,17704,23431,21416,28984,35861,0
0.0,0.0,0.0,17704,23477,21354,28984,35787,0
0.0,0.0,0.0,17687,23477,21375,28984,35935,0
0.0,0.0,0.0,17669,23477,21333,28955,35787,0
0.0,0.0,0.0,17669,23477,21375,28927,35861,0
0.0,0.0,0.0,17704,23499,21375,28955,35749,0
0.0,0.0,0.0,17809,23477,21375,28955,35861,0
0.0,0.0,0.0,17880,23477,21333,28984,35824,0
0.0,0.0,0.0,17986,23477,21375,28984,35824,0
0.0,0.0,0.0,17986,23499,21375,28984,35935,0
0.0,0.0,0.0,17933,23431,21333,29013,35861,0
0.0,0.0,0.0,17915,23477,21375,28927,35861,0
0.0,0.0,0.0,17933,23431,21375,28869,35861,0
0.0,0.0,0.0,17986,23522,21416,29042,36010,0
0.0,0.0,0.0,17951,23499,21458,29158,36310,0
0.0,0.0,0.0,17862,23477,21500,29129,36272,0
0.0,0.0,0.0,17774,23477,21458,29100,36160,0
0.0,0.0,0.0,17722,23431,21458,28984,36047,0
0.0,0.0,0.0,17739,23431,21437,28984,35935,0
0.0,0.0,0.0,17704,23431,21437,29013,35935,0
0.0,0.0,0.0,17669,23431,21375,28927,36010,0
0.0,0.0,0.0,17669,23385,21395,28927,35898,0
0.0,0.0,0.0,17687,23316,21375,28955,35861,0
0.0,0.0,0.0,17669,23339,21375,28955,35935,0
0.0,0.0,0.0,17652,23339,21375,28955,35972,0
0.0,0.0,0.0,17669,23339,21395,28927,35972,0
0.0,0.0,0.0,17652,23339,21375,28955,35972,0
0.0,0.0,0.0,17634,23339,21333,28927,35972,0
0.0,0.0,0.0,17634,23316,21333,28955,35898,0
0.0,0.0,0.0,17634,23294,21333,28927,35787,0
0.0,0.0,0.0,17634,23294,21312,28927,35861,0
0.0,0.0,0.0,17652,23294,21312,28898,35749,0
0.0,0.0,0.0,17565,23248,21333,28955,35861,0
0.0,0.0,0.0,17582,23248,21312,28927,35898,0
0.0,0.0,0.0,17513,23294,21312,28840,35712,0
0.0,0.0,0.0,17495,23248,21312,28869,35749,0
0.0,0.0,0.0,17478,23248,21312,28898,35787,0
0.0,0.0,0.0,17495,23294,21291,28869,35787,0
0.0,0.0,0.0,17478,23248,21291,28840,35712,0
0.0,0.0,0.0,17495,23248,21291,28840,35639,0
0.0,0.0,0.0,17478,23248,21333,28869,35824,0
0.0,0.0,0.0,17461,23248,21291,28869,35749,0
0.0,0.0,0.0,17495,23225,21270,28869,35712,0
0.0,0.0,0.0,17495,23203,21312,28869,35639,0
0.0,0.0,0.0,17495,23248,21291,28840,35639,0
0.0,0.0,0.0,17461,23248,21333,28812,35639,0
0.0,0.0,0.0,17495,23294,21250,28840,35639,0
0.0,0.0,0.0,17495,23294,21291,28812,35749,0
0.0,0.0,0.0,17461,23203,21291,28812,35676,0
0.0,0.0,0.0,17495,23225,21270,28726,35712,0
0.0,0.0,0.0,17495,23248,21250,28869,35712,0
0.0,0.0,0.0,17426,23225,21291,28869,35749,0
0.0,0.0,0.0,17513,23294,21250,28812,35712,0
0.0,0.0,0.0,17565,23248,21312,28869,35639,0
0.0,0.0,0.0,17530,23248,21291,28869,35749,0
0.0,0.0,0.0,17565,23225,21250,28869,35712,0
0.0,0.0,0.0,17547,23294,21229,28812,35787,0
0.0,0.0,0.0,17704,23339,21229,28840,35712,0
0.0,0.0,0.0,18164,23431,21250,28812,35749,0
0.0,0.0,0.0,18075,23385,21291,28869,35861,0
0.0,0.0,0.0,18039,23339,21229,28840,35861,0
0.0,0.0,0.0,17986,23316,21250,28812,35787,0
0.0,0.0,0.0,18022,23339,21291,28869,35861,0
0.0,0.0,0.0,17968,23316,21250,28840,35712,0
0.0,0.0,0.0,17968,23316,21208,28840,35712,0
0.0,0.0,0.0,17933,23294,21250,28840,35824,0
0.0,0.0,0.0,17915,23339,21229,28783,35861,0
0.0,0.0,0.0,17880,23294,21229,28898,35712,0
0.0,0.0,0.0,17809,23248,21250,28812,35749,0
0.0,0.0,0.0,17774,23294,21250,28840,35749,0
0.0,0.0,0.0,17774,23248,21229,28812,35712,0
0.0,0.0,0.0,17774,23225,21229,28812,35712,0
0.0,0.0,0.0,17739,23248,21270,28812,35712,0
0.0,0.0,0.0,17774,23180,21250,28840,35712,0
0.0,0.0,0.0,17722,23203,21250,28697,35712,0
0.0,0.0,0.0,17739,23203,21208,28812,35639,0
0.0,0.0,0.0,17739,23203,21250,28840,35676,0
0.0,0.0,0.0,17739,23203,21250,28812,35712,0
0.0,0.0,0.0,17722,23203,21229,28783,35712,0
0.0,0.0,0.0,17704,23225,21229,28754,35602,0
0.0,0.0,0.0,17652,23157,21250,28783,35639,0
0.0,0.0,0.0,17669,23157,21250,28812,35676,0
0.0,0.0,0.0,17687,23203,21208,28754,35602,0
0.0,0.0,0.0,17634,23112,21229,28812,35639,0
0.0,0.0,0.0,17669,23112,21229,28812,35602,0
0.0,0.0,0.0,17687,23112,21208,28754,35565,0
0.0,0.0,0.0,17634,23112,21208,28783,35712,0
0.0,0.0,0.0,17634,23157,21229,28754,35639,0
0.0,0.0,0.0,17582,23112,21208,28812,35602,0
0.0,0.0,0.0,17600,23157,21250,28812,35712,0
0.0,0.0,0.0,17617,23112,21208,28697,35639,0
0.0,0.0,0.0,17600,23112,21229,28754,35639,0
0.0,0.0,0.0,17600,23180,21229,28754,35565,0
0.0,0.0,0.0,17582,23112,21208,28754,35565,0
0.0,0.0,0.0,17582,23112,21208,28754,35602,0
0.0,0.0,0.0,17565,23067,21208,28754,35528,0
0.0,0.0,0.0,17565,23112,21208,28726,35602,0
0.0,0.0,0.0,17565,23180,21208,28754,35602,0
0.0,0.0,0.0,17565,23112,21208,28726,35528,0
0.0,0.0,0.0,17547,23112,21229,28754,35602,0
0.0,0.0,0.0,17565,23112,21208,28754,35565,0
0.0,0.0,0.0,17565,23112,21208,28754,35565,0
0.0,0.0,0.0,17565,23112,21270,28754,35565,0
0.0,0.0,0.0,17513,23067,21187,28754,35565,0
0.0,0.0,0.0,17513,23112,21208,28669,35565,0
0.0,0.0,0.0,17565,23135,21208,28726,35602,0
0.0,0.0,0.0,17565,23067,21229,28754,35712,0
0.0,0.0,0.0,17547,23044,21208,28783,35602,0
0.0,0.0,0.0,17565,23135,21208,28697,35565,0
0.0,0.0,0.0,17513,23067,21229,28754,35639,0
0.0,0.0,0.0,17530,23022,21208,28754,35565,0
0.0,0.0,0.0,17530,23112,21208,28697,35565,0
0.0,0.0,0.0,17513,23067,21250,28669,35492,0
0.0,0.0,0.0,17513,23067,21208,28669,35492,0
0.0,0.0,0.0,17478,23112,21270,28697,35455,0
0.0,0.0,0.0,17495,23067,21208,28697,35602,0
0.0,0.0,0.0,17495,23112,21208,28640,35492,0
0.0,0.0,0.0,17495,23090,21208,28697,35565,0
0.0,0.0,0.0,17495,23112,21250,28697,35492,0
