GyroX,GyroY,GyroZ,Thumb,Index,Middle,Ring,Pinky,Gesture
0.0,0.0,0.0,17933,11678,10546,11628,38585,4
0.0,0.0,0.0,17915,11653,10546,11615,38503,4
0.0,0.0,0.0,17951,11665,10558,11653,38707,4
0.0,0.0,0.0,17951,11653,10558,11628,38585,4
0.0,0.0,0.0,17933,11665,10546,11628,38666,4
0.0,0.0,0.0,17915,11653,10546,11628,38625,4
0.0,0.0,0.0,17915,11653,10546,11640,38585,4
0.0,0.0,0.0,17898,11653,10546,11628,38544,4
0.0,0.0,0.0,17933,11653,10535,11653,38463,4
0.0,0.0,0.0,17915,11653,10546,11653,38544,4
0.0,0.0,0.0,17898,11703,10546,11653,38503,4
0.0,0.0,0.0,17845,11678,10546,11653,38544,4
0.0,0.0,0.0,17880,11678,10582,11653,38585,4
0.0,0.0,0.0,17915,11653,10582,11703,38585,4
0.0,0.0,0.0,17880,11665,10582,11728,38666,4
0.0,0.0,0.0,17880,11678,10594,11703,38544,4
0.0,0.0,0.0,17845,11703,10594,11716,38544,4
0.0,0.0,0.0,17845,11653,10605,11678,38585,4
0.0,0.0,0.0,17862,11703,10582,11678,38585,4
0.0,0.0,0.0,17809,11665,10605,11703,38503,4
0.0,0.0,0.0,17845,11678,10594,11678,38463,4
0.0,0.0,0.0,17809,11678,10605,11665,38422,4
0.0,0.0,0.0,17845,11703,10582,11665,38503,4
0.0,0.0,0.0,17792,11703,10582,11653,38341,4
0.0,0.0,0.0,17809,11691,10605,11678,38341,4
0.0,0.0,0.0,17792,11678,10594,11703,38382,4
0.0,0.0,0.0,17845,11728,10605,11678,38341,4
0.0,0.0,0.0,17845,11728,10594,11678,38503,4
0.0,0.0,0.0,17774,11728,10594,11703,38260,4
0.0,0.0,0.0,17774,11728,10605,11716,38260,4
0.0,0.0,0.0,17809,11703,10605,11703,38260,4
0.0,0.0,0.0,17774,11716,10605,11703,38341,4
0.0,0.0,0.0,17792,11703,10617,11716,38301,4
0.0,0.0,0.0,17809,11716,10605,11703,38180,4
0.0,0.0,0.0,17774,11716,10605,11703,38341,4
0.0,0.0,0.0,17774,11728,10594,11703,38220,4
0.0,0.0,0.0,17739,11703,10594,11703,38260,4
0.0,0.0,0.0,17757,11779,10605,11703,38180,4
0.0,0.0,0.0,17774,11703,10605,11716,38301,4
0.0,0.0,0.0,17757,11754,10605,11716,38180,4
0.0,0.0,0.0,17722,11728,10594,11716,38220,4
0.0,0.0,0.0,17774,11754,10594,11703,38260,4
0.0,0.0,0.0,17757,11754,10605,11703,38260,4
0.0,0.0,0.0,17739,11754,10605,11716,38140,4
0.0,0.0,0.0,17774,11754,10605,11703,38260,4
0.0,0.0,0.0,17792,11779,10594,11728,38260,4
0.0,0.0,0.0,17722,11754,10605,11728,38260,4
0.0,0.0,0.0,17774,11754,10617,11703,38220,4
0.0,0.0,0.0,17722,11754,10605,11728,38220,4
0.0,0.0,0.0,17774,11766,10605,11728,38341,4
0.0,0.0,0.0,17739,11779,10605,11728,38220,4
0.0,0.0,0.0,17722,11754,10605,11703,38220,4
0.0,0.0,0.0,17739,11754,10605,11728,38180,4
0.0,0.0,0.0,17739,11766,10629,11728,38220,4
0.0,0.0,0.0,17704,11766,10605,11754,38260,4
0.0,0.0,0.0,17739,11766,10629,11716,38220,4
0.0,0.0,0.0,17704,11766,10629,11728,38180,4
0.0,0.0,0.0,17687,11754,10629,11716,38180,4
0.0,0.0,0.0,17704,11766,10629,11754,38260,4
0.0,0.0,0.0,17704,11766,10617,11728,38140,4
0.0,0.0,0.0,17704,11766,10629,11728,38140,4
0.0,0.0,0.0,17722,11754,10605,11728,38260,4
0.0,0.0,0.0,17739,11754,10617,11741,38180,4
0.0,0.0,0.0,17669,11779,10629,11754,38180,4
0.0,0.0,0.0,17704,11766,10605,11728,38140,4
0.0,0.0,0.0,17739,11792,10594,11754,38180,4
0.0,0.0,0.0,17669,11804,10605,11754,38180,4
0.0,0.0,0.0,17669,11804,10629,11754,38180,4
0.0,0.0,0.0,17669,11779,10629,11754,38260,4
0.0,0.0,0.0,17687,11804,10617,11754,38180,4
0.0,0.0,0.0,17669,11779,10582,11754,38140,4
0.0,0.0,0.0,17669,11804,10629,11754,38180,4
0.0,0.0,0.0,17669,11804,10629,11754,38180,4
0.0,0.0,0.0,17669,11792,10629,11728,38100,4
0.0,0.0,0.0,17669,11830,10629,11779,38059,4
0.0,0.0,0.0,17704,11855,10629,11741,38140,4
0.0,0.0,0.0,17669,11804,10617,11754,38180,4
0.0,0.0,0.0,17704,11817,10629,11766,38100,4
0.0,0.0,0.0,17704,11766,10629,11728,38059,4
0.0,0.0,0.0,17669,11817,10629,11754,38059,4
0.0,0.0,0.0,17704,11804,10629,11766,38140,4
0.0,0.0,0.0,17669,11817,10629,11779,38100,4
0.0,0.0,0.0,17704,11804,10676,11754,38019,4
0.0,0.0,0.0,17704,11804,10676,11754,37940,4
0.0,0.0,0.0,17722,11804,10653,11766,38180,4
0.0,0.0,0.0,17704,11804,10676,11754,38019,4
0.0,0.0,0.0,17687,11804,10676,11754,38100,4
0.0,0.0,0.0,17704,11817,10676,11754,38059,4
0.0,0.0,0.0,17704,11817,10676,11766,38140,4
0.0,0.0,0.0,17669,11817,10653,11754,38019,4
0.0,0.0,0.0,17704,11842,10653,11766,38059,4
0.0,0.0,0.0,17739,11817,10676,11754,38019,4
0.0,0.0,0.0,17704,11804,10653,11754,38100,4
0.0,0.0,0.0,17669,11830,10653,11754,38100,4
0.0,0.0,0.0,17704,11817,10676,11728,38019,4
0.0,0.0,0.0,17634,11817,10664,11754,37980,4
0.0,0.0,0.0,17704,11855,10676,11754,37980,4
0.0,0.0,0.0,17704,11881,10653,11728,38100,4
0.0,0.0,0.0,17704,11868,10664,11754,38100,4
0.0,0.0,0.0,17704,11906,10664,11754,38100,4
0.0,0.0,0.0,17652,11881,10653,11754,38100,4
0.0,0.0,0.0,17652,11881,10653,11754,38100,4
0.0,0.0,0.0,17669,11881,10653,11754,38019,4
0.0,0.0,0.0,17652,11881,10653,11779,38019,4
0.0,0.0,0.0,17634,11906,10641,11754,38019,4
0.0,0.0,0.0,17687,11906,10653,11754,38100,4
0.0,0.0,0.0,17687,11906,10653,11754,38059,4
0.0,0.0,0.0,17704,11906,10676,11741,37940,4
0.0,0.0,0.0,17704,11906,10676,11766,38100,4
0.0,0.0,0.0,17634,11906,10653,11754,37940,4
0.0,0.0,0.0,17634,11919,10653,11728,38019,4
0.0,0.0,0.0,17634,11919,10676,11779,38019,4
0.0,0.0,0.0,17634,11919,10641,11741,38019,4
0.0,0.0,0.0,17652,11932,10653,11766,38100,4
0.0,0.0,0.0,17652,11932,10676,11766,38019,4
0.0,0.0,0.0,17652,11932,10676,11754,37940,4
0.0,0.0,0.0,17687,11957,10653,11779,38019,4
0.0,0.0,0.0,17669,11932,10653,11754,38019,4
0.0,0.0,0.0,17704,11906,10676,11779,38059,4
0.0,0.0,0.0,17652,11932,10664,11766,38059,4
0.0,0.0,0.0,17704,11957,10676,11779,38059,4
0.0,0.0,0.0,17704,11932,10676,11766,38059,4
0.0,0.0,0.0,17669,11957,10676,11766,38019,4
0.0,0.0,0.0,17634,11957,10676,11779,38100,4
0.0,0.0,0.0,17652,11957,10676,11779,38019,4
0.0,0.0,0.0,17634,11970,10664,11766,38019,4
0.0,0.0,0.0,17669,11970,10653,11766,37980,4
0.0,0.0,0.0,17669,12021,10676,11766,37940,4
0.0,0.0,0.0,17634,11983,10676,11779,37980,4
0.0,0.0,0.0,17669,11957,10676,11766,38019,4
0.0,0.0,0.0,17652,11983,10653,11804,38019,4
0.0,0.0,0.0,17669,11957,10664,11766,38059,4
0.0,0.0,0.0,17652,11957,10676,11804,37940,4
0.0,0.0,0.0,17652,11957,10676,11754,37940,4
0.0,0.0,0.0,17669,11970,10653,11779,38019,4
0.0,0.0,0.0,17669,11983,10676,11779,37980,4
0.0,0.0,0.0,17634,11957,10676,11804,38019,4
0.0,0.0,0.0,17669,11996,10688,11766,37940,4
0.0,0.0,0.0,17634,11957,10688,11779,37980,4
0.0,0.0,0.0,17634,11932,10676,11779,37860,4
0.0,0.0,0.0,17634,11957,10676,11804,37900,4
0.0,0.0,0.0,17634,11932,10688,11817,38019,4
0.0,0.0,0.0,17634,11957,10700,11804,37860,4
0.0,0.0,0.0,17652,11957,10700,11817,37940,4
0.0,0.0,0.0,17652,11970,10700,11804,38019,4
0.0,0.0,0.0,17634,12009,10724,11855,37980,4
0.0,0.0,0.0,17669,12021,10724,11868,37940,4
0.0,0.0,0.0,17634,12021,10724,11855,37940,4
0.0,0.0,0.0,17634,12034,10724,11906,37900,4
0.0,0.0,0.0,17634,11983,10724,11855,37860,4
0.0,0.0,0.0,17652,12009,10748,11855,37940,4
0.0,0.0,0.0,17669,12021,10724,11868,37860,4
0.0,0.0,0.0,17669,12021,10724,11855,37940,4
0.0,0.0,0.0,17634,12034,10724,11881,37781,4
0.0,0.0,0.0,17634,12009,10748,11855,37860,4
0.0,0.0,0.0,17634,12021,10748,11868,37860,4
0.0,0.0,0.0,17600,12009,10724,11868,37781,4
0.0,0.0,0.0,17634,12009,10724,11919,37900,4
0.0,0.0,0.0,17634,11983,10748,11906,37940,4
0.0,0.0,0.0,17600,12009,10748,11906,37781,4
0.0,0.0,0.0,17582,12009,10736,11881,37781,4
0.0,0.0,0.0,17600,12021,10748,11881,37860,4
0.0,0.0,0.0,17634,12009,10748,11906,37900,4
0.0,0.0,0.0,17600,11983,10748,11906,37781,4
0.0,0.0,0.0,17634,12009,10724,11906,37781,4
0.0,0.0,0.0,17600,12009,10748,11881,37781,4
0.0,0.0,0.0,17600,11996,10748,11906,37860,4
0.0,0.0,0.0,17600,11983,10748,11881,37781,4
0.0,0.0,0.0,17634,12009,10748,11881,37741,4
0.0,0.0,0.0,17634,11970,10748,11906,37781,4
0.0,0.0,0.0,17634,12009,10724,11906,37781,4
0.0,0.0,0.0,17634,11996,10748,11855,37940,4
0.0,0.0,0.0,17600,12009,10748,11893,37940,4
0.0,0.0,0.0,17600,12009,10748,11881,37860,4
0.0,0.0,0.0,17634,11983,10748,11906,37860,4
0.0,0.0,0.0,17600,12009,10771,11881,37820,4
0.0,0.0,0.0,17600,11983,10748,11906,37860,4
0.0,0.0,0.0,17634,12009,10748,11881,37860,4
0.0,0.0,0.0,17582,11996,10748,11868,37701,4
0.0,0.0,0.0,17565,12009,10748,11868,37741,4
0.0,0.0,0.0,17634,12009,10748,11893,37741,4
0.0,0.0,0.0,17617,12021,10748,11855,37781,4
0.0,0.0,0.0,17600,12034,10771,11906,37860,4
0.0,0.0,0.0,17600,12021,10748,11906,37741,4
0.0,0.0,0.0,17634,12009,10771,11906,37860,4
0.0,0.0,0.0,17582,12021,10748,11868,37781,4
0.0,0.0,0.0,17600,12021,10771,11906,37820,4
0.0,0.0,0.0,17600,12009,10795,11906,37940,4
0.0,0.0,0.0,17600,12034,10771,11906,37820,4
0.0,0.0,0.0,17634,12047,10771,11868,37781,4
0.0,0.0,0.0,17600,12009,10783,11906,37781,4
0.0,0.0,0.0,17600,12021,10783,11906,37781,4
0.0,0.0,0.0,17565,12009,10771,11906,37701,4
0.0,0.0,0.0,17600,12060,10771,11906,37741,4
0.0,0.0,0.0,17617,12073,10771,11919,37701,4
0.0,0.0,0.0,17582,12060,10771,11881,37781,4
0.0,0.0,0.0,17565,12021,10795,11881,37701,4
0.0,0.0,0.0,17565,12009,10771,11881,37781,4
0.0,0.0,0.0,17600,12009,10759,11868,37781,4
0.0,0.0,0.0,17565,12021,10748,11830,37860,4
0.0,0.0,0.0,17600,11970,10748,11817,37860,4
0.0,0.0,0.0,17530,11970,10724,11792,37701,4
0.0,0.0,0.0,17565,11996,10724,11779,37741,4
0.0,0.0,0.0,17530,11957,10712,11779,37741,4
0.0,0.0,0.0,17530,11957,10688,11754,37741,4
0.0,0.0,0.0,17530,11957,10724,11754,37701,4
0.0,0.0,0.0,17513,11957,10688,11779,37701,4
0.0,0.0,0.0,17530,11919,10700,11754,37741,4
0.0,0.0,0.0,17530,11957,10700,11779,37543,4
0.0,0.0,0.0,17530,11957,10724,11766,37741,4
0.0,0.0,0.0,17565,11919,10700,11779,37583,4
0.0,0.0,0.0,17530,11919,10700,11754,37662,4
0.0,0.0,0.0,17547,11932,10688,11766,37622,4
0.0,0.0,0.0,17495,11817,10641,11716,37860,4
0.0,0.0,0.0,17530,11766,10582,11628,37900,4
0.0,0.0,0.0,17513,11728,10582,11653,37741,4
0.0,0.0,0.0,17495,11754,10570,11615,37781,4
0.0,0.0,0.0,17495,11754,10582,11603,37741,4
0.0,0.0,0.0,17495,11728,10582,11603,37701,4
0.0,0.0,0.0,17461,11804,10582,11578,37543,4
0.0,0.0,0.0,17478,11754,10605,11603,37583,4
0.0,0.0,0.0,17478,11804,10594,11615,37543,4
0.0,0.0,0.0,17495,11779,10617,11653,37543,4
0.0,0.0,0.0,17478,11804,10629,11653,37622,4
0.0,0.0,0.0,17478,11817,10641,11640,37583,4
0.0,0.0,0.0,17495,11855,10641,11653,37543,4
0.0,0.0,0.0,17495,11855,10664,11665,37504,4
0.0,0.0,0.0,17530,11855,10676,11678,37543,4
0.0,0.0,0.0,17495,11881,10676,11691,37543,4
0.0,0.0,0.0,17513,11881,10676,11678,37543,4
0.0,0.0,0.0,17495,11868,10676,11703,37465,4
0.0,0.0,0.0,17513,11855,10676,11703,37465,4
0.0,0.0,0.0,17530,11855,10676,11678,37465,4
0.0,0.0,0.0,17495,11855,10676,11678,37426,4
0.0,0.0,0.0,17547,11842,10653,11703,37465,4
0.0,0.0,0.0,17495,11855,10676,11691,37386,4
0.0,0.0,0.0,17495,11855,10676,11653,37386,4
0.0,0.0,0.0,17461,11855,10676,11703,37386,4
0.0,0.0,0.0,17461,11855,10676,11678,37426,4
0.0,0.0,0.0,17513,11817,10676,11703,37386,4
0.0,0.0,0.0,17478,11855,10676,11703,37308,4
0.0,0.0,0.0,17495,11855,10676,11665,37386,4
0.0,0.0,0.0,17495,11842,10676,11703,37386,4
0.0,0.0,0.0,17461,11830,10676,11678,37386,4
0.0,0.0,0.0,17495,11855,10676,11703,37465,4
0.0,0.0,0.0,17513,11804,10676,11703,37347,4
0.0,0.0,0.0,17495,11817,10641,11703,37426,4
0.0,0.0,0.0,17495,11817,10653,11678,37426,4
0.0,0.0,0.0,17495,11779,10676,11678,37308,4
0.0,0.0,0.0,17495,11817,10676,11665,37386,4
0.0,0.0,0.0,17495,11830,10664,11678,37308,4
0.0,0.0,0.0,17461,11804,10641,11678,37386,4
0.0,0.0,0.0,17443,11779,10605,11665,37543,4
0.0,0.0,0.0,17461,11754,10594,11653,37701,4
0.0,0.0,0.0,17461,11678,10535,11590,37701,4
0.0,0.0,0.0,17392,11628,10394,11503,37781,4
0.0,0.0,0.0,17357,11553,10325,11428,37820,4
0.0,0.0,0.0,17357,11403,10278,11416,37940,4
0.0,0.0,0.0,17289,11255,10221,11379,37940,4
0.0,0.0,0.0,17306,11170,10209,11366,37741,4
0.0,0.0,0.0,17306,11012,10209,11354,37701,4
0.0,0.0,0.0,17323,10951,10209,11329,37583,4
0.0,0.0,0.0,17323,10951,10209,11354,37622,4
0.0,0.0,0.0,17289,10963,10209,11354,37543,4
0.0,0.0,0.0,17289,11012,10186,11317,37465,4
0.0,0.0,0.0,17272,11012,10209,11329,37347,4
0.0,0.0,0.0,17254,11012,10174,11354,37426,4
0.0,0.0,0.0,17289,11024,10174,11329,37386,4
0.0,0.0,0.0,17306,11012,10197,11329,37465,4
0.0,0.0,0.0,17289,11024,10209,11317,37386,4
0.0,0.0,0.0,17306,11024,10209,11329,37230,4
0.0,0.0,0.0,17289,11024,10174,11329,37191,4
0.0,0.0,0.0,17254,11012,10174,11329,37269,4
0.0,0.0,0.0,17289,11024,10163,11317,37386,4
0.0,0.0,0.0,17323,11012,10140,11304,37269,4
0.0,0.0,0.0,17306,11012,10117,11317,37269,4
0.0,0.0,0.0,17323,10987,10071,11317,37114,4
0.0,0.0,0.0,17306,10963,10049,11304,36959,4
0.0,0.0,0.0,17289,10963,10026,11304,36920,4
0.0,0.0,0.0,17306,10963,10003,11292,36920,4
0.0,0.0,0.0,17323,10963,9980,11317,36843,4
0.0,0.0,0.0,17289,10939,9969,11280,36843,4
0.0,0.0,0.0,17289,10963,9958,11304,36843,4
0.0,0.0,0.0,17289,10927,9935,11292,36690,4
0.0,0.0,0.0,17289,10915,9935,11304,36767,4
0.0,0.0,0.0,17289,10915,9935,11304,36690,4
0.0,0.0,0.0,17254,10927,9935,11304,36614,4
0.0,0.0,0.0,17306,10915,9935,11317,36690,4
0.0,0.0,0.0,17254,10915,9912,11304,36538,4
0.0,0.0,0.0,17220,10939,9935,11304,36538,4
0.0,0.0,0.0,17220,10939,9890,11304,36462,4
0.0,0.0,0.0,17237,10939,9924,11304,36538,4
0.0,0.0,0.0,17220,10927,9958,11280,36310,4
0.0,0.0,0.0,17289,10915,9935,11304,36499,4
0.0,0.0,0.0,17237,10975,9935,11268,36462,4
0.0,0.0,0.0,17237,10927,9935,11292,36348,4
0.0,0.0,0.0,17237,10927,9935,11304,36386,4
0.0,0.0,0.0,17237,10915,9935,11268,36462,4
0.0,0.0,0.0,17220,10927,9935,11292,36348,4
0.0,0.0,0.0,17237,10939,9946,11304,36462,4
0.0,0.0,0.0,17237,10951,9935,11304,36348,4
0.0,0.0,0.0,17254,10963,9946,11317,36310,4
0.0,0.0,0.0,17237,10951,9958,11280,36348,4
0.0,0.0,0.0,17254,10963,9958,11304,36348,4
0.0,0.0,0.0,17220,10963,9958,11304,36310,4
0.0,0.0,0.0,17237,10939,9958,11304,36310,4
0.0,0.0,0.0,17220,10987,9958,11304,36310,4
0.0,0.0,0.0,17220,10975,9980,11304,36235,4
0.0,0.0,0.0,17237,10963,9969,11280,36235,4
0.0,0.0,0.0,17220,10987,9980,11304,36310,4
0.0,0.0,0.0,17220,10987,9980,11304,36235,4
0.0,0.0,0.0,17220,10963,9980,11317,36310,4
0.0,0.0,0.0,17220,10987,9980,11304,36310,4
0.0,0.0,0.0,17220,10975,9980,11304,36348,4
0.0,0.0,0.0,17220,10987,9980,11304,36310,4
0.0,0.0,0.0,17220,10975,10003,11304,36235,4
0.0,0.0,0.0,17220,10975,10037,11304,36160,4
0.0,0.0,0.0,17220,10963,9980,11280,36160,4
0.0,0.0,0.0,17220,10963,9992,11304,36160,4
0.0,0.0,0.0,17220,10975,9980,11304,36160,4
0.0,0.0,0.0,17186,10963,9958,11304,36085,4
0.0,0.0,0.0,17203,10975,9980,11304,36047,4
0.0,0.0,0.0,17220,10963,9958,11304,36047,4
0.0,0.0,0.0,17203,10975,9980,11304,36085,4
0.0,0.0,0.0,17186,10987,9980,11304,36010,4
0.0,0.0,0.0,17186,10963,9980,11304,35898,4
0.0,0.0,0.0,17186,10987,9980,11304,35935,4
0.0,0.0,0.0,17186,10987,9980,11304,35972,4
0.0,0.0,0.0,17220,10963,10003,11292,36010,4
0.0,0.0,0.0,17169,10987,9980,11292,35935,4
0.0,0.0,0.0,17169,10963,9980,11292,36010,4
0.0,0.0,0.0,17220,10975,10003,11317,36010,4
0.0,0.0,0.0,17220,10987,9980,11280,36122,4
0.0,0.0,0.0,17220,10987,9980,11304,36047,4
0.0,0.0,0.0,17220,10987,10003,11304,36122,4
0.0,0.0,0.0,17220,11012,10003,11317,36010,4
0.0,0.0,0.0,17220,10975,10003,11304,36085,4
0.0,0.0,0.0,17203,10987,10003,11304,36010,4
0.0,0.0,0.0,17186,10987,10003,11304,36010,4
0.0,0.0,0.0,17186,11012,10026,11304,35972,4
0.0,0.0,0.0,17152,10987,10026,11304,36085,4
0.0,0.0,0.0,17152,10963,10049,11304,36085,4
0.0,0.0,0.0,17186,10975,10026,11304,36010,4
0.0,0.0,0.0,17186,10987,10026,11317,36010,4
0.0,0.0,0.0,17169,10987,10003,11304,35935,4
0.0,0.0,0.0,17186,11012,10003,11304,35972,4
0.0,0.0,0.0,17152,11012,10014,11304,35935,4
0.0,0.0,0.0,17152,11012,10003,11304,35898,4
0.0,0.0,0.0,17152,11012,9980,11304,35935,4
0.0,0.0,0.0,17152,11012,10003,11304,35898,4
0.0,0.0,0.0,17152,11012,10003,11304,36010,4
0.0,0.0,0.0,17152,10975,10003,11304,35972,4
0.0,0.0,0.0,17152,10975,10003,11317,35861,4
0.0,0.0,0.0,17152,10963,9980,11304,35898,4
0.0,0.0,0.0,17169,10963,9980,11304,35935,4
0.0,0.0,0.0,17152,10927,9980,11304,35861,4
0.0,0.0,0.0,17169,10951,9958,11255,35861,4
0.0,0.0,0.0,17152,10927,9946,11304,35787,4
0.0,0.0,0.0,17118,10963,9946,11304,35749,4
0.0,0.0,0.0,17118,10963,9958,11292,35749,4
0.0,0.0,0.0,17152,10963,9958,11304,35676,4
0.0,0.0,0.0,17152,10951,9958,11304,35749,4
0.0,0.0,0.0,17050,10951,9958,11280,35787,4
0.0,0.0,0.0,17152,10963,9958,11304,35787,4
0.0,0.0,0.0,17152,10963,9946,11304,35824,4
0.0,0.0,0.0,17152,10963,9958,11304,35749,4
0.0,0.0,0.0,17101,10963,9980,11280,35712,4
0.0,0.0,0.0,17101,10939,9958,11304,35676,4
0.0,0.0,0.0,17135,10927,9958,11280,35787,4
0.0,0.0,0.0,17101,10963,9980,11304,35787,4
0.0,0.0,0.0,17152,10963,9980,11304,35712,4
0.0,0.0,0.0,17169,10939,10003,11304,35712,4
0.0,0.0,0.0,17152,10939,9980,11304,35787,4
0.0,0.0,0.0,17101,10963,9980,11304,35639,4
0.0,0.0,0.0,17118,10939,10003,11317,35749,4
0.0,0.0,0.0,17152,10939,9980,11304,35712,4
0.0,0.0,0.0,17118,10951,9980,11304,35712,4
0.0,0.0,0.0,17135,10963,9980,11304,35676,4
0.0,0.0,0.0,17152,10939,9969,11280,35639,4
0.0,0.0,0.0,17118,10963,9980,11304,35602,4
0.0,0.0,0.0,17152,10951,9980,11304,35639,4
0.0,0.0,0.0,17101,10963,9980,11304,35639,4
0.0,0.0,0.0,17118,10951,9980,11317,35712,4
0.0,0.0,0.0,17118,10939,9980,11268,35639,4
0.0,0.0,0.0,17118,10939,9980,11304,35639,4
0.0,0.0,0.0,17084,10951,9958,11304,35639,4
0.0,0.0,0.0,17118,10963,9980,11304,35565,4
0.0,0.0,0.0,17101,10963,9980,11292,35565,4
0.0,0.0,0.0,17101,10963,9969,11304,35565,4
0.0,0.0,0.0,17118,10927,9980,11304,35602,4
0.0,0.0,0.0,17118,10963,9969,11280,35565,4
0.0,0.0,0.0,17101,10927,9980,11280,35639,4
0.0,0.0,0.0,17118,10963,9980,11304,35492,4
0.0,0.0,0.0,17118,10939,9980,11304,35565,4
0.0,0.0,0.0,17118,10939,9980,11280,35602,4
0.0,0.0,0.0,17118,10963,10003,11317,35602,4
0.0,0.0,0.0,17084,10963,9980,11304,35602,4
0.0,0.0,0.0,17118,10963,9980,11280,35565,4
0.0,0.0,0.0,17101,10963,9980,11304,35602,4
0.0,0.0,0.0,17084,10963,9980,11304,35565,4
0.0,0.0,0.0,17084,10939,10003,11304,35602,4
0.0,0.0,0.0,17135,10963,10003,11317,35565,4
0.0,0.0,0.0,17135,10939,9980,11304,35676,4
0.0,0.0,0.0,17101,10963,10003,11329,35602,4
0.0,0.0,0.0,17118,10963,10003,11317,35676,4
0.0,0.0,0.0,17101,10939,10003,11304,35602,4
0.0,0.0,0.0,17084,10963,9980,11292,35565,4
0.0,0.0,0.0,17118,10963,9980,11329,35712,4
0.0,0.0,0.0,17118,10963,9980,11304,35528,4
0.0,0.0,0.0,17152,10915,9992,11317,35528,4
0.0,0.0,0.0,17084,10963,9992,11317,35565,4
0.0,0.0,0.0,17152,10927,9980,11304,35528,4
0.0,0.0,0.0,17118,10963,10003,11317,35602,4
0.0,0.0,0.0,17118,10963,10003,11304,35565,4
0.0,0.0,0.0,17084,10963,9980,11304,35602,4
0.0,0.0,0.0,17101,10975,9980,11304,35749,4
0.0,0.0,0.0,17118,10963,9946,11304,35528,4
0.0,0.0,0.0,17084,10963,9969,11304,35528,4
0.0,0.0,0.0,17152,10963,9980,11304,35602,4
0.0,0.0,0.0,17186,10963,10003,11304,35639,4
0.0,0.0,0.0,17152,10963,9958,11304,35639,4
0.0,0.0,0.0,17169,10939,9980,11304,35639,4
0.0,0.0,0.0,17169,10951,9958,11304,35602,4
0.0,0.0,0.0,17152,10963,9980,11280,35565,4
0.0,0.0,0.0,17152,10939,9980,11304,35639,4
0.0,0.0,0.0,17152,10963,9980,11304,35565,4
0.0,0.0,0.0,17135,10963,9980,11304,35639,4
0.0,0.0,0.0,17135,10939,9980,11304,35639,4
0.0,0.0,0.0,17152,10951,10003,11317,35712,4
0.0,0.0,0.0,17101,10963,9980,11304,35565,4
0.0,0.0,0.0,17101,10963,9980,11317,35602,4
0.0,0.0,0.0,17118,10963,9980,11304,35528,4
0.0,0.0,0.0,17118,10963,10003,11329,35565,4
0.0,0.0,0.0,17101,10939,10003,11304,35492,4
0.0,0.0,0.0,17101,10963,9980,11304,35492,4
0.0,0.0,0.0,17118,10951,9980,11317,35492,4
0.0,0.0,0.0,17152,10963,10003,11304,35492,4
0.0,0.0,0.0,17152,10939,9980,11304,35528,4
0.0,0.0,0.0,17118,10963,9980,11304,35602,4
0.0,0.0,0.0,17118,10963,10003,11304,35565,4
0.0,0.0,0.0,17118,10963,9980,11304,35565,4
0.0,0.0,0.0,17118,10963,9992,11304,35492,4
0.0,0.0,0.0,17118,10963,10003,11304,35565,4
0.0,0.0,0.0,17084,10963,10003,11317,35565,4
0.0,0.0,0.0,17033,10963,10003,11317,35455,4
0.0,0.0,0.0,17118,10975,10003,11304,35492,4
0.0,0.0,0.0,17118,10963,9980,11304,35492,4
0.0,0.0,0.0,17084,10963,10003,11304,35492,4
0.0,0.0,0.0,17084,10963,10003,11341,35565,4
0.0,0.0,0.0,17084,10963,10003,11317,35492,4
0.0,0.0,0.0,17084,10963,10003,11317,35492,4
0.0,0.0,0.0,17084,10963,9980,11304,35418,4
0.0,0.0,0.0,17101,10939,9958,11304,35455,4
0.0,0.0,0.0,17050,10975,10026,11317,35345,4
0.0,0.0,0.0,17084,10963,10003,11304,35565,4
0.0,0.0,0.0,17084,10963,10003,11317,35639,4
0.0,0.0,0.0,17084,10963,9980,11304,35565,4
0.0,0.0,0.0,17118,10939,10003,11317,35565,4
0.0,0.0,0.0,17084,10963,10003,11317,35492,4
0.0,0.0,0.0,17101,10939,10026,11317,35565,4
0.0,0.0,0.0,17084,10963,10026,11317,35565,4
0.0,0.0,0.0,17084,10963,10003,11317,35602,4
0.0,0.0,0.0,17118,10963,10026,11317,35565,4
0.0,0.0,0.0,17084,10939,10037,11329,35455,4
0.0,0.0,0.0,17084,10987,10049,11329,35492,4
0.0,0.0,0.0,17084,10987,10049,11329,35565,4
0.0,0.0,0.0,17101,10975,10071,11317,35528,4
0.0,0.0,0.0,17101,10999,10071,11341,35418,4
0.0,0.0,0.0,17084,10975,10071,11317,35492,4
0.0,0.0,0.0,17084,10987,10071,11317,35492,4
0.0,0.0,0.0,17084,10963,10071,11379,35565,4
0.0,0.0,0.0,17084,11012,10071,11317,35418,4
0.0,0.0,0.0,17084,10975,10071,11329,35565,4
0.0,0.0,0.0,17084,10975,10071,11317,35455,4
0.0,0.0,0.0,17033,10975,10071,11329,35382,4
0.0,0.0,0.0,17135,11012,10071,11317,35528,4
0.0,0.0,0.0,17084,10987,10071,11329,35455,4
0.0,0.0,0.0,17084,11012,10071,11354,35492,4
0.0,0.0,0.0,17084,10987,10071,11329,35455,4
0.0,0.0,0.0,17084,10987,10071,11329,35492,4
0.0,0.0,0.0,17118,11012,10049,11354,35455,4
0.0,0.0,0.0,17084,11012,10071,11354,35492,4
0.0,0.0,0.0,17033,10963,10071,11304,35418,4
0.0,0.0,0.0,17050,10987,10049,11317,35418,4
0.0,0.0,0.0,17084,11036,10071,11354,35455,4
0.0,0.0,0.0,17033,10987,10083,11304,35418,4
0.0,0.0,0.0,17050,10975,10049,11354,35418,4
0.0,0.0,0.0,17084,10987,10071,11317,35345,4
0.0,0.0,0.0,17084,10987,10049,11329,35418,4
0.0,0.0,0.0,17067,10975,10071,11341,35418,4
0.0,0.0,0.0,17033,11012,10071,11329,35418,4
0.0,0.0,0.0,17050,11012,10071,11354,35418,4
0.0,0.0,0.0,17067,10987,10071,11317,35418,4
0.0,0.0,0.0,17033,10975,10071,11354,35345,4
0.0,0.0,0.0,17067,10999,10071,11354,35492,4
0.0,0.0,0.0,17067,11084,10060,11329,35455,4
0.0,0.0,0.0,17050,10987,10071,11317,35382,4
0.0,0.0,0.0,17050,11012,10071,11341,35418,4
0.0,0.0,0.0,17084,10975,10071,11329,35528,4
0.0,0.0,0.0,17033,11012,10071,11366,35418,4
0.0,0.0,0.0,17084,11012,10071,11354,35492,4
0.0,0.0,0.0,17050,10987,10071,11354,35455,4
0.0,0.0,0.0,17118,10987,10071,11366,35418,4
0.0,0.0,0.0,17084,10987,10071,11366,35418,4
0.0,0.0,0.0,17016,11012,10071,11354,35418,4
0.0,0.0,0.0,17084,10987,10071,11379,35418,4
0.0,0.0,0.0,17101,10975,10071,11366,35345,4
0.0,0.0,0.0,17084,11012,10071,11354,35272,4
0.0,0.0,0.0,17084,11012,10071,11379,35345,4
0.0,0.0,0.0,17050,10987,10071,11354,35418,4
0.0,0.0,0.0,17084,11012,10071,11366,35455,4
0.0,0.0,0.0,17084,10999,10060,11354,35345,4
0.0,0.0,0.0,17016,11012,10071,11379,35418,4
0.0,0.0,0.0,17084,11012,10071,11403,35492,4
0.0,0.0,0.0,17050,11012,10083,11354,35418,4
0.0,0.0,0.0,17084,11024,10071,11329,35345,4
0.0,0.0,0.0,17050,11012,10071,11379,35345,4
0.0,0.0,0.0,17084,11012,10071,11354,35418,4
0.0,0.0,0.0,17067,11012,10094,11379,35492,4
0.0,0.0,0.0,17050,11012,10094,11354,35528,4
0.0,0.0,0.0,17084,11024,10094,11366,35345,4
0.0,0.0,0.0,17050,11012,10094,11379,35345,4
0.0,0.0,0.0,17084,11024,10094,11366,35492,4
0.0,0.0,0.0,17084,11024,10094,11366,35309,4
0.0,0.0,0.0,17050,11012,10094,11379,35345,4
0.0,0.0,0.0,17084,11012,10094,11379,35382,4
0.0,0.0,0.0,17084,11024,10117,11379,35418,4
0.0,0.0,0.0,17084,11012,10094,11366,35418,4
0.0,0.0,0.0,17084,10987,10117,11379,35418,4
0.0,0.0,0.0,17050,11012,10106,11354,35418,4
0.0,0.0,0.0,17050,11012,10117,11354,35455,4
0.0,0.0,0.0,17084,11024,10117,11354,35418,4
0.0,0.0,0.0,17084,11012,10106,11403,35418,4
0.0,0.0,0.0,17033,11012,10117,11379,35382,4
0.0,0.0,0.0,17033,11012,10106,11391,35345,4
0.0,0.0,0.0,17050,10987,10117,11379,35382,4
0.0,0.0,0.0,17050,10999,10117,11366,35345,4
0.0,0.0,0.0,17084,11012,10083,11379,35345,4
0.0,0.0,0.0,17033,11012,10117,11379,35345,4
0.0,0.0,0.0,17050,11024,10117,11403,35345,4
0.0,0.0,0.0,17084,11012,10117,11379,35345,4
0.0,0.0,0.0,17050,11012,10117,11379,35272,4
0.0,0.0,0.0,17084,11012,10117,11403,35309,4
0.0,0.0,0.0,17084,11012,10117,11354,35345,4
0.0,0.0,0.0,17050,11012,10117,11366,35418,4
0.0,0.0,0.0,17033,10999,10117,11379,35418,4
0.0,0.0,0.0,17050,10999,10140,11379,35345,4
0.0,0.0,0.0,17050,11012,10129,11354,35418,4
0.0,0.0,0.0,17050,11012,10117,11403,35382,4
0.0,0.0,0.0,17084,11012,10117,11354,35345,4
0.0,0.0,0.0,17067,10999,10117,11379,35382,4
0.0,0.0,0.0,17084,10987,10117,11379,35309,4
0.0,0.0,0.0,17084,11012,10117,11379,35418,4
0.0,0.0,0.0,17050,10987,10117,11403,35345,4
0.0,0.0,0.0,17067,11024,10117,11403,35345,4
0.0,0.0,0.0,17084,10987,10117,11403,35418,4
0.0,0.0,0.0,17016,11012,10117,11366,35418,4
0.0,0.0,0.0,17050,10987,10117,11416,35418,4
0.0,0.0,0.0,17067,11012,10117,11403,35565,4
0.0,0.0,0.0,17050,10987,10094,11379,35492,4
0.0,0.0,0.0,17033,10975,10117,11416,35492,4
0.0,0.0,0.0,17050,10987,10094,11391,35418,4
0.0,0.0,0.0,17050,10963,10106,11366,35418,4
0.0,0.0,0.0,17016,10963,10083,11379,35345,4
0.0,0.0,0.0,17050,10963,10094,11366,35418,4
0.0,0.0,0.0,17084,10963,10117,11403,35345,4
0.0,0.0,0.0,17016,10963,10094,11354,35345,4
0.0,0.0,0.0,17050,10939,10060,11379,35309,4
0.0,0.0,0.0,17016,10939,10071,11379,35382,4
0.0,0.0,0.0,17016,10927,10071,11354,35345,4
0.0,0.0,0.0,17033,10951,10071,11366,35418,4
0.0,0.0,0.0,17016,10963,10049,11366,35272,4
0.0,0.0,0.0,17016,10963,10049,11379,35199,4
0.0,0.0,0.0,17050,10963,10037,11366,35272,4
0.0,0.0,0.0,17033,10963,10071,11379,35272,4
0.0,0.0,0.0,17033,10963,10049,11366,35163,4
0.0,0.0,0.0,17033,10963,10071,11403,35272,4
0.0,0.0,0.0,17050,10963,10071,11366,35309,4
0.0,0.0,0.0,17050,10963,10071,11403,35345,4
0.0,0.0,0.0,17050,10987,10071,11379,35345,4
0.0,0.0,0.0,17084,10963,10071,11366,35163,4
0.0,0.0,0.0,17050,10963,10071,11403,35382,4
0.0,0.0,0.0,17033,10963,10117,11391,35345,4
0.0,0.0,0.0,17033,10963,10094,11379,35163,4
0.0,0.0,0.0,17084,10963,10094,11379,35272,4
0.0,0.0,0.0,17084,10987,10083,11354,35345,4
0.0,0.0,0.0,17084,10987,10071,11366,35236,4
0.0,0.0,0.0,17084,10963,10060,11341,35272,4
0.0,0.0,0.0,17101,10963,10071,11379,35345,4
0.0,0.0,0.0,17101,10939,10244,11403,35418,4
0.0,0.0,0.0,17084,10963,10325,11403,35418,4
0.0,0.0,0.0,17084,10939,10301,11403,35418,4
0.0,0.0,0.0,17084,10963,10301,11366,35272,4
0.0,0.0,0.0,17118,10951,10325,11366,35272,4
0.0,0.0,0.0,17118,10963,10301,11354,35272,4
0.0,0.0,0.0,17118,10963,10313,11366,35236,4
0.0,0.0,0.0,17152,10963,10325,11354,35272,4
0.0,0.0,0.0,17084,10975,10325,11354,35163,4
0.0,0.0,0.0,17152,10963,10301,11354,35272,4
0.0,0.0,0.0,17118,10963,10325,11366,35272,4
0.0,0.0,0.0,17084,10963,10301,11354,35163,4
0.0,0.0,0.0,17152,10963,10313,11366,35272,4
0.0,0.0,0.0,17152,10963,10301,11354,35127,4
0.0,0.0,0.0,17118,10963,10301,11354,35272,4
0.0,0.0,0.0,17101,10963,10325,11379,35199,4
0.0,0.0,0.0,17152,10963,10313,11354,35163,4
0.0,0.0,0.0,17101,10963,10301,11379,35127,4
0.0,0.0,0.0,17101,10963,10301,11354,35163,4
0.0,0.0,0.0,17101,10975,10301,11379,35163,4
0.0,0.0,0.0,17135,10975,10301,11354,35127,4
0.0,0.0,0.0,17152,10963,10301,11366,35127,4
0.0,0.0,0.0,17084,10975,10267,11366,35127,4
0.0,0.0,0.0,17101,10963,10267,11366,35199,4
0.0,0.0,0.0,17101,10951,10255,11366,35127,4
0.0,0.0,0.0,17118,10963,10267,11354,35163,4
0.0,0.0,0.0,17152,10963,10255,11366,35163,4
0.0,0.0,0.0,17101,10987,10255,11366,35163,4
0.0,0.0,0.0,17101,10963,10232,11379,35127,4
0.0,0.0,0.0,17118,10963,10255,11391,35055,4
0.0,0.0,0.0,17118,10963,10267,11354,35127,4
0.0,0.0,0.0,17118,10975,10255,11366,35055,4
0.0,0.0,0.0,17118,10975,10255,11366,35055,4
0.0,0.0,0.0,17101,10987,10267,11366,35055,4
0.0,0.0,0.0,17118,10963,10255,11354,35127,4
0.0,0.0,0.0,17101,10975,10255,11366,35055,4
0.0,0.0,0.0,17118,10975,10255,11366,35127,4
0.0,0.0,0.0,17084,10975,10267,11379,35018,4
0.0,0.0,0.0,17084,10975,10278,11391,35018,4
0.0,0.0,0.0,17084,10963,10267,11391,35127,4
0.0,0.0,0.0,17118,10987,10267,11391,35055,4
0.0,0.0,0.0,17118,10963,10290,11379,35055,4
0.0,0.0,0.0,17101,10987,10301,11379,35055,4
0.0,0.0,0.0,17084,10975,10301,11379,35018,4
0.0,0.0,0.0,17101,10987,10290,11379,35163,4
0.0,0.0,0.0,17118,10987,10301,11403,35127,4
0.0,0.0,0.0,17152,11012,10301,11403,35055,4
0.0,0.0,0.0,17084,10999,10278,11403,35018,4
0.0,0.0,0.0,17084,10987,10290,11379,35127,4
0.0,0.0,0.0,17033,11012,10301,11403,35018,4
0.0,0.0,0.0,17084,11012,10301,11403,35055,4
0.0,0.0,0.0,17084,11036,10313,11416,35055,4
0.0,0.0,0.0,17084,11012,10301,11403,35127,4
0.0,0.0,0.0,17084,11012,10301,11403,35018,4
0.0,0.0,0.0,17084,11012,10301,11428,35055,4
0.0,0.0,0.0,17152,11012,10313,11403,35127,4
0.0,0.0,0.0,17101,11012,10313,11403,34982,4
0.0,0.0,0.0,17084,11012,10301,11403,34982,4
0.0,0.0,0.0,17118,11012,10313,11403,35055,4
0.0,0.0,0.0,17084,11024,10313,11391,34946,4
0.0,0.0,0.0,17084,11024,10301,11403,34946,4
0.0,0.0,0.0,17084,11012,10301,11416,35055,4
0.0,0.0,0.0,17084,11036,10301,11416,35018,4
0.0,0.0,0.0,17101,11012,10313,11403,34982,4
0.0,0.0,0.0,17135,11024,10301,11403,35055,4
0.0,0.0,0.0,17118,11024,10313,11403,35055,4
0.0,0.0,0.0,17084,11012,10313,11416,35091,4
0.0,0.0,0.0,17101,11012,10301,11403,35091,4
0.0,0.0,0.0,17118,11024,10301,11416,35091,4
0.0,0.0,0.0,17101,11024,10301,11416,35018,4
0.0,0.0,0.0,17118,11060,10313,11428,34982,4
0.0,0.0,0.0,17101,11060,10301,11428,34982,4
0.0,0.0,0.0,17101,11060,10301,11428,35018,4
0.0,0.0,0.0,17118,11024,10301,11453,35127,4
0.0,0.0,0.0,17118,11036,10301,11465,35163,4
0.0,0.0,0.0,17118,11036,10301,11465,35018,4
0.0,0.0,0.0,17118,11036,10301,11478,35018,4
0.0,0.0,0.0,17152,11024,10313,11465,35091,4
0.0,0.0,0.0,17101,11024,10301,11453,35055,4
0.0,0.0,0.0,17118,11024,10313,11478,34982,4
0.0,0.0,0.0,17118,11012,10301,11478,35018,4
0.0,0.0,0.0,17050,10975,10325,11478,34910,4
0.0,0.0,0.0,17084,10927,10301,11453,35309,4
0.0,0.0,0.0,17084,10915,10255,11453,35272,4
0.0,0.0,0.0,17084,10915,10301,11428,35127,4
0.0,0.0,0.0,17067,10915,10267,11453,35163,4
0.0,0.0,0.0,17033,10915,10221,11428,35127,4
0.0,0.0,0.0,17084,10915,10140,11453,35127,4
0.0,0.0,0.0,17050,10915,10129,11428,35091,4
0.0,0.0,0.0,17084,10915,10129,11403,35127,4
0.0,0.0,0.0,17033,10915,10117,11416,35127,4
0.0,0.0,0.0,17033,10927,10083,11453,35127,4
0.0,0.0,0.0,17050,10915,10117,11453,35055,4
0.0,0.0,0.0,17050,10915,10083,11453,35055,4
0.0,0.0,0.0,17050,10915,10083,11453,35055,4
0.0,0.0,0.0,17033,10915,10083,11453,35018,4
0.0,0.0,0.0,17084,10927,10094,11428,35055,4
0.0,0.0,0.0,17050,10915,10071,11428,34982,4
0.0,0.0,0.0,17016,10927,10071,11453,35055,4
0.0,0.0,0.0,17033,10915,10060,11478,34910,4
0.0,0.0,0.0,17050,10939,10071,11453,34946,4
0.0,0.0,0.0,17033,10927,10083,11453,34910,4
0.0,0.0,0.0,17050,10927,10083,11453,34874,4
0.0,0.0,0.0,17033,10927,10083,11453,34874,4
0.0,0.0,0.0,17050,10939,10094,11453,34910,4
0.0,0.0,0.0,17050,10927,10117,11453,34910,4
0.0,0.0,0.0,17084,10927,10106,11465,34946,4
0.0,0.0,0.0,17050,10939,10083,11453,34910,4
0.0,0.0,0.0,17050,10963,10106,11453,34874,4
0.0,0.0,0.0,17016,10951,10094,11465,34839,4
0.0,0.0,0.0,17067,10927,10117,11453,34910,4
0.0,0.0,0.0,17050,10939,10117,11465,34910,4
0.0,0.0,0.0,17101,10987,10094,11465,34982,4
0.0,0.0,0.0,17084,10963,10117,11453,34839,4
0.0,0.0,0.0,17067,10963,10117,11503,34839,4
0.0,0.0,0.0,17084,10963,10117,11465,34839,4
0.0,0.0,0.0,17084,10963,10117,11453,34839,4
0.0,0.0,0.0,17033,10927,10106,11478,34910,4
0.0,0.0,0.0,17050,10951,10117,11453,34839,4
0.0,0.0,0.0,17033,10987,10129,11478,34874,4
0.0,0.0,0.0,17050,10975,10163,11465,34874,4
0.0,0.0,0.0,17084,10963,10232,11503,34910,4
0.0,0.0,0.0,17033,10963,10255,11478,34874,4
0.0,0.0,0.0,17084,10963,10301,11528,34982,4
0.0,0.0,0.0,17084,11024,10313,11503,34839,4
0.0,0.0,0.0,16983,11024,10325,11528,34874,4
0.0,0.0,0.0,17067,11012,10325,11553,34874,4
0.0,0.0,0.0,17084,11036,10336,11515,34767,4
0.0,0.0,0.0,17050,11036,10313,11528,34910,4
0.0,0.0,0.0,17016,11024,10325,11553,34767,4
0.0,0.0,0.0,17050,11012,10325,11528,34874,4
0.0,0.0,0.0,17050,11012,10325,11528,34767,4
0.0,0.0,0.0,17084,11012,10301,11515,34839,4
0.0,0.0,0.0,17050,11012,10290,11528,34839,4
0.0,0.0,0.0,17033,10975,10163,11515,34982,4
0.0,0.0,0.0,17016,10927,10083,11478,35091,4
0.0,0.0,0.0,17016,10927,10026,11453,34946,4
0.0,0.0,0.0,17016,10927,9980,11453,34982,4
0.0,0.0,0.0,17016,10963,9935,11465,34839,4
0.0,0.0,0.0,17016,10963,9901,11440,34803,4
0.0,0.0,0.0,17033,10963,9890,11453,34767,4
0.0,0.0,0.0,17016,10963,9901,11453,34767,4
0.0,0.0,0.0,17016,10927,9935,11453,34803,4
0.0,0.0,0.0,16983,10963,9935,11465,34731,4
0.0,0.0,0.0,17033,10927,10003,11465,34731,4
0.0,0.0,0.0,17016,10915,9992,11453,34839,4
0.0,0.0,0.0,17016,10915,10003,11453,34731,4
0.0,0.0,0.0,17050,10915,10003,11453,34696,4
0.0,0.0,0.0,16966,10915,10003,11453,34696,4
0.0,0.0,0.0,17016,10927,10003,11428,34767,4
0.0,0.0,0.0,17016,10879,9980,11440,34696,4
0.0,0.0,0.0,16999,10915,10003,11503,34839,4
0.0,0.0,0.0,16983,10915,9980,11528,34982,4
0.0,0.0,0.0,16966,10903,9969,11503,35055,4
0.0,0.0,0.0,16949,10879,9958,11503,34982,4
0.0,0.0,0.0,16949,10891,9969,11503,35018,4
0.0,0.0,0.0,16999,10867,9958,11453,35127,4
0.0,0.0,0.0,16949,10867,9958,11465,34982,4
0.0,0.0,0.0,16949,10891,9958,11428,34982,4
0.0,0.0,0.0,16949,10999,10094,11465,35199,4
0.0,0.0,0.0,17033,11304,10371,11553,35272,4
0.0,0.0,0.0,17050,11354,10359,11553,35163,4
0.0,0.0,0.0,17050,11354,10394,11578,35199,4
0.0,0.0,0.0,17050,11329,10359,11578,35199,4
0.0,0.0,0.0,17050,11329,10394,11565,35272,4
0.0,0.0,0.0,17084,11403,10464,11603,35236,4
0.0,0.0,0.0,17033,11578,10535,11665,35236,4
0.0,0.0,0.0,17084,11754,10582,11678,35272,4
0.0,0.0,0.0,17033,12797,10582,11678,35418,4
0.0,0.0,0.0,17084,14079,10582,11754,35345,4
0.0,0.0,0.0,17050,13735,10558,11678,35309,4
0.0,0.0,0.0,17033,12596,10535,11653,35199,4
0.0,0.0,0.0,17084,12009,10488,11653,35345,4
0.0,0.0,0.0,17016,11855,10488,11653,35127,4
0.0,0.0,0.0,17016,11779,10488,11653,35127,4
0.0,0.0,0.0,17033,11716,10476,11653,35127,4
0.0,0.0,0.0,17033,11691,10488,11653,35163,4
0.0,0.0,0.0,16983,11665,10511,11653,35055,4
0.0,0.0,0.0,17016,11640,10511,11665,35091,4
0.0,0.0,0.0,17016,11653,10499,11653,35127,4
0.0,0.0,0.0,17016,11628,10511,11665,35055,4
0.0,0.0,0.0,17016,11590,10488,11678,35018,4
0.0,0.0,0.0,17016,11603,10488,11678,34839,4
0.0,0.0,0.0,17067,11603,10499,11665,34982,4
0.0,0.0,0.0,17016,11603,10511,11665,35018,4
0.0,0.0,0.0,16966,11603,10488,11665,34874,4
0.0,0.0,0.0,17016,11553,10499,11653,34910,4
0.0,0.0,0.0,17016,11565,10488,11703,34982,4
0.0,0.0,0.0,17033,11565,10488,11703,35055,4
0.0,0.0,0.0,17016,11553,10488,11703,34874,4
0.0,0.0,0.0,17016,11528,10499,11716,34839,4
0.0,0.0,0.0,17016,11515,10488,11703,34874,4
0.0,0.0,0.0,16949,11553,10488,11665,34803,4
0.0,0.0,0.0,17050,11515,10488,11678,34982,4
0.0,0.0,0.0,17016,11528,10488,11703,34839,4
0.0,0.0,0.0,17016,11553,10488,11678,34839,4
0.0,0.0,0.0,17016,11528,10488,11703,34696,4
0.0,0.0,0.0,16966,11553,10488,11703,34731,4
0.0,0.0,0.0,17016,11553,10499,11678,34767,4
0.0,0.0,0.0,17016,11528,10499,11728,34767,4
0.0,0.0,0.0,17016,11553,10488,11691,34731,4
0.0,0.0,0.0,17016,11528,10511,11703,34839,4
0.0,0.0,0.0,16983,11553,10546,11691,34731,4
0.0,0.0,0.0,17033,11515,10535,11703,34731,4
0.0,0.0,0.0,17016,11528,10546,11703,34767,4
0.0,0.0,0.0,17016,11553,10535,11703,34731,4
0.0,0.0,0.0,17016,11503,10394,11678,34839,4
0.0,0.0,0.0,16966,11478,10278,11678,34767,4
0.0,0.0,0.0,16983,11428,10267,11678,34767,4
0.0,0.0,0.0,17016,11453,10255,11691,34803,4
0.0,0.0,0.0,16999,11428,10255,11665,34731,4
0.0,0.0,0.0,16983,11453,10255,11665,34624,4
0.0,0.0,0.0,17016,11416,10255,11678,34696,4
0.0,0.0,0.0,16966,11416,10255,11678,34767,4
0.0,0.0,0.0,16966,11440,10255,11665,34696,4
0.0,0.0,0.0,16983,11453,10255,11653,34696,4
0.0,0.0,0.0,16966,11416,10244,11653,34696,4
0.0,0.0,0.0,16983,11403,10232,11653,34589,4
0.0,0.0,0.0,16966,11416,10232,11653,34624,4
0.0,0.0,0.0,17016,11403,10232,11653,34696,4
0.0,0.0,0.0,16949,11403,10221,11653,34553,4
0.0,0.0,0.0,16966,11416,10209,11653,34731,4
0.0,0.0,0.0,16966,11416,10209,11653,34553,4
0.0,0.0,0.0,16966,11428,10232,11628,34660,4
0.0,0.0,0.0,17016,11416,10209,11628,34660,4
0.0,0.0,0.0,17033,11416,10232,11628,34731,4
0.0,0.0,0.0,17016,11391,10221,11653,34731,4
0.0,0.0,0.0,17033,11317,10232,11653,34696,4
0.0,0.0,0.0,17067,11341,10221,11628,34731,4
0.0,0.0,0.0,17016,11317,10232,11628,34696,4
0.0,0.0,0.0,17016,11341,10232,11615,34624,4
0.0,0.0,0.0,17016,11329,10232,11603,34553,4
0.0,0.0,0.0,17016,11304,10232,11628,34660,4
0.0,0.0,0.0,17050,11304,10232,11628,34696,4
0.0,0.0,0.0,17016,11304,10232,11628,34696,4
0.0,0.0,0.0,17016,11317,10232,11615,34696,4
0.0,0.0,0.0,17016,11304,10221,11603,34589,4
0.0,0.0,0.0,16983,11317,10232,11603,34376,4
0.0,0.0,0.0,17033,11304,10221,11603,34696,4
0.0,0.0,0.0,16983,11329,10255,11628,34518,4
0.0,0.0,0.0,16966,11354,10255,11603,34589,4
0.0,0.0,0.0,17050,11329,10267,11615,34553,4
0.0,0.0,0.0,17033,11354,10267,11628,34553,4
0.0,0.0,0.0,17016,11354,10278,11603,34589,4
0.0,0.0,0.0,16983,11354,10267,11653,34482,4
0.0,0.0,0.0,17016,11304,10301,11628,34589,4
0.0,0.0,0.0,16983,11354,10313,11653,34624,4
0.0,0.0,0.0,17016,11428,10371,11678,34696,4
0.0,0.0,0.0,16983,11453,10394,11678,34553,4
0.0,0.0,0.0,17033,11428,10394,11678,34624,4
0.0,0.0,0.0,17050,11403,10394,11653,34447,4
0.0,0.0,0.0,16966,11379,10348,11653,34553,4
0.0,0.0,0.0,17118,11304,10255,11628,34696,4
0.0,0.0,0.0,17152,11255,10221,11603,34696,4
0.0,0.0,0.0,17118,11231,10209,11603,34839,4
0.0,0.0,0.0,17152,11206,10209,11578,34982,4
0.0,0.0,0.0,17152,11133,10163,11578,35272,4
0.0,0.0,0.0,17152,11133,10140,11553,35418,4
0.0,0.0,0.0,17152,11109,10140,11553,35309,4
0.0,0.0,0.0,17084,11096,10129,11553,35199,4
0.0,0.0,0.0,17152,11084,10140,11553,35272,4
0.0,0.0,0.0,17101,11084,10117,11528,35091,4
0.0,0.0,0.0,17084,11060,10117,11515,35055,4
0.0,0.0,0.0,17084,10987,10049,11528,35091,4
0.0,0.0,0.0,17033,10963,10037,11503,34982,4
0.0,0.0,0.0,17050,10927,10003,11503,34946,4
0.0,0.0,0.0,17050,10963,10003,11503,34982,4
0.0,0.0,0.0,17033,10963,9969,11478,35055,4
0.0,0.0,0.0,17033,10939,9935,11478,34946,4
0.0,0.0,0.0,17050,10939,9935,11453,34982,4
0.0,0.0,0.0,17016,10939,9946,11453,34874,4
0.0,0.0,0.0,17016,10939,9946,11478,34839,4
0.0,0.0,0.0,17016,10927,9958,11428,34910,4
0.0,0.0,0.0,17016,10939,9958,11453,34874,4
0.0,0.0,0.0,16983,10951,9946,11453,34839,4
0.0,0.0,0.0,16999,10915,9958,11453,34767,4
0.0,0.0,0.0,16966,10939,9958,11428,34767,4
0.0,0.0,0.0,17016,10939,9946,11416,34731,4
0.0,0.0,0.0,17050,10939,9969,11416,34767,4
0.0,0.0,0.0,17016,10939,9958,11416,34589,4
0.0,0.0,0.0,16983,10939,9946,11416,34589,4
0.0,0.0,0.0,17016,10951,9958,11428,34624,4
0.0,0.0,0.0,17016,10915,9958,11416,34696,4
0.0,0.0,0.0,17033,10939,9980,11416,34696,4
0.0,0.0,0.0,16966,10939,9958,11453,34589,4
0.0,0.0,0.0,17016,10939,9958,11416,34624,4
0.0,0.0,0.0,16966,10927,9980,11403,34624,4
0.0,0.0,0.0,16983,10939,9980,11403,34553,4
0.0,0.0,0.0,16949,10939,9980,11440,34660,4
0.0,0.0,0.0,16949,10963,9980,11453,34696,4
0.0,0.0,0.0,16949,10963,10003,11416,34696,4
0.0,0.0,0.0,16966,10987,9980,11465,34696,4
0.0,0.0,0.0,16949,10975,10003,11416,34767,4
0.0,0.0,0.0,16915,10987,10003,11453,34767,4
0.0,0.0,0.0,16949,10975,9980,11416,34696,4
0.0,0.0,0.0,16949,10987,10003,11453,34696,4
0.0,0.0,0.0,16949,11012,10026,11453,34731,4
0.0,0.0,0.0,16949,11084,10163,11465,34803,4
0.0,0.0,0.0,17016,11157,10383,11565,35127,4
0.0,0.0,0.0,16966,11170,10464,11653,34982,4
0.0,0.0,0.0,16983,11219,10594,11678,35055,4
0.0,0.0,0.0,17016,11855,11072,11817,35163,4
0.0,0.0,0.0,17050,12163,11182,11817,35127,4
0.0,0.0,0.0,16999,12060,10891,11779,34874,4
0.0,0.0,0.0,17016,11855,10641,11703,34874,4
0.0,0.0,0.0,17016,11628,10546,11703,34803,4
0.0,0.0,0.0,16949,11578,10535,11678,34910,4
0.0,0.0,0.0,16999,11553,10499,11678,34982,4
0.0,0.0,0.0,16949,11528,10488,11628,34982,4
0.0,0.0,0.0,16966,11478,10453,11628,34839,4
0.0,0.0,0.0,16915,11416,10418,11615,34982,4
0.0,0.0,0.0,16915,11354,10371,11603,34982,4
0.0,0.0,0.0,16949,11304,10348,11578,35018,4
0.0,0.0,0.0,16882,11255,10301,11553,34767,4
0.0,0.0,0.0,16882,11157,10267,11553,34874,4
0.0,0.0,0.0,16882,11133,10267,11528,34767,4
0.0,0.0,0.0,16882,11060,10232,11515,34839,4
0.0,0.0,0.0,16898,11060,10244,11528,34874,4
0.0,0.0,0.0,16882,11060,10232,11515,34731,4
0.0,0.0,0.0,16831,11048,10209,11515,34767,4
0.0,0.0,0.0,16865,11060,10209,11515,34767,4
0.0,0.0,0.0,16882,11060,10209,11503,34874,4
0.0,0.0,0.0,16898,11060,10209,11528,34946,4
0.0,0.0,0.0,16898,11060,10186,11528,34839,4
0.0,0.0,0.0,16882,11036,10174,11528,34767,4
0.0,0.0,0.0,16882,11036,10174,11528,34803,4
0.0,0.0,0.0,16915,11060,10174,11528,34660,4
0.0,0.0,0.0,16882,11060,10163,11540,34696,4
0.0,0.0,0.0,16898,11048,10163,11515,34660,4
0.0,0.0,0.0,16882,11036,10163,11503,34624,4
0.0,0.0,0.0,16915,11036,10209,11503,34553,4
0.0,0.0,0.0,16949,11036,10174,11478,34553,4
0.0,0.0,0.0,16949,11048,10174,11465,34624,4
0.0,0.0,0.0,16898,11060,10174,11465,34553,4
0.0,0.0,0.0,16949,11036,10174,11490,34553,4
0.0,0.0,0.0,16898,11036,10163,11478,34518,4
0.0,0.0,0.0,16882,11060,10163,11478,34482,4
0.0,0.0,0.0,16882,11036,10174,11453,34518,4
0.0,0.0,0.0,16898,11060,10174,11503,34518,4
0.0,0.0,0.0,16898,11036,10174,11478,34589,4
0.0,0.0,0.0,16898,11036,10174,11465,34553,4
0.0,0.0,0.0,16915,11060,10163,11453,34553,4
0.0,0.0,0.0,16882,11060,10174,11453,34447,4
0.0,0.0,0.0,16915,11024,10174,11465,34553,4
0.0,0.0,0.0,16898,11060,10174,11478,34624,4
0.0,0.0,0.0,16915,11060,10174,11478,34518,4
0.0,0.0,0.0,16831,11036,10163,11453,34589,4
0.0,0.0,0.0,16882,11060,10174,11465,34482,4
0.0,0.0,0.0,16915,11060,10174,11453,34482,4
0.0,0.0,0.0,16831,11060,10174,11478,34624,4
0.0,0.0,0.0,16882,11048,10209,11478,34553,4
0.0,0.0,0.0,16882,11072,10174,11528,34589,4
0.0,0.0,0.0,16882,11060,10186,11453,34589,4
0.0,0.0,0.0,16882,11060,10174,11478,34553,4
0.0,0.0,0.0,16882,11072,10221,11478,34482,4
0.0,0.0,0.0,16882,11072,10209,11478,34482,4
0.0,0.0,0.0,16831,11072,10209,11453,34412,4
0.0,0.0,0.0,16932,11060,10221,11465,34412,4
0.0,0.0,0.0,16915,11060,10255,11490,34553,4
0.0,0.0,0.0,16882,11084,10301,11478,34553,4
0.0,0.0,0.0,16865,11109,10301,11478,34660,4
0.0,0.0,0.0,16815,11084,10313,11503,34767,4
0.0,0.0,0.0,16865,11084,10348,11503,34839,4
0.0,0.0,0.0,16865,11109,10336,11528,34731,4
0.0,0.0,0.0,16831,11072,10301,11553,34696,4
0.0,0.0,0.0,16848,11060,10244,11515,34696,4
0.0,0.0,0.0,16831,11084,10255,11503,34660,4
0.0,0.0,0.0,16815,11084,10255,11478,34660,4
0.0,0.0,0.0,16831,11060,10232,11490,34696,4
0.0,0.0,0.0,16815,11060,10221,11503,34696,4
0.0,0.0,0.0,16831,11060,10209,11503,34696,4
0.0,0.0,0.0,16781,11036,10140,11503,34731,4
0.0,0.0,0.0,16815,11036,10094,11503,34731,4
0.0,0.0,0.0,16748,11012,10003,11528,34767,4
0.0,0.0,0.0,16748,10999,9958,11503,34803,4
0.0,0.0,0.0,16765,11012,9958,11478,34767,4
0.0,0.0,0.0,16748,10987,9958,11453,34696,4
0.0,0.0,0.0,16748,11012,9958,11478,34696,4
0.0,0.0,0.0,16748,10987,9969,11453,34696,4
0.0,0.0,0.0,16748,10987,9958,11453,34660,4
0.0,0.0,0.0,16765,10963,9969,11453,34624,4
0.0,0.0,0.0,16748,10915,9958,11453,34553,4
0.0,0.0,0.0,16715,10915,9946,11453,34660,4
0.0,0.0,0.0,16748,10915,9935,11416,34553,4
0.0,0.0,0.0,16765,10915,9946,11416,34482,4
0.0,0.0,0.0,16748,10915,9958,11453,34589,4
0.0,0.0,0.0,16748,10927,9946,11453,34482,4
0.0,0.0,0.0,16765,10927,9958,11453,34482,4
0.0,0.0,0.0,16748,10939,9935,11453,34553,4
0.0,0.0,0.0,16731,10939,9946,11453,34553,4
0.0,0.0,0.0,16748,10963,9958,11453,34553,4
0.0,0.0,0.0,16748,10963,9946,11428,34482,4
0.0,0.0,0.0,16748,10963,9890,11428,34624,4
0.0,0.0,0.0,16748,10939,9935,11440,34553,4
0.0,0.0,0.0,16698,10939,9935,11440,34553,4
0.0,0.0,0.0,16765,10927,9935,11453,34447,4
0.0,0.0,0.0,16748,10963,9946,11453,34553,4
0.0,0.0,0.0,16715,10975,9958,11453,34482,4
0.0,0.0,0.0,16781,10963,9946,11453,34482,4
0.0,0.0,0.0,16715,10963,9958,11453,34589,4
0.0,0.0,0.0,16748,10963,9958,11453,34553,4
0.0,0.0,0.0,16748,10963,9958,11428,34624,4
0.0,0.0,0.0,16748,10963,9969,11453,34482,4
0.0,0.0,0.0,16765,10987,9958,11453,34624,4
0.0,0.0,0.0,16748,10975,9980,11453,34589,4
0.0,0.0,0.0,16748,11012,10003,11453,34553,4
0.0,0.0,0.0,16748,10975,9980,11453,34518,4
0.0,0.0,0.0,16748,10987,10003,11453,34482,4
0.0,0.0,0.0,16765,10987,9980,11453,34553,4
0.0,0.0,0.0,16765,10987,10003,11453,34482,4
0.0,0.0,0.0,16748,10939,10003,11465,34553,4
0.0,0.0,0.0,16731,10975,10003,11490,34482,4
0.0,0.0,0.0,16748,10987,9992,11453,34553,4
0.0,0.0,0.0,16748,10975,10003,11478,34553,4
0.0,0.0,0.0,16715,10963,10026,11478,34589,4
0.0,0.0,0.0,16748,10987,10026,11503,34553,4
0.0,0.0,0.0,16748,10987,10026,11465,34696,4
0.0,0.0,0.0,16748,10987,10049,11478,34553,4
0.0,0.0,0.0,16748,11012,10026,11503,34482,4
0.0,0.0,0.0,16748,10987,10026,11503,34553,4
0.0,0.0,0.0,16715,10999,10026,11478,34482,4
0.0,0.0,0.0,16698,10987,10026,11478,34412,4
0.0,0.0,0.0,16748,10975,10026,11503,34482,4
0.0,0.0,0.0,16698,10987,10026,11503,34341,4
0.0,0.0,0.0,16715,10987,10026,11478,34412,4
0.0,0.0,0.0,16715,11012,10026,11478,34412,4
0.0,0.0,0.0,16715,10987,10037,11490,34447,4
0.0,0.0,0.0,16748,10975,10026,11503,34412,4
0.0,0.0,0.0,16748,11012,10026,11465,34376,4
0.0,0.0,0.0,16748,11012,10026,11503,34482,4
0.0,0.0,0.0,16715,11012,10026,11503,34341,4
0.0,0.0,0.0,16715,10987,10014,11478,34376,4
0.0,0.0,0.0,16781,11012,10026,11503,34376,4
0.0,0.0,0.0,16698,10963,10026,11465,34341,4
0.0,0.0,0.0,16748,11012,10026,11503,34341,4
0.0,0.0,0.0,16715,11012,10026,11503,34376,4
0.0,0.0,0.0,16748,10987,10026,11503,34447,4
0.0,0.0,0.0,16698,11012,10026,11465,34341,4
0.0,0.0,0.0,16748,11012,10026,11490,34412,4
0.0,0.0,0.0,16748,11012,10003,11478,34376,4
0.0,0.0,0.0,16748,11012,10003,11503,34341,4
0.0,0.0,0.0,16748,11024,10037,11503,34341,4
0.0,0.0,0.0,16748,11036,10026,11503,34376,4
0.0,0.0,0.0,16748,11036,10026,11503,34447,4
0.0,0.0,0.0,16748,11060,10026,11503,34341,4
0.0,0.0,0.0,16715,11060,10026,11503,34306,4
0.0,0.0,0.0,16731,11060,10026,11490,34306,4
0.0,0.0,0.0,16748,11048,10026,11515,34412,4
0.0,0.0,0.0,16715,11024,10037,11528,34341,4
0.0,0.0,0.0,16748,11036,10049,11528,34341,4
0.0,0.0,0.0,16748,11048,10049,11503,34341,4
0.0,0.0,0.0,16731,11036,10037,11503,34341,4
0.0,0.0,0.0,16715,11060,10060,11528,34412,4
0.0,0.0,0.0,16748,11024,10060,11503,34341,4
0.0,0.0,0.0,16748,11036,10071,11503,34341,4
0.0,0.0,0.0,16748,11060,10071,11503,34341,4
0.0,0.0,0.0,16765,11060,10049,11528,34306,4
0.0,0.0,0.0,16748,11036,10071,11503,34412,4
0.0,0.0,0.0,16765,11048,10071,11503,34306,4
0.0,0.0,0.0,16815,11060,10083,11503,34412,4
0.0,0.0,0.0,16831,11060,10106,11515,34412,4
0.0,0.0,0.0,16815,11060,10186,11528,34412,4
0.0,0.0,0.0,16882,11060,10163,11528,34341,4
0.0,0.0,0.0,16815,11072,10163,11528,34412,4
0.0,0.0,0.0,16831,11060,10163,11528,34341,4
0.0,0.0,0.0,16815,11072,10163,11553,34412,4
0.0,0.0,0.0,16865,11060,10163,11553,34412,4
0.0,0.0,0.0,16831,11084,10163,11553,34341,4
0.0,0.0,0.0,16798,11084,10174,11553,34271,4
0.0,0.0,0.0,16848,11084,10163,11528,34341,4
0.0,0.0,0.0,16882,11072,10163,11528,34341,4
0.0,0.0,0.0,16949,11048,10140,11528,34341,4
0.0,0.0,0.0,17016,10963,10003,11503,34767,4
0.0,0.0,0.0,17084,10891,9980,11478,34839,4
0.0,0.0,0.0,16983,10867,9935,11503,34696,4
0.0,0.0,0.0,16983,10867,9901,11465,34624,4
0.0,0.0,0.0,16949,10867,9912,11503,34518,4
0.0,0.0,0.0,16932,10891,9912,11490,34518,4
0.0,0.0,0.0,16949,10915,9946,11465,34412,4
0.0,0.0,0.0,16882,10927,9946,11478,34553,4
0.0,0.0,0.0,16882,10951,9958,11503,34482,4
0.0,0.0,0.0,16898,10915,9980,11465,34412,4
0.0,0.0,0.0,16882,10939,9980,11503,34412,4
0.0,0.0,0.0,16915,10939,9980,11465,34412,4
0.0,0.0,0.0,16882,10963,10003,11478,34341,4
0.0,0.0,0.0,16898,10951,10003,11503,34341,4
0.0,0.0,0.0,16898,10939,10003,11503,34376,4
0.0,0.0,0.0,16848,10963,10003,11478,34341,4
0.0,0.0,0.0,16898,10939,10003,11503,34412,4
0.0,0.0,0.0,16882,10939,10003,11478,34341,4
0.0,0.0,0.0,16882,10963,10026,11503,34412,4
0.0,0.0,0.0,16882,10939,10003,11503,34412,4
0.0,0.0,0.0,16882,10987,10026,11503,34447,4
0.0,0.0,0.0,16848,10963,10026,11528,34341,4
0.0,0.0,0.0,16882,10963,10026,11503,34271,4
0.0,0.0,0.0,16831,10927,10026,11515,34447,4
0.0,0.0,0.0,16882,10963,10026,11503,34235,4
0.0,0.0,0.0,16865,10951,10026,11503,34341,4
0.0,0.0,0.0,16882,10939,10026,11503,34341,4
0.0,0.0,0.0,16882,10963,10026,11515,34341,4
0.0,0.0,0.0,16882,10963,10026,11503,34341,4
0.0,0.0,0.0,16848,10963,10026,11503,34306,4
0.0,0.0,0.0,16882,10963,10026,11503,34271,4
0.0,0.0,0.0,16882,10963,10026,11515,34271,4
0.0,0.0,0.0,16831,10975,10049,11503,34341,4
0.0,0.0,0.0,16882,10975,10026,11528,34412,4
0.0,0.0,0.0,16815,10963,10037,11515,34306,4
0.0,0.0,0.0,16831,10963,10026,11528,34271,4
0.0,0.0,0.0,16848,10975,10026,11540,34412,4
0.0,0.0,0.0,16831,10963,10026,11528,34341,4
0.0,0.0,0.0,16882,10975,10026,11528,34376,4
0.0,0.0,0.0,16831,10975,10037,11515,34271,4
0.0,0.0,0.0,16831,10975,10026,11528,34271,4
0.0,0.0,0.0,16865,10963,10026,11528,34341,4
0.0,0.0,0.0,16831,10987,10026,11528,34376,4
0.0,0.0,0.0,16865,11012,10026,11553,34341,4
0.0,0.0,0.0,16831,11012,10049,11540,34271,4
0.0,0.0,0.0,16882,11036,10026,11553,34412,4
0.0,0.0,0.0,16882,11060,10060,11553,34376,4
0.0,0.0,0.0,16831,11072,10049,11553,34341,4
0.0,0.0,0.0,16831,11072,10071,11553,34341,4
0.0,0.0,0.0,16831,11036,10071,11528,34341,4
