GyroX,GyroY,GyroZ,Thumb,Index,Middle,Ring,Pinky,Gesture
0.0,0.0,0.0,13978,25793,9699,11109,12703,1
0.0,0.0,0.0,13921,25793,9688,11084,12743,1
0.0,0.0,0.0,13978,25742,9688,11072,12716,1
0.0,0.0,0.0,13935,25717,9677,11109,12663,1
0.0,0.0,0.0,13964,25691,9688,11109,12716,1
0.0,0.0,0.0,13935,25691,9677,11109,12690,1
0.0,0.0,0.0,13935,25616,9688,11096,12649,1
0.0,0.0,0.0,13935,25641,9710,11084,12690,1
0.0,0.0,0.0,13964,25616,9699,11109,12663,1
0.0,0.0,0.0,13935,25641,9710,11109,12690,1
0.0,0.0,0.0,13978,25540,9688,11109,12636,1
0.0,0.0,0.0,14050,25591,9688,11109,12636,1
0.0,0.0,0.0,14050,25415,9710,11096,12556,1
0.0,0.0,0.0,14050,25490,9688,11109,12556,1
0.0,0.0,0.0,14050,25390,9666,11109,12556,1
0.0,0.0,0.0,13992,25390,9699,11109,12530,1
0.0,0.0,0.0,13978,25390,9688,11109,12556,1
0.0,0.0,0.0,13949,25341,9688,11109,12583,1
0.0,0.0,0.0,13964,25390,9677,11109,12543,1
0.0,0.0,0.0,13978,25390,9688,11109,12583,1
0.0,0.0,0.0,13978,25341,9688,11109,12543,1
0.0,0.0,0.0,13978,25291,9699,11109,12610,1
0.0,0.0,0.0,13978,25341,9688,11121,12610,1
0.0,0.0,0.0,14007,25390,9710,11109,12596,1
0.0,0.0,0.0,14007,25291,9677,11109,12743,1
0.0,0.0,0.0,13964,25390,9688,11133,12851,1
0.0,0.0,0.0,13935,25390,9710,11133,12972,1
0.0,0.0,0.0,13921,25341,9710,11109,13040,1
0.0,0.0,0.0,13935,25316,9710,11133,13068,1
0.0,0.0,0.0,13949,25440,9710,11121,13068,1
0.0,0.0,0.0,13906,25341,9699,11109,13040,1
0.0,0.0,0.0,13906,25341,9710,11109,13122,1
0.0,0.0,0.0,13906,25390,9688,11121,13068,1
0.0,0.0,0.0,13906,25390,9710,11133,13232,1
0.0,0.0,0.0,13906,25390,9800,11255,13906,1
0.0,0.0,0.0,13863,25490,10267,11603,14311,1
0.0,0.0,0.0,13849,25415,10511,11906,14370,1
0.0,0.0,0.0,13821,25465,10748,12189,14326,1
0.0,0.0,0.0,13806,25515,11578,12905,14414,1
0.0,0.0,0.0,13806,25465,12112,13566,14547,1
0.0,0.0,0.0,13792,25415,12228,13792,14547,1
0.0,0.0,0.0,13821,25490,12112,14021,14547,1
0.0,0.0,0.0,13792,25415,11932,13964,14577,1
0.0,0.0,0.0,13792,25415,11906,14166,14681,1
0.0,0.0,0.0,13735,25415,11817,14518,15028,1
0.0,0.0,0.0,13749,25390,11716,14547,15288,1
0.0,0.0,0.0,13735,25390,11678,14488,15521,1
0.0,0.0,0.0,13735,25415,11653,14518,15710,1
0.0,0.0,0.0,13735,25390,11779,14922,15900,1
0.0,0.0,0.0,13735,25415,12112,15397,16028,1
0.0,0.0,0.0,13735,25440,12112,15397,15964,1
0.0,0.0,0.0,13707,25390,12073,15273,15996,1
0.0,0.0,0.0,13735,25316,12073,15181,15932,1
0.0,0.0,0.0,13707,25341,12021,15165,15916,1
0.0,0.0,0.0,13735,25341,12060,15089,15868,1
0.0,0.0,0.0,13693,25390,12021,15089,15900,1
0.0,0.0,0.0,13707,25365,12021,15058,15900,1
0.0,0.0,0.0,13707,25341,12009,14997,15852,1
0.0,0.0,0.0,13735,25341,12009,14967,15868,1
0.0,0.0,0.0,13693,25291,11996,14922,15868,1
0.0,0.0,0.0,13650,25316,11970,14937,15900,1
0.0,0.0,0.0,13735,25291,11957,14891,15868,1
0.0,0.0,0.0,13707,25291,11957,14876,15900,1
0.0,0.0,0.0,13735,25291,11932,14846,15852,1
0.0,0.0,0.0,13721,25291,11944,14816,15900,1
0.0,0.0,0.0,13707,25241,11957,14846,15884,1
0.0,0.0,0.0,13721,25291,11970,14801,15837,1
0.0,0.0,0.0,13707,25291,11957,14786,15837,1
0.0,0.0,0.0,13679,25192,11983,14786,15868,1
0.0,0.0,0.0,13707,25241,11957,14786,15852,1
0.0,0.0,0.0,13693,25291,11944,14771,15789,1
0.0,0.0,0.0,13721,25216,11957,14741,15837,1
0.0,0.0,0.0,13693,25241,11957,14756,15837,1
0.0,0.0,0.0,13693,25192,11957,14771,15837,1
0.0,0.0,0.0,13707,25192,11932,14786,15884,1
0.0,0.0,0.0,13721,25266,11919,14741,15852,1
0.0,0.0,0.0,13707,25192,11906,14726,15900,1
0.0,0.0,0.0,13707,25216,11932,14741,15805,1
0.0,0.0,0.0,13735,25192,11944,14726,15837,1
0.0,0.0,0.0,13693,25192,11957,14726,15852,1
0.0,0.0,0.0,13707,25266,11932,14592,15837,1
0.0,0.0,0.0,13693,25142,11804,13906,15615,1
0.0,0.0,0.0,13693,25192,11603,13371,15475,1
0.0,0.0,0.0,13749,25093,11255,12851,15242,1
0.0,0.0,0.0,13749,25118,10819,12477,15058,1
0.0,0.0,0.0,13764,25093,10546,12241,14846,1
0.0,0.0,0.0,13735,25044,10278,12034,14488,1
0.0,0.0,0.0,13764,25019,9935,11868,14195,1
0.0,0.0,0.0,13764,24970,9688,11728,13978,1
0.0,0.0,0.0,13749,24946,9677,11628,13749,1
0.0,0.0,0.0,13806,24946,9677,11553,13566,1
0.0,0.0,0.0,13935,24897,9666,11453,13510,1
0.0,0.0,0.0,13921,24824,9688,11416,13454,1
0.0,0.0,0.0,13906,24848,9688,11453,13343,1
0.0,0.0,0.0,13921,24848,9688,11440,13191,1
0.0,0.0,0.0,13906,24799,9688,11416,13095,1
0.0,0.0,0.0,13849,24751,9710,11403,13054,1
0.0,0.0,0.0,13849,24799,9688,11379,13040,1
0.0,0.0,0.0,13764,24678,9710,11379,12972,1
0.0,0.0,0.0,13749,24654,9688,11366,13013,1
0.0,0.0,0.0,13749,24654,9710,11366,13013,1
0.0,0.0,0.0,13735,24654,9688,11354,13013,1
0.0,0.0,0.0,13735,24606,9677,11354,13013,1
0.0,0.0,0.0,13693,24606,9677,11379,13081,1
0.0,0.0,0.0,13707,24654,9699,11366,13040,1
0.0,0.0,0.0,13707,24654,9688,11354,13095,1
0.0,0.0,0.0,13707,24630,9677,11379,13122,1
0.0,0.0,0.0,13679,24702,9699,11354,13081,1
0.0,0.0,0.0,13693,24558,9688,11366,13122,1
0.0,0.0,0.0,13650,24606,9688,11379,13122,1
0.0,0.0,0.0,13707,24606,9688,11366,13177,1
0.0,0.0,0.0,13707,24558,9699,11379,13136,1
0.0,0.0,0.0,13693,24558,9677,11354,13136,1
0.0,0.0,0.0,13693,24510,9688,11354,13136,1
0.0,0.0,0.0,13679,24606,9677,11329,13081,1
0.0,0.0,0.0,13693,24510,9688,11341,13109,1
0.0,0.0,0.0,13679,24534,9710,11354,13122,1
0.0,0.0,0.0,13679,24510,9677,11354,13122,1
0.0,0.0,0.0,13679,24510,9710,11354,13150,1
0.0,0.0,0.0,13665,24510,9688,11329,13136,1
0.0,0.0,0.0,13679,24510,9677,11354,13122,1
0.0,0.0,0.0,13693,24510,9688,11354,13122,1
0.0,0.0,0.0,13679,24534,9677,11329,13122,1
0.0,0.0,0.0,13665,24462,9688,11354,13122,1
0.0,0.0,0.0,13679,24462,9688,11354,13122,1
0.0,0.0,0.0,13679,24534,9710,11354,13150,1
0.0,0.0,0.0,13679,24462,9688,11341,13150,1
0.0,0.0,0.0,13679,24486,9688,11317,13136,1
0.0,0.0,0.0,13679,24510,9677,11329,13122,1
0.0,0.0,0.0,13679,24462,9677,11354,13177,1
0.0,0.0,0.0,13693,24438,9688,11354,13122,1
0.0,0.0,0.0,13679,24510,9688,11354,13150,1
0.0,0.0,0.0,13679,24510,9677,11341,13136,1
0.0,0.0,0.0,13636,24510,9688,11354,13163,1
0.0,0.0,0.0,13679,24414,9677,11379,13177,1
0.0,0.0,0.0,13650,24414,9677,11354,13163,1
0.0,0.0,0.0,13650,24462,9677,11354,13205,1
0.0,0.0,0.0,13650,24510,9688,11329,13177,1
0.0,0.0,0.0,13679,24438,9677,11354,13136,1
0.0,0.0,0.0,13665,24438,9677,11329,13163,1
0.0,0.0,0.0,13650,24438,9677,11341,13177,1
0.0,0.0,0.0,13650,24462,9688,11354,13163,1
0.0,0.0,0.0,13679,24462,9677,11354,13205,1
0.0,0.0,0.0,13693,24462,9688,11354,13205,1
0.0,0.0,0.0,13735,24462,9677,11354,13205,1
0.0,0.0,0.0,13707,24486,9688,11354,13177,1
0.0,0.0,0.0,13707,24462,9688,11354,13232,1
0.0,0.0,0.0,13707,24438,9677,11379,13205,1
0.0,0.0,0.0,13707,24462,9688,11366,13232,1
0.0,0.0,0.0,13707,24462,9710,11379,13205,1
0.0,0.0,0.0,13693,24414,9688,11379,13232,1
0.0,0.0,0.0,13679,24414,9677,11379,13205,1
0.0,0.0,0.0,13679,24366,9710,11366,13232,1
0.0,0.0,0.0,13679,24390,9710,11354,13205,1
0.0,0.0,0.0,13679,24414,9710,11366,13232,1
0.0,0.0,0.0,13693,24414,9688,11379,13232,1
0.0,0.0,0.0,13693,24414,9688,11354,13205,1
0.0,0.0,0.0,13679,24366,9688,11366,13246,1
0.0,0.0,0.0,13679,24318,9688,11366,13232,1
0.0,0.0,0.0,13693,24366,9677,11379,13232,1
0.0,0.0,0.0,13679,24366,9688,11366,13232,1
0.0,0.0,0.0,13679,24390,9688,11354,13232,1
0.0,0.0,0.0,13622,24271,9699,11354,13205,1
0.0,0.0,0.0,13650,24247,9688,11366,13232,1
0.0,0.0,0.0,13566,24223,9677,11379,13246,1
0.0,0.0,0.0,13594,24223,9688,11379,13232,1
0.0,0.0,0.0,13622,24271,9688,11354,13260,1
0.0,0.0,0.0,13622,24271,9688,11391,13274,1
0.0,0.0,0.0,13594,24223,9688,11354,13274,1
0.0,0.0,0.0,13566,24223,9688,11366,13260,1
0.0,0.0,0.0,13594,24223,9688,11379,13246,1
0.0,0.0,0.0,13594,24152,9699,11354,13246,1
0.0,0.0,0.0,13594,24152,9710,11379,13287,1
0.0,0.0,0.0,13566,24223,9699,11379,13260,1
0.0,0.0,0.0,13580,24199,9688,11366,13260,1
0.0,0.0,0.0,13622,24199,9688,11366,13287,1
0.0,0.0,0.0,13594,24152,9677,11379,13246,1
0.0,0.0,0.0,13580,24129,9710,11366,13260,1
0.0,0.0,0.0,13594,24176,9677,11366,13287,1
0.0,0.0,0.0,13594,24176,9710,11366,13287,1
0.0,0.0,0.0,13622,24176,9710,11379,13260,1
0.0,0.0,0.0,13622,24223,9688,11379,13246,1
0.0,0.0,0.0,13552,24223,9688,11403,13232,1
0.0,0.0,0.0,13566,24105,9677,11403,13232,1
0.0,0.0,0.0,13566,24034,9688,11379,13232,1
0.0,0.0,0.0,13566,23964,9677,11403,13260,1
0.0,0.0,0.0,13510,23940,9688,11403,13246,1
0.0,0.0,0.0,13538,23987,9710,11416,13232,1
0.0,0.0,0.0,13524,23894,9710,11453,13260,1
0.0,0.0,0.0,13510,23940,9688,11403,13246,1
0.0,0.0,0.0,13510,23917,9688,11416,13246,1
0.0,0.0,0.0,13510,23894,9688,11440,13246,1
0.0,0.0,0.0,13510,23847,9710,11428,13260,1
0.0,0.0,0.0,13482,23870,9710,11428,13287,1
0.0,0.0,0.0,13510,23894,9688,11453,13315,1
0.0,0.0,0.0,13482,23847,9688,11416,13287,1
0.0,0.0,0.0,13412,23777,9699,11416,13315,1
0.0,0.0,0.0,13371,23707,9688,11453,13315,1
0.0,0.0,0.0,13357,23684,9699,11428,13343,1
0.0,0.0,0.0,13343,23522,9688,11428,13315,1
0.0,0.0,0.0,13191,23431,9710,11453,13343,1
0.0,0.0,0.0,12824,23022,9710,11453,13398,1
0.0,0.0,0.0,12623,22843,9699,11453,13412,1
0.0,0.0,0.0,12543,22754,9677,11416,13371,1
0.0,0.0,0.0,12583,22798,9688,11453,13357,1
0.0,0.0,0.0,12636,22754,9699,11453,13357,1
0.0,0.0,0.0,12730,22776,9677,11428,13315,1
0.0,0.0,0.0,12797,22776,9688,11428,13315,1
0.0,0.0,0.0,12824,22820,9710,11403,13343,1
0.0,0.0,0.0,12851,22843,9688,11428,13343,1
0.0,0.0,0.0,12851,22798,9677,11416,13301,1
0.0,0.0,0.0,12864,22865,9710,11416,13371,1
0.0,0.0,0.0,12824,22776,9688,11416,13357,1
0.0,0.0,0.0,12851,22798,9688,11416,13343,1
0.0,0.0,0.0,12918,22754,9688,11403,13343,1
0.0,0.0,0.0,12959,22754,9710,11403,13343,1
0.0,0.0,0.0,12972,22843,9688,11379,13301,1
0.0,0.0,0.0,12959,22820,9710,11391,13260,1
0.0,0.0,0.0,12932,22843,9688,11379,13232,1
0.0,0.0,0.0,12972,22843,9688,11366,13246,1
0.0,0.0,0.0,12932,22843,9677,11379,13301,1
0.0,0.0,0.0,12959,22843,9688,11379,13287,1
0.0,0.0,0.0,12959,22798,9688,11379,13287,1
0.0,0.0,0.0,12959,22843,9688,11428,13454,1
0.0,0.0,0.0,12972,22887,9688,11416,13454,1
0.0,0.0,0.0,12959,22843,9688,11428,13454,1
0.0,0.0,0.0,12959,22932,9688,11416,13510,1
0.0,0.0,0.0,12959,22887,9688,11416,13454,1
0.0,0.0,0.0,12932,22932,9710,11416,13468,1
0.0,0.0,0.0,12918,22932,9688,11453,13482,1
0.0,0.0,0.0,12959,22865,9688,11416,13454,1
0.0,0.0,0.0,12945,22932,9688,11453,13510,1
0.0,0.0,0.0,12959,22887,9688,11440,13482,1
0.0,0.0,0.0,12932,22932,9699,11428,13510,1
0.0,0.0,0.0,12932,22887,9688,11453,13510,1
0.0,0.0,0.0,12945,22955,9677,11453,13552,1
0.0,0.0,0.0,12959,22910,9688,11416,13510,1
0.0,0.0,0.0,12959,22955,9677,11453,13510,1
0.0,0.0,0.0,12972,22932,9688,11428,13538,1
0.0,0.0,0.0,12959,22932,9677,11503,13496,1
0.0,0.0,0.0,12932,22887,9677,11453,13510,1
0.0,0.0,0.0,12959,22932,9688,11453,13510,1
0.0,0.0,0.0,12959,22977,9688,11453,13538,1
0.0,0.0,0.0,12918,22977,9699,11453,13636,1
0.0,0.0,0.0,12959,22977,9710,11465,13636,1
0.0,0.0,0.0,13013,22932,9688,11465,13594,1
0.0,0.0,0.0,12972,22955,9688,11416,13524,1
0.0,0.0,0.0,13013,23022,9677,11428,13398,1
0.0,0.0,0.0,12972,22999,9688,11440,13440,1
0.0,0.0,0.0,12972,22977,9688,11416,13384,1
0.0,0.0,0.0,13013,22977,9688,11428,13426,1
0.0,0.0,0.0,13013,22977,9710,11428,13510,1
0.0,0.0,0.0,13040,23022,10221,11817,13964,1
0.0,0.0,0.0,13013,22955,10511,12372,14151,1
0.0,0.0,0.0,13040,23022,11379,13384,14370,1
0.0,0.0,0.0,13040,23044,12438,15304,14666,1
0.0,0.0,0.0,13040,23022,12716,15428,14786,1
0.0,0.0,0.0,13040,23044,12530,15273,14846,1
0.0,0.0,0.0,13027,23022,12451,15119,14846,1
0.0,0.0,0.0,13013,22977,12228,14846,14786,1
0.0,0.0,0.0,13027,22955,12047,14621,14696,1
0.0,0.0,0.0,13013,23022,11906,14399,14711,1
0.0,0.0,0.0,13027,22977,11779,14050,14607,1
0.0,0.0,0.0,13013,22955,11678,13806,14429,1
0.0,0.0,0.0,13013,22955,11465,13594,14370,1
0.0,0.0,0.0,12972,22999,11145,13191,14253,1
0.0,0.0,0.0,12986,23044,10688,12743,14021,1
0.0,0.0,0.0,13013,23044,10441,12280,13849,1
0.0,0.0,0.0,13013,23044,10371,12215,13749,1
0.0,0.0,0.0,13027,22977,10394,12163,13792,1
0.0,0.0,0.0,12972,22955,10383,12137,13792,1
0.0,0.0,0.0,12972,23022,10383,12163,13764,1
0.0,0.0,0.0,12972,23022,10348,12124,13778,1
0.0,0.0,0.0,13013,22977,10371,12112,13735,1
0.0,0.0,0.0,12972,22932,10371,12112,13764,1
0.0,0.0,0.0,13027,22932,10325,12086,13764,1
0.0,0.0,0.0,12986,22977,10301,12021,13749,1
0.0,0.0,0.0,13013,22910,10301,12021,13735,1
0.0,0.0,0.0,13040,22887,10301,12021,13707,1
0.0,0.0,0.0,13068,22887,10278,12009,13735,1
0.0,0.0,0.0,13068,22932,10255,11996,13707,1
0.0,0.0,0.0,13095,22955,10290,11983,13693,1
0.0,0.0,0.0,13122,22932,10267,11983,13679,1
0.0,0.0,0.0,13122,22932,10290,11983,13707,1
0.0,0.0,0.0,13122,22932,10267,11970,13622,1
0.0,0.0,0.0,13136,22887,10267,11957,13693,1
0.0,0.0,0.0,13136,22955,10255,11957,13636,1
0.0,0.0,0.0,13122,22932,10255,11868,13580,1
0.0,0.0,0.0,13122,22932,10232,11868,13580,1
0.0,0.0,0.0,13150,22932,10232,11855,13566,1
0.0,0.0,0.0,13122,22910,10232,11855,13580,1
0.0,0.0,0.0,13136,22932,10232,11817,13566,1
0.0,0.0,0.0,13122,22932,10244,11817,13566,1
0.0,0.0,0.0,13136,22932,10209,11804,13594,1
0.0,0.0,0.0,13136,22932,10232,11779,13566,1
0.0,0.0,0.0,13136,22932,10255,11779,13566,1
0.0,0.0,0.0,13122,22865,10232,11779,13580,1
0.0,0.0,0.0,13136,22955,10221,11779,13622,1
0.0,0.0,0.0,13150,22932,10244,11754,13566,1
0.0,0.0,0.0,13122,22910,10232,11779,13580,1
0.0,0.0,0.0,13122,22932,10232,11779,13580,1
0.0,0.0,0.0,13205,22955,10232,11766,13580,1
0.0,0.0,0.0,13191,22932,10244,11766,13566,1
0.0,0.0,0.0,13177,22910,10232,11754,13622,1
0.0,0.0,0.0,13191,22910,10221,11766,13622,1
0.0,0.0,0.0,13177,22887,10232,11754,13580,1
0.0,0.0,0.0,13205,22955,10232,11766,13566,1
0.0,0.0,0.0,13205,22887,10232,11754,13622,1
0.0,0.0,0.0,13205,22932,10232,11779,13580,1
0.0,0.0,0.0,13205,22932,10255,11754,13622,1
0.0,0.0,0.0,13205,22955,10232,11754,13594,1
0.0,0.0,0.0,13205,22932,10232,11754,13622,1
0.0,0.0,0.0,13205,22910,10244,11754,13622,1
0.0,0.0,0.0,13205,22887,10267,11754,13636,1
0.0,0.0,0.0,13205,22955,10232,11754,13622,1
0.0,0.0,0.0,13205,22887,10255,11754,13622,1
0.0,0.0,0.0,13163,22865,10232,11754,13622,1
0.0,0.0,0.0,13177,22932,10244,11741,13594,1
0.0,0.0,0.0,13205,22887,10244,11754,13650,1
0.0,0.0,0.0,13205,22910,10255,11741,13622,1
0.0,0.0,0.0,13218,22932,10244,11754,13636,1
0.0,0.0,0.0,13232,22932,10255,11754,13636,1
0.0,0.0,0.0,13232,22932,10232,11754,13636,1
0.0,0.0,0.0,13232,22932,10255,11766,13636,1
0.0,0.0,0.0,13232,22887,10255,11728,13622,1
0.0,0.0,0.0,13232,22887,10255,11754,13679,1
0.0,0.0,0.0,13232,22932,10255,11754,13650,1
0.0,0.0,0.0,13205,22932,10255,11754,13650,1
0.0,0.0,0.0,13232,22932,10244,11728,13650,1
0.0,0.0,0.0,13246,22910,10244,11728,13622,1
0.0,0.0,0.0,13232,22932,10255,11754,13622,1
0.0,0.0,0.0,13232,22932,10255,11741,13622,1
0.0,0.0,0.0,13218,22932,10255,11741,13679,1
0.0,0.0,0.0,13205,22932,10255,11754,13650,1
0.0,0.0,0.0,13232,22843,10255,11754,13650,1
0.0,0.0,0.0,13232,22910,10255,11754,13650,1
0.0,0.0,0.0,13232,22887,10255,11754,13679,1
0.0,0.0,0.0,13232,22887,10255,11754,13650,1
0.0,0.0,0.0,13232,22977,10267,11728,13665,1
0.0,0.0,0.0,13232,22887,10255,11754,13636,1
0.0,0.0,0.0,13177,22932,10267,11779,13679,1
0.0,0.0,0.0,13232,22910,10255,11766,13679,1
0.0,0.0,0.0,13205,22910,10267,11754,13650,1
0.0,0.0,0.0,13218,22843,10267,11754,13679,1
0.0,0.0,0.0,13191,22843,10301,11754,13693,1
0.0,0.0,0.0,13177,22932,10278,11754,13679,1
0.0,0.0,0.0,13177,22887,10278,11754,13636,1
0.0,0.0,0.0,13177,22932,10278,11766,13665,1
0.0,0.0,0.0,13205,22887,10301,11754,13650,1
0.0,0.0,0.0,13177,22887,10301,11766,13679,1
0.0,0.0,0.0,13205,22843,10267,11754,13665,1
0.0,0.0,0.0,13177,22955,10278,11754,13650,1
0.0,0.0,0.0,13163,22887,10267,11728,13679,1
0.0,0.0,0.0,13177,22865,10290,11754,13679,1
0.0,0.0,0.0,13150,22887,10301,11754,13679,1
0.0,0.0,0.0,13150,22887,10301,11754,13679,1
0.0,0.0,0.0,13177,22910,10267,11754,13650,1
0.0,0.0,0.0,13150,22887,10278,11754,13650,1
0.0,0.0,0.0,13150,22865,10301,11754,13679,1
0.0,0.0,0.0,13109,22843,10301,11766,13693,1
0.0,0.0,0.0,13136,22887,10301,11754,13707,1
0.0,0.0,0.0,13150,22865,10301,11754,13707,1
0.0,0.0,0.0,13136,22910,10301,11754,13679,1
0.0,0.0,0.0,13150,22887,10301,11754,13679,1
0.0,0.0,0.0,13177,22887,10301,11754,13693,1
0.0,0.0,0.0,13177,22843,10278,11754,13679,1
0.0,0.0,0.0,13150,22843,10278,11754,13679,1
0.0,0.0,0.0,13136,22932,10301,11754,13693,1
0.0,0.0,0.0,13122,22865,10290,11779,13707,1
0.0,0.0,0.0,13150,22843,10301,11766,13693,1
0.0,0.0,0.0,13136,22865,10301,11754,13679,1
0.0,0.0,0.0,13122,22865,10301,11754,13679,1
0.0,0.0,0.0,13163,22865,10301,11754,13679,1
0.0,0.0,0.0,13136,22843,10301,11766,13693,1
0.0,0.0,0.0,13109,22865,10301,11754,13707,1
0.0,0.0,0.0,13136,22843,10301,11754,13693,1
0.0,0.0,0.0,13136,22843,10290,11779,13693,1
0.0,0.0,0.0,13150,22887,10301,11754,13679,1
0.0,0.0,0.0,13136,22843,10278,11754,13679,1
0.0,0.0,0.0,13150,22865,10301,11754,13735,1
0.0,0.0,0.0,13122,22887,10301,11754,13693,1
0.0,0.0,0.0,13136,22887,10301,11754,13679,1
0.0,0.0,0.0,13150,22843,10301,11766,13721,1
0.0,0.0,0.0,13122,22843,10301,11754,13707,1
0.0,0.0,0.0,13150,22843,10278,11754,13707,1
0.0,0.0,0.0,13150,22843,10267,11766,13693,1
0.0,0.0,0.0,13122,22843,10301,11728,13679,1
0.0,0.0,0.0,13136,22843,10290,11754,13707,1
0.0,0.0,0.0,13122,22887,10278,11779,13721,1
0.0,0.0,0.0,13150,22843,10301,11754,13679,1
0.0,0.0,0.0,13150,22843,10278,11779,13707,1
0.0,0.0,0.0,13150,22865,10290,11779,13707,1
0.0,0.0,0.0,13136,22843,10267,11779,13693,1
0.0,0.0,0.0,13095,22843,10278,11766,13735,1
0.0,0.0,0.0,13122,22843,10278,11766,13707,1
0.0,0.0,0.0,13122,22843,10278,11766,13735,1
0.0,0.0,0.0,13136,22798,10290,11766,13693,1
0.0,0.0,0.0,13163,22798,10301,11779,13693,1
0.0,0.0,0.0,13177,22887,10301,11754,13707,1
0.0,0.0,0.0,13136,22798,10301,11754,13693,1
0.0,0.0,0.0,13122,22843,10301,11766,13735,1
0.0,0.0,0.0,13122,22843,10278,11754,13735,1
0.0,0.0,0.0,13122,22843,10301,11754,13707,1
0.0,0.0,0.0,13122,22798,10301,11804,13764,1
0.0,0.0,0.0,13122,22843,10301,11779,13735,1
0.0,0.0,0.0,13122,22776,10313,11766,13735,1
0.0,0.0,0.0,13122,22798,10313,11766,13749,1
0.0,0.0,0.0,13109,22843,10301,11754,13764,1
0.0,0.0,0.0,13122,22843,10290,11792,13749,1
0.0,0.0,0.0,13122,22798,10290,11754,13749,1
0.0,0.0,0.0,13122,22820,10301,11779,13792,1
0.0,0.0,0.0,13136,22798,10301,11754,13749,1
0.0,0.0,0.0,13122,22798,10301,11779,13792,1
0.0,0.0,0.0,13150,22776,10301,11804,13792,1
0.0,0.0,0.0,13150,22798,10301,11766,13806,1
0.0,0.0,0.0,13122,22798,10301,11766,13792,1
0.0,0.0,0.0,13122,22754,10301,11804,13792,1
0.0,0.0,0.0,13150,22798,10325,11766,13849,1
0.0,0.0,0.0,13122,22798,10313,11766,13806,1
0.0,0.0,0.0,13122,22776,10313,11766,13806,1
0.0,0.0,0.0,13136,22754,10313,11779,13821,1
0.0,0.0,0.0,13136,22798,10301,11766,13821,1
0.0,0.0,0.0,13136,22798,10301,11779,13764,1
0.0,0.0,0.0,13177,22754,10301,11779,13806,1
0.0,0.0,0.0,13136,22798,10301,11779,13792,1
0.0,0.0,0.0,13136,22798,10313,11754,13792,1
0.0,0.0,0.0,13136,22776,10301,11779,13849,1
0.0,0.0,0.0,13136,22754,10313,11779,13792,1
0.0,0.0,0.0,13122,22820,10325,11779,13792,1
0.0,0.0,0.0,13150,22798,10371,11779,13792,1
0.0,0.0,0.0,13136,22754,10325,11804,13792,1
0.0,0.0,0.0,13150,22754,10313,11779,13821,1
0.0,0.0,0.0,13177,22776,10301,11792,13849,1
0.0,0.0,0.0,13177,22798,10313,11804,13806,1
0.0,0.0,0.0,13232,22754,10348,11754,13863,1
0.0,0.0,0.0,13246,22820,10464,11804,13821,1
0.0,0.0,0.0,13287,22820,10488,11804,13849,1
0.0,0.0,0.0,13260,22798,10488,11779,13821,1
0.0,0.0,0.0,13287,22843,10453,11779,13806,1
0.0,0.0,0.0,13287,22843,10441,11804,13821,1
0.0,0.0,0.0,13287,22843,10441,11779,13806,1
0.0,0.0,0.0,13287,22843,10441,11716,13849,1
0.0,0.0,0.0,13287,22798,10418,11804,13835,1
0.0,0.0,0.0,13287,22820,10418,11779,13835,1
0.0,0.0,0.0,13260,22798,10418,11804,13792,1
0.0,0.0,0.0,13287,22843,10394,11804,13821,1
0.0,0.0,0.0,13287,22820,10394,11792,13792,1
0.0,0.0,0.0,13260,22820,10394,11779,13835,1
0.0,0.0,0.0,13287,22843,10359,11779,13792,1
0.0,0.0,0.0,13260,22843,10371,11792,13792,1
0.0,0.0,0.0,13260,22798,10394,11792,13849,1
0.0,0.0,0.0,13260,22843,10371,11804,13821,1
0.0,0.0,0.0,13260,22754,10359,11779,13806,1
0.0,0.0,0.0,13287,22820,10394,11804,13835,1
0.0,0.0,0.0,13260,22843,10348,11779,13792,1
0.0,0.0,0.0,13246,22843,10348,11779,13849,1
0.0,0.0,0.0,13260,22843,10325,11804,13821,1
0.0,0.0,0.0,13232,22865,10255,11817,13806,1
0.0,0.0,0.0,13232,22910,10174,11804,13806,1
0.0,0.0,0.0,13232,22887,10140,11804,13665,1
0.0,0.0,0.0,13218,22999,10117,11804,13636,1
0.0,0.0,0.0,13232,22977,10094,11779,13580,1
0.0,0.0,0.0,13232,22977,10071,11766,13566,1
0.0,0.0,0.0,13232,22999,10071,11766,13566,1
0.0,0.0,0.0,13232,23022,10049,11779,13566,1
0.0,0.0,0.0,13232,22955,10037,11754,13538,1
0.0,0.0,0.0,13232,22999,10049,11754,13538,1
0.0,0.0,0.0,13232,22955,10071,11754,13496,1
0.0,0.0,0.0,13232,23067,10060,11779,13384,1
0.0,0.0,0.0,13246,23022,10049,11779,13357,1
0.0,0.0,0.0,13232,22999,10026,11766,13357,1
0.0,0.0,0.0,13287,23044,10026,11792,13287,1
0.0,0.0,0.0,13287,23090,9958,11804,13301,1
0.0,0.0,0.0,13454,23112,9958,11804,13260,1
0.0,0.0,0.0,13496,23044,9935,11766,13274,1
0.0,0.0,0.0,13482,23044,9912,11779,13287,1
0.0,0.0,0.0,13482,23044,9890,11779,13260,1
0.0,0.0,0.0,13412,22999,9901,11766,13232,1
0.0,0.0,0.0,13371,22932,9901,11766,13246,1
0.0,0.0,0.0,13371,22865,9890,11779,13246,1
0.0,0.0,0.0,13371,22887,9890,11741,13246,1
0.0,0.0,0.0,13371,22843,9890,11754,13260,1
0.0,0.0,0.0,13371,22843,9890,11754,13246,1
0.0,0.0,0.0,13357,22843,9890,11754,13260,1
0.0,0.0,0.0,13357,22776,9901,11754,13260,1
0.0,0.0,0.0,13343,22843,9890,11754,13287,1
0.0,0.0,0.0,13371,22887,9901,11754,13260,1
0.0,0.0,0.0,13343,22798,9890,11754,13232,1
0.0,0.0,0.0,13343,22843,9890,11754,13232,1
0.0,0.0,0.0,13357,22887,9901,11766,13232,1
0.0,0.0,0.0,13343,22843,9890,11754,13260,1
0.0,0.0,0.0,13343,22843,9890,11754,13260,1
0.0,0.0,0.0,13384,22843,9901,11754,13260,1
0.0,0.0,0.0,13384,22865,9890,11779,13232,1
0.0,0.0,0.0,13371,22798,9890,11754,13246,1
0.0,0.0,0.0,13371,22843,9890,11754,13274,1
0.0,0.0,0.0,13398,22843,9901,11754,13260,1
0.0,0.0,0.0,13343,22798,9901,11779,13287,1
0.0,0.0,0.0,13398,22843,9912,11766,13301,1
0.0,0.0,0.0,13371,22843,9912,11754,13315,1
0.0,0.0,0.0,13371,22798,9912,11754,13343,1
0.0,0.0,0.0,13371,22843,9958,11754,13343,1
0.0,0.0,0.0,13398,22798,10003,11766,13371,1
0.0,0.0,0.0,13357,22776,10014,11766,13357,1
0.0,0.0,0.0,13371,22776,10014,11754,13398,1
0.0,0.0,0.0,13357,22820,10026,11754,13412,1
0.0,0.0,0.0,13343,22820,10037,11716,13426,1
0.0,0.0,0.0,13343,22776,10026,11779,13426,1
0.0,0.0,0.0,13357,22754,10003,11766,13398,1
0.0,0.0,0.0,13343,22798,10026,11766,13398,1
0.0,0.0,0.0,13315,22709,10003,11766,13398,1
0.0,0.0,0.0,13343,22754,10026,11754,13440,1
0.0,0.0,0.0,13343,22731,10026,11779,13412,1
0.0,0.0,0.0,13343,22754,10026,11779,13412,1
0.0,0.0,0.0,13315,22754,10003,11766,13384,1
0.0,0.0,0.0,13343,22754,10003,11754,13398,1
0.0,0.0,0.0,13371,22776,10003,11754,13412,1
0.0,0.0,0.0,13343,22754,10014,11754,13412,1
0.0,0.0,0.0,13343,22754,10026,11766,13371,1
0.0,0.0,0.0,13315,22754,10026,11766,13426,1
0.0,0.0,0.0,13343,22754,10003,11766,13398,1
0.0,0.0,0.0,13343,22754,10026,11766,13398,1
0.0,0.0,0.0,13343,22754,10026,11754,13398,1
0.0,0.0,0.0,13343,22709,10026,11766,13398,1
0.0,0.0,0.0,13343,22709,10026,11779,13412,1
0.0,0.0,0.0,13343,22687,10026,11779,13412,1
0.0,0.0,0.0,13301,22754,10003,11766,13426,1
0.0,0.0,0.0,13315,22754,10026,11754,13412,1
0.0,0.0,0.0,13343,22709,10003,11779,13426,1
0.0,0.0,0.0,13343,22754,10026,11766,13412,1
0.0,0.0,0.0,13357,22754,10049,11754,13454,1
0.0,0.0,0.0,13343,22754,10037,11779,13454,1
0.0,0.0,0.0,13357,22731,10049,11779,13454,1
0.0,0.0,0.0,13343,22709,10071,11779,13454,1
0.0,0.0,0.0,13315,22754,10094,11766,13468,1
0.0,0.0,0.0,13315,22798,10221,11754,13594,1
0.0,0.0,0.0,13315,22887,10441,11754,13749,1
0.0,0.0,0.0,13260,22843,10582,11804,13863,1
0.0,0.0,0.0,13260,22932,10641,11855,14036,1
0.0,0.0,0.0,13246,22977,10915,12293,14370,1
0.0,0.0,0.0,13260,22887,11060,12583,14385,1
0.0,0.0,0.0,13232,22977,11072,12583,14385,1
0.0,0.0,0.0,13232,22932,11096,12583,14370,1
0.0,0.0,0.0,13246,22910,11084,12583,14385,1
0.0,0.0,0.0,13232,22865,11024,12556,14399,1
0.0,0.0,0.0,13260,22932,11060,12556,14385,1
0.0,0.0,0.0,13260,22932,11012,12543,14399,1
0.0,0.0,0.0,13260,22910,11012,12530,14399,1
0.0,0.0,0.0,13260,22910,10987,12530,14370,1
0.0,0.0,0.0,13274,22843,10927,12490,14370,1
0.0,0.0,0.0,13246,22887,10903,12477,14311,1
0.0,0.0,0.0,13246,22843,10891,12438,14341,1
0.0,0.0,0.0,13260,22843,10891,12424,14311,1
0.0,0.0,0.0,13232,22843,10891,12424,14341,1
0.0,0.0,0.0,13260,22843,10891,12438,14326,1
0.0,0.0,0.0,13260,22887,10891,12438,14311,1
0.0,0.0,0.0,13246,22843,10879,12451,14326,1
0.0,0.0,0.0,13232,22843,10879,12424,14326,1
0.0,0.0,0.0,13260,22865,10879,12477,14341,1
0.0,0.0,0.0,13232,22843,10867,12451,14341,1
0.0,0.0,0.0,13260,22843,10891,12477,14370,1
0.0,0.0,0.0,13232,22932,10915,12490,14385,1
0.0,0.0,0.0,13232,22977,10915,12556,14429,1
0.0,0.0,0.0,13232,22955,11206,12851,14711,1
0.0,0.0,0.0,13232,23044,11728,13371,15028,1
0.0,0.0,0.0,13232,23044,11728,13426,15089,1
0.0,0.0,0.0,13246,23044,11678,13524,15366,1
0.0,0.0,0.0,13205,23044,11628,13538,15741,1
0.0,0.0,0.0,13191,23044,11603,13636,15916,1
0.0,0.0,0.0,13205,23044,11553,13650,16319,1
0.0,0.0,0.0,13191,23022,11528,13764,16450,1
0.0,0.0,0.0,13205,22955,11503,13835,16483,1
0.0,0.0,0.0,13177,23022,11515,14021,16815,1
0.0,0.0,0.0,13150,23022,11615,14518,17289,1
0.0,0.0,0.0,13177,22977,11881,15211,17652,1
0.0,0.0,0.0,13177,23022,12124,15600,17792,1
0.0,0.0,0.0,13191,22955,12372,15868,17915,1
0.0,0.0,0.0,13232,23022,12530,16028,17951,1
0.0,0.0,0.0,13218,23022,12636,16093,17951,1
0.0,0.0,0.0,13191,23022,12690,16189,18004,1
0.0,0.0,0.0,13205,22977,12743,16336,18075,1
0.0,0.0,0.0,13177,23022,12864,16483,18129,1
0.0,0.0,0.0,13205,22999,13177,16932,18290,1
0.0,0.0,0.0,13205,22977,13454,17169,18399,1
0.0,0.0,0.0,13205,22999,13580,17186,18453,1
0.0,0.0,0.0,13191,22977,13580,17220,18471,1
0.0,0.0,0.0,13205,22977,13552,17169,18453,1
0.0,0.0,0.0,13136,22999,13510,17152,18435,1
0.0,0.0,0.0,13205,22977,13468,17152,18435,1
0.0,0.0,0.0,13205,23022,13454,17084,18471,1
0.0,0.0,0.0,13205,22977,13454,17033,18435,1
0.0,0.0,0.0,13205,22999,13398,17016,18453,1
0.0,0.0,0.0,13177,22932,13426,17016,18435,1
0.0,0.0,0.0,13232,22977,13398,16966,18417,1
0.0,0.0,0.0,13177,22932,13398,16966,18417,1
0.0,0.0,0.0,13232,22977,13398,16966,18435,1
0.0,0.0,0.0,13177,23022,13343,16949,18362,1
0.0,0.0,0.0,13191,22932,13343,16882,18417,1
0.0,0.0,0.0,13205,22955,13287,16882,18362,1
0.0,0.0,0.0,13177,22932,13287,16848,18362,1
0.0,0.0,0.0,13191,22932,13260,16831,18362,1
0.0,0.0,0.0,13177,22932,13246,16815,18308,1
0.0,0.0,0.0,13191,22932,13260,16815,18362,1
0.0,0.0,0.0,13205,22932,13260,16781,18272,1
0.0,0.0,0.0,13177,22932,13246,16748,18290,1
0.0,0.0,0.0,13177,22932,13246,16748,18308,1
0.0,0.0,0.0,13177,22955,13232,16748,18308,1
0.0,0.0,0.0,13177,22843,13205,16748,18290,1
0.0,0.0,0.0,13177,22955,13027,16516,18200,1
0.0,0.0,0.0,13191,22955,12424,15584,17915,1
0.0,0.0,0.0,13177,22865,12163,15058,17687,1
0.0,0.0,0.0,13136,22910,12009,14937,17634,1
0.0,0.0,0.0,13150,22977,11842,14666,17495,1
0.0,0.0,0.0,13150,22977,11553,14180,16949,1
0.0,0.0,0.0,13191,23022,10963,13371,16222,1
0.0,0.0,0.0,13260,23112,10582,12770,15227,1
0.0,0.0,0.0,13287,23112,10464,12424,14786,1
0.0,0.0,0.0,13287,23067,10406,12267,14666,1
0.0,0.0,0.0,13274,23067,10348,12137,14532,1
0.0,0.0,0.0,13287,23022,10290,12060,14399,1
0.0,0.0,0.0,13274,23044,10255,11970,14268,1
0.0,0.0,0.0,13287,23067,10255,11957,14282,1
0.0,0.0,0.0,13260,23112,10209,11957,14268,1
0.0,0.0,0.0,13260,23044,10209,11957,14311,1
0.0,0.0,0.0,13260,23044,10174,11932,14326,1
0.0,0.0,0.0,13274,23022,10140,11906,14268,1
0.0,0.0,0.0,13260,23022,10083,11906,14297,1
0.0,0.0,0.0,13260,22999,10083,11881,14326,1
0.0,0.0,0.0,13246,23022,10083,11932,14341,1
0.0,0.0,0.0,13232,23022,10083,11906,14326,1
0.0,0.0,0.0,13232,23022,10071,11919,14370,1
0.0,0.0,0.0,13232,22955,10071,11881,14370,1
0.0,0.0,0.0,13232,23022,10083,11906,14399,1
0.0,0.0,0.0,13205,22977,10071,11906,14326,1
0.0,0.0,0.0,13246,22977,10071,11906,14341,1
0.0,0.0,0.0,13232,22955,10071,11932,14370,1
0.0,0.0,0.0,13232,22955,10071,11906,14370,1
0.0,0.0,0.0,13232,22977,10071,11906,14370,1
0.0,0.0,0.0,13232,22977,10071,11881,14370,1
0.0,0.0,0.0,13232,22932,10060,11906,14370,1
0.0,0.0,0.0,13205,22999,10071,11906,14385,1
0.0,0.0,0.0,13232,22865,10094,11932,14429,1
0.0,0.0,0.0,13232,22932,10094,11932,14429,1
0.0,0.0,0.0,13232,22932,10117,11906,14429,1
0.0,0.0,0.0,13232,22932,10094,11906,14429,1
0.0,0.0,0.0,13232,22932,10117,11919,14399,1
0.0,0.0,0.0,13287,22955,10094,11932,14444,1
0.0,0.0,0.0,13482,23044,10094,11919,14458,1
0.0,0.0,0.0,13978,23431,10117,11906,14429,1
0.0,0.0,0.0,14922,24129,10209,11906,14458,1
0.0,0.0,0.0,15304,24271,10209,11919,14444,1
0.0,0.0,0.0,15553,24414,10221,11932,14444,1
0.0,0.0,0.0,15568,24462,10221,11932,14458,1
0.0,0.0,0.0,15490,24366,10209,11932,14488,1
0.0,0.0,0.0,15459,24366,10209,11906,14444,1
0.0,0.0,0.0,15506,24318,10186,11906,14429,1
0.0,0.0,0.0,15663,24510,10197,11906,14444,1
0.0,0.0,0.0,15773,24462,10221,11906,14429,1
0.0,0.0,0.0,16093,24799,10371,11957,14532,1
0.0,0.0,0.0,16173,24799,10476,11970,14726,1
0.0,0.0,0.0,15996,24654,10488,12009,14771,1
0.0,0.0,0.0,15996,24630,10476,11983,14726,1
0.0,0.0,0.0,15916,24558,10441,12009,14726,1
0.0,0.0,0.0,15900,24558,10453,11983,14726,1
0.0,0.0,0.0,15837,24582,10453,11996,14726,1
0.0,0.0,0.0,15805,24606,10464,12009,14846,1
0.0,0.0,0.0,15789,24534,10488,12060,15058,1
0.0,0.0,0.0,15789,24534,10511,12060,15150,1
0.0,0.0,0.0,15852,24606,10535,12060,15150,1
0.0,0.0,0.0,15837,24654,10535,12086,15165,1
0.0,0.0,0.0,15852,24630,10535,12073,15135,1
0.0,0.0,0.0,15789,24606,10535,12099,15119,1
0.0,0.0,0.0,15773,24606,10535,12086,15089,1
0.0,0.0,0.0,15773,24606,10523,12086,15058,1
0.0,0.0,0.0,15710,24558,10535,12112,15043,1
0.0,0.0,0.0,15647,24534,10535,12086,15043,1
0.0,0.0,0.0,15600,24510,10535,12073,15058,1
0.0,0.0,0.0,15490,24414,10535,12099,15089,1
0.0,0.0,0.0,15397,24390,10511,12086,15043,1
0.0,0.0,0.0,15335,24342,10499,12086,15058,1
0.0,0.0,0.0,15335,24271,10476,12086,15089,1
0.0,0.0,0.0,15273,24271,10499,12086,15043,1
0.0,0.0,0.0,15211,24223,10511,12112,15058,1
0.0,0.0,0.0,15227,24271,10499,12112,15058,1
0.0,0.0,0.0,15196,24152,10535,12112,15028,1
0.0,0.0,0.0,15150,24223,10499,12112,15028,1
0.0,0.0,0.0,15181,24176,10499,12112,15058,1
0.0,0.0,0.0,15165,24152,10511,12099,15028,1
0.0,0.0,0.0,15165,24152,10499,12112,15058,1
0.0,0.0,0.0,15150,24129,10511,12112,15058,1
0.0,0.0,0.0,15150,24152,10499,12112,15058,1
0.0,0.0,0.0,15150,24176,10511,12112,15058,1
0.0,0.0,0.0,15119,24223,10535,12112,15028,1
0.0,0.0,0.0,15089,24152,10535,12112,15043,1
0.0,0.0,0.0,15058,24105,10535,12163,15089,1
0.0,0.0,0.0,15074,24176,10724,12398,15475,1
0.0,0.0,0.0,15043,24129,10771,12583,15521,1
0.0,0.0,0.0,14967,24129,10771,12596,15443,1
0.0,0.0,0.0,14937,24105,10771,12649,15537,1
0.0,0.0,0.0,14937,24129,10795,12690,15553,1
0.0,0.0,0.0,14937,24129,10783,12770,15678,1
0.0,0.0,0.0,14861,24176,10975,13068,15964,1
0.0,0.0,0.0,14786,24152,11280,13566,16336,1
0.0,0.0,0.0,14756,24176,11354,13821,16352,1
0.0,0.0,0.0,14726,24129,11403,14036,16483,1
0.0,0.0,0.0,14696,24199,11403,14137,16549,1
0.0,0.0,0.0,14681,24199,11403,14137,16615,1
0.0,0.0,0.0,14681,24152,11366,14108,16582,1
0.0,0.0,0.0,14696,24129,11366,14108,16582,1
0.0,0.0,0.0,14636,24081,11354,14079,16549,1
0.0,0.0,0.0,14636,24129,11354,14122,16549,1
0.0,0.0,0.0,14562,24081,11317,14108,16549,1
0.0,0.0,0.0,14577,24129,11304,14064,16549,1
0.0,0.0,0.0,14547,24058,11317,14050,16549,1
0.0,0.0,0.0,14547,24058,11317,14108,16582,1
0.0,0.0,0.0,14577,24176,11304,14021,16615,1
0.0,0.0,0.0,14547,24129,11304,14021,16582,1
0.0,0.0,0.0,14547,24129,11317,14021,16615,1
0.0,0.0,0.0,14547,24081,11304,14036,16565,1
0.0,0.0,0.0,14562,24034,11317,14021,16582,1
0.0,0.0,0.0,14562,24081,11317,14007,16582,1
0.0,0.0,0.0,14547,24081,11317,13978,16549,1
0.0,0.0,0.0,14562,24081,11329,13978,16582,1
0.0,0.0,0.0,14577,24081,11304,13978,16549,1
0.0,0.0,0.0,14547,24081,11304,13992,16582,1
0.0,0.0,0.0,14547,24034,11304,14021,16549,1
0.0,0.0,0.0,14547,24011,11317,13992,16516,1
0.0,0.0,0.0,14503,24058,11317,13964,16582,1
0.0,0.0,0.0,14547,24058,11317,13964,16549,1
0.0,0.0,0.0,14547,24058,11317,13964,16598,1
0.0,0.0,0.0,14518,24058,11329,13992,16565,1
0.0,0.0,0.0,14547,24034,11317,13964,16582,1
0.0,0.0,0.0,14503,24034,11317,13964,16565,1
0.0,0.0,0.0,14518,24034,11354,13978,16565,1
0.0,0.0,0.0,14503,23987,11317,13964,16565,1
0.0,0.0,0.0,14503,24034,11354,14021,16615,1
0.0,0.0,0.0,14488,24034,11354,14021,16615,1
0.0,0.0,0.0,14503,24034,11354,14021,16582,1
0.0,0.0,0.0,14488,24081,11379,13992,16582,1
0.0,0.0,0.0,14503,24034,11379,14007,16615,1
0.0,0.0,0.0,14473,23964,11403,14021,16615,1
0.0,0.0,0.0,14488,24034,11403,14021,16598,1
0.0,0.0,0.0,14458,23964,11366,14079,16632,1
0.0,0.0,0.0,14458,24058,11379,14036,16615,1
0.0,0.0,0.0,14458,23964,11354,14079,16598,1
0.0,0.0,0.0,14488,24011,11354,14079,16632,1
0.0,0.0,0.0,14444,24034,11366,14108,16632,1
0.0,0.0,0.0,14458,23987,11366,14108,16648,1
0.0,0.0,0.0,14488,24034,11379,14195,16681,1
0.0,0.0,0.0,14444,23940,11403,14137,16681,1
0.0,0.0,0.0,14444,23964,11379,14166,16632,1
0.0,0.0,0.0,14444,24034,11403,14137,16681,1
0.0,0.0,0.0,14444,23940,11403,14137,16648,1
0.0,0.0,0.0,14429,23964,11366,14151,16681,1
0.0,0.0,0.0,14444,23964,11403,14137,16681,1
0.0,0.0,0.0,14429,24011,11403,14137,16681,1
0.0,0.0,0.0,14429,23987,11379,14195,16648,1
0.0,0.0,0.0,14429,23987,11379,14137,16715,1
0.0,0.0,0.0,14429,24011,11379,14137,16648,1
0.0,0.0,0.0,14429,24011,11379,14166,16648,1
0.0,0.0,0.0,14414,23987,11403,14166,16665,1
0.0,0.0,0.0,14399,24011,11403,14137,16748,1
0.0,0.0,0.0,14399,23940,11379,14151,16698,1
0.0,0.0,0.0,14429,23987,11391,14122,16681,1
0.0,0.0,0.0,14399,23940,11403,14137,16698,1
0.0,0.0,0.0,14429,24011,11403,14137,16681,1
0.0,0.0,0.0,14399,23964,11391,14137,16681,1
0.0,0.0,0.0,14370,24011,11403,14137,16698,1
0.0,0.0,0.0,14370,23964,11403,14137,16681,1
0.0,0.0,0.0,14370,23940,11403,14137,16698,1
0.0,0.0,0.0,14429,23940,11403,14166,16681,1
0.0,0.0,0.0,14399,23940,11416,14122,16648,1
0.0,0.0,0.0,14385,23964,11428,14151,16681,1
0.0,0.0,0.0,14385,23964,11416,14137,16648,1
0.0,0.0,0.0,14385,23940,11416,14108,16698,1
0.0,0.0,0.0,14399,23987,11416,14108,16681,1
0.0,0.0,0.0,14370,23917,11453,14137,16715,1
0.0,0.0,0.0,14399,23964,11428,14137,16681,1
0.0,0.0,0.0,14385,23894,11416,14137,16681,1
0.0,0.0,0.0,14370,23940,11416,14122,16681,1
0.0,0.0,0.0,14399,23940,11403,14137,16698,1
0.0,0.0,0.0,14399,23917,11428,14108,16715,1
0.0,0.0,0.0,14385,23940,11428,14137,16681,1
0.0,0.0,0.0,14385,23940,11416,14108,16698,1
0.0,0.0,0.0,14370,23964,11416,14137,16681,1
0.0,0.0,0.0,14370,23964,11403,14122,16681,1
0.0,0.0,0.0,14385,23917,11403,14108,16681,1
0.0,0.0,0.0,14385,23987,11403,14122,16681,1
0.0,0.0,0.0,14370,23940,11416,14108,16681,1
0.0,0.0,0.0,14370,23964,11403,14122,16715,1
0.0,0.0,0.0,14385,23987,11403,14137,16681,1
0.0,0.0,0.0,14341,23940,11416,14122,16648,1
0.0,0.0,0.0,14370,23894,11403,14108,16681,1
0.0,0.0,0.0,14370,23940,11403,14137,16681,1
0.0,0.0,0.0,14370,23894,11403,14108,16681,1
0.0,0.0,0.0,14370,23917,11403,14137,16681,1
0.0,0.0,0.0,14326,23894,11428,14079,16698,1
0.0,0.0,0.0,14370,23917,11403,14108,16698,1
0.0,0.0,0.0,14370,23894,11428,14108,16681,1
0.0,0.0,0.0,14370,23894,11403,14079,16648,1
0.0,0.0,0.0,14370,23894,11416,14108,16698,1
0.0,0.0,0.0,14370,23964,11403,14108,16681,1
0.0,0.0,0.0,14341,23917,11403,14108,16681,1
0.0,0.0,0.0,14311,23894,11403,14079,16681,1
0.0,0.0,0.0,14370,23940,11403,14079,16648,1
0.0,0.0,0.0,14385,23894,11403,14108,16632,1
0.0,0.0,0.0,14326,23894,11416,14108,16648,1
0.0,0.0,0.0,14399,23870,11354,14108,16681,1
0.0,0.0,0.0,14370,23940,11403,14079,16632,1
0.0,0.0,0.0,14370,23894,11379,14093,16681,1
0.0,0.0,0.0,14370,23917,11403,14108,16648,1
0.0,0.0,0.0,14370,23847,11403,14108,16681,1
0.0,0.0,0.0,14370,23917,11379,14108,16681,1
0.0,0.0,0.0,14370,23894,11403,14079,16648,1
0.0,0.0,0.0,14370,23940,11416,14108,16648,1
0.0,0.0,0.0,14370,23894,11379,14079,16615,1
0.0,0.0,0.0,14341,23847,11403,14108,16681,1
0.0,0.0,0.0,14370,23894,11403,14108,16681,1
0.0,0.0,0.0,14355,23894,11403,14093,16615,1
0.0,0.0,0.0,14326,23940,11403,14079,16715,1
0.0,0.0,0.0,14370,23917,11403,14050,16648,1
0.0,0.0,0.0,14355,23917,11403,14079,16632,1
0.0,0.0,0.0,14355,23894,11403,14079,16648,1
0.0,0.0,0.0,14370,23894,11403,14079,16648,1
0.0,0.0,0.0,14341,23870,11403,14079,16698,1
0.0,0.0,0.0,14370,23894,11379,14079,16648,1
0.0,0.0,0.0,14370,23940,11403,14050,16615,1
0.0,0.0,0.0,14370,23940,11391,14036,16681,1
0.0,0.0,0.0,14311,23870,11403,14050,16632,1
0.0,0.0,0.0,14370,23870,11403,14079,16632,1
0.0,0.0,0.0,14385,23847,11379,14050,16615,1
0.0,0.0,0.0,14370,23870,11379,14079,16648,1
0.0,0.0,0.0,14370,23917,11403,14108,16648,1
0.0,0.0,0.0,14341,23894,11403,14050,16632,1
0.0,0.0,0.0,14326,23870,11403,14079,16615,1
0.0,0.0,0.0,14326,23894,11391,14079,16615,1
0.0,0.0,0.0,14311,23870,11403,14036,16632,1
0.0,0.0,0.0,14326,23847,11403,14021,16615,1
0.0,0.0,0.0,14326,23847,11428,14079,16681,1
0.0,0.0,0.0,14326,23777,11478,14079,16615,1
0.0,0.0,0.0,14311,23777,11453,14021,16598,1
0.0,0.0,0.0,14341,23847,11453,14064,16615,1
0.0,0.0,0.0,14311,23800,11465,14050,16615,1
0.0,0.0,0.0,14311,23824,11453,14050,16615,1
0.0,0.0,0.0,14326,23847,11453,14050,16632,1
0.0,0.0,0.0,14311,23847,11453,14021,16648,1
0.0,0.0,0.0,14326,23847,11440,14050,16681,1
0.0,0.0,0.0,14311,23894,11453,14021,16615,1
0.0,0.0,0.0,14326,23847,11503,14050,16648,1
0.0,0.0,0.0,14311,23847,11503,14036,16632,1
0.0,0.0,0.0,14311,23847,11540,14021,16681,1
0.0,0.0,0.0,14326,23847,11553,14021,16632,1
0.0,0.0,0.0,14311,23800,11528,14021,16632,1
0.0,0.0,0.0,14311,23847,11515,14007,16648,1
0.0,0.0,0.0,14311,23777,11503,14036,16681,1
0.0,0.0,0.0,14297,23800,11453,14064,16648,1
0.0,0.0,0.0,14282,23777,11478,14050,16698,1
0.0,0.0,0.0,14268,23800,11465,14036,16665,1
0.0,0.0,0.0,14282,23870,11503,14036,16698,1
0.0,0.0,0.0,14297,23847,11503,14036,16681,1
0.0,0.0,0.0,14268,23800,11503,14036,16698,1
0.0,0.0,0.0,14268,23800,11478,14050,16665,1
0.0,0.0,0.0,14282,23824,11503,14021,16648,1
0.0,0.0,0.0,14282,23824,11515,14050,16681,1
0.0,0.0,0.0,14282,23777,11515,14036,16681,1
0.0,0.0,0.0,14268,23800,11515,14021,16681,1
0.0,0.0,0.0,14282,23800,11528,14079,16681,1
0.0,0.0,0.0,14253,23800,11553,14079,16681,1
0.0,0.0,0.0,14253,23800,11540,14064,16698,1
0.0,0.0,0.0,14253,23847,11540,14108,16681,1
0.0,0.0,0.0,14282,23847,11528,14064,16715,1
0.0,0.0,0.0,14253,23730,11528,14079,16715,1
0.0,0.0,0.0,14282,23777,11553,14108,16715,1
0.0,0.0,0.0,14253,23824,11528,14050,16715,1
0.0,0.0,0.0,14253,23777,11528,14021,16715,1
0.0,0.0,0.0,14253,23754,11528,14079,16748,1
0.0,0.0,0.0,14253,23777,11503,14021,16715,1
0.0,0.0,0.0,14253,23800,11503,14036,16748,1
0.0,0.0,0.0,14253,23754,11478,14050,16715,1
0.0,0.0,0.0,14253,23730,11515,14021,16698,1
0.0,0.0,0.0,14224,23754,11490,14021,16748,1
0.0,0.0,0.0,14224,23754,11515,14064,16748,1
0.0,0.0,0.0,14253,23754,11503,14050,16698,1
0.0,0.0,0.0,14253,23754,11515,14079,16748,1
0.0,0.0,0.0,14253,23730,11478,14050,16748,1
0.0,0.0,0.0,14253,23754,11490,14021,16715,1
0.0,0.0,0.0,14224,23777,11503,14036,16731,1
0.0,0.0,0.0,14224,23754,11503,14064,16715,1
0.0,0.0,0.0,14268,23754,11503,14050,16748,1
0.0,0.0,0.0,14253,23777,11478,14036,16748,1
0.0,0.0,0.0,14209,23684,11503,14050,16731,1
0.0,0.0,0.0,14253,23754,11478,14050,16715,1
0.0,0.0,0.0,14224,23754,11478,14079,16715,1
0.0,0.0,0.0,14253,23777,11465,14021,16698,1
0.0,0.0,0.0,14209,23754,11440,13964,16748,1
0.0,0.0,0.0,14224,23707,11391,13665,16549,1
0.0,0.0,0.0,14195,23730,11379,13622,16549,1
0.0,0.0,0.0,14209,23730,11366,13594,16549,1
0.0,0.0,0.0,14195,23754,11354,13594,16532,1
0.0,0.0,0.0,14209,23754,11317,13580,16549,1
0.0,0.0,0.0,14224,23730,11304,13594,16549,1
0.0,0.0,0.0,14195,23754,11304,13566,16565,1
0.0,0.0,0.0,14180,23684,11255,13594,16615,1
0.0,0.0,0.0,14195,23707,11206,13566,16615,1
0.0,0.0,0.0,14166,23754,11219,13594,16598,1
0.0,0.0,0.0,14166,23707,11219,13594,16615,1
0.0,0.0,0.0,14166,23707,11231,13594,16615,1
0.0,0.0,0.0,14195,23754,11219,13594,16582,1
0.0,0.0,0.0,14151,23684,11219,13580,16615,1
0.0,0.0,0.0,14151,23707,11219,13580,16565,1
0.0,0.0,0.0,14151,23661,11231,13566,16615,1
0.0,0.0,0.0,14151,23684,11231,13594,16582,1
0.0,0.0,0.0,14151,23684,11231,13580,16615,1
0.0,0.0,0.0,14166,23707,11206,13594,16615,1
0.0,0.0,0.0,14137,23707,11206,13594,16615,1
0.0,0.0,0.0,14151,23661,11231,13594,16582,1
0.0,0.0,0.0,14137,23684,11231,13580,16582,1
