GyroX,GyroY,GyroZ,Thumb,Index,Middle,Ring,Pinky,Gesture
0.0,0.0,0.0,27229,28984,29775,42580,39202,0
0.0,0.0,0.0,27256,28955,29746,42534,39077,0
0.0,0.0,0.0,27283,28955,29627,42488,39244,0
0.0,0.0,0.0,27256,28955,29686,42580,39244,0
0.0,0.0,0.0,27202,28927,29716,42580,39244,0
0.0,0.0,0.0,27202,28927,29657,42395,39244,0
0.0,0.0,0.0,27175,28898,29686,42488,39160,0
0.0,0.0,0.0,27229,28927,29657,42488,39244,0
0.0,0.0,0.0,27256,28927,29686,42488,39160,0
0.0,0.0,0.0,27202,28927,29716,42488,39160,0
0.0,0.0,0.0,27202,28955,29686,42395,39244,0
0.0,0.0,0.0,27148,28869,29627,42488,38995,0
0.0,0.0,0.0,27202,28840,29686,42442,39119,0
0.0,0.0,0.0,27175,28955,29597,42395,39077,0
0.0,0.0,0.0,27148,28812,29657,42304,39077,0
0.0,0.0,0.0,27175,28812,29627,42395,39036,0
0.0,0.0,0.0,27202,28869,29627,42395,38995,0
0.0,0.0,0.0,27148,28812,29657,42349,38995,0
0.0,0.0,0.0,27202,28840,29627,42349,38871,0
0.0,0.0,0.0,27148,28812,29627,42349,38953,0
0.0,0.0,0.0,27202,28812,29538,42488,38789,0
0.0,0.0,0.0,27202,28840,29597,42349,38830,0
0.0,0.0,0.0,27148,28754,29597,42395,38995,0
0.0,0.0,0.0,27068,28754,29538,42258,38830,0
0.0,0.0,0.0,27148,28754,29568,42304,38871,0
0.0,0.0,0.0,27068,28812,29597,42395,38707,0
0.0,0.0,0.0,27095,28697,29568,42304,38830,0
0.0,0.0,0.0,27068,28754,29538,42304,38748,0
0.0,0.0,0.0,27148,28754,29568,42304,38830,0
0.0,0.0,0.0,27095,28697,29568,42395,38748,0
0.0,0.0,0.0,27095,28697,29538,42212,38830,0
0.0,0.0,0.0,27068,28697,29538,42304,38666,0
0.0,0.0,0.0,27095,28697,29509,42304,38666,0
0.0,0.0,0.0,26988,28754,29509,42212,38830,0
0.0,0.0,0.0,27068,28697,29538,42258,38707,0
0.0,0.0,0.0,27041,28640,29538,42304,38666,0
0.0,0.0,0.0,27095,28726,29509,42166,38748,0
0.0,0.0,0.0,27015,28669,29509,42212,38748,0
0.0,0.0,0.0,27041,28640,29450,42120,38830,0
0.0,0.0,0.0,27041,28640,29509,42258,38707,0
0.0,0.0,0.0,26988,28640,29538,42304,38666,0
0.0,0.0,0.0,26988,28612,29450,42166,38748,0
0.0,0.0,0.0,26961,28583,29450,42120,38789,0
0.0,0.0,0.0,26988,28583,29509,42212,38707,0
0.0,0.0,0.0,26961,28583,29568,42212,38625,0
0.0,0.0,0.0,26935,28612,29450,42120,38707,0
0.0,0.0,0.0,26988,28555,29479,42258,38666,0
0.0,0.0,0.0,26908,28583,29509,42120,38666,0
0.0,0.0,0.0,26961,28612,29391,42120,38748,0
0.0,0.0,0.0,26961,28583,29391,42166,38625,0
0.0,0.0,0.0,26961,28612,29421,42120,38666,0
0.0,0.0,0.0,26935,28583,29391,42029,38585,0
0.0,0.0,0.0,26961,28583,29391,42212,38585,0
0.0,0.0,0.0,26882,28583,29362,42120,38666,0
0.0,0.0,0.0,26935,28470,29333,42212,38666,0
0.0,0.0,0.0,27068,28583,29391,42212,38585,0
0.0,0.0,0.0,26935,28498,29362,42120,38707,0
0.0,0.0,0.0,26908,28555,29333,42120,38585,0
0.0,0.0,0.0,26882,28498,29391,42029,38503,0
0.0,0.0,0.0,26935,28527,29362,41938,38666,0
0.0,0.0,0.0,26882,28385,29333,41984,38585,0
0.0,0.0,0.0,26855,28470,29304,42120,38503,0
0.0,0.0,0.0,26855,28470,29333,42029,38666,0
0.0,0.0,0.0,26855,28470,29333,41984,38503,0
0.0,0.0,0.0,26882,28470,29362,42029,38585,0
0.0,0.0,0.0,26882,28498,29304,41938,38666,0
0.0,0.0,0.0,26802,28498,29304,42029,38503,0
0.0,0.0,0.0,26829,28470,29274,42029,38503,0
0.0,0.0,0.0,26908,28385,29333,41984,38503,0
0.0,0.0,0.0,26855,28470,29216,41848,38503,0
0.0,0.0,0.0,26749,28470,29274,41938,38503,0
0.0,0.0,0.0,26776,28385,29274,41938,38503,0
0.0,0.0,0.0,26855,28357,29333,41984,38503,0
0.0,0.0,0.0,26829,28385,29274,41938,38503,0
0.0,0.0,0.0,26776,28357,29274,41848,38585,0
0.0,0.0,0.0,26802,28414,29274,41893,38463,0
0.0,0.0,0.0,26749,28357,29274,41938,38503,0
0.0,0.0,0.0,26829,28357,29304,41984,38503,0
0.0,0.0,0.0,26776,28357,29245,41848,38463,0
0.0,0.0,0.0,26776,28414,29158,41757,38503,0
0.0,0.0,0.0,26723,28301,29216,41803,38382,0
0.0,0.0,0.0,26723,28329,29216,41848,38503,0
0.0,0.0,0.0,26776,28385,29216,41848,38422,0
0.0,0.0,0.0,26749,28329,29245,41803,38422,0
0.0,0.0,0.0,26749,28357,29245,41803,38463,0
0.0,0.0,0.0,26697,28329,29274,41848,38382,0
0.0,0.0,0.0,26670,28329,29216,41848,38382,0
0.0,0.0,0.0,26723,28357,29216,41848,38382,0
0.0,0.0,0.0,26776,28245,29158,41803,38341,0
0.0,0.0,0.0,26723,28357,29158,41667,38341,0
0.0,0.0,0.0,26749,28301,29158,41803,38422,0
0.0,0.0,0.0,26723,28245,29100,41757,38422,0
0.0,0.0,0.0,26723,28301,29100,41757,38503,0
0.0,0.0,0.0,26723,28329,29187,41667,38382,0
0.0,0.0,0.0,26644,28273,29129,41757,38382,0
0.0,0.0,0.0,26618,28357,29187,41757,38301,0
0.0,0.0,0.0,26723,28245,29129,41803,38260,0
0.0,0.0,0.0,26697,28301,29216,41757,38260,0
0.0,0.0,0.0,26644,28245,29100,41803,38260,0
0.0,0.0,0.0,26670,28245,29071,41667,38341,0
0.0,0.0,0.0,26644,28189,29071,41667,38260,0
0.0,0.0,0.0,26670,28217,29100,41577,38341,0
0.0,0.0,0.0,26644,28245,29216,41757,38301,0
0.0,0.0,0.0,26592,28217,29100,41757,38180,0
0.0,0.0,0.0,26618,28161,29042,41577,38260,0
0.0,0.0,0.0,26697,28245,29100,41443,38422,0
0.0,0.0,0.0,26566,28217,29158,41622,38341,0
0.0,0.0,0.0,26618,28133,29100,41667,38260,0
0.0,0.0,0.0,26618,28189,29042,41577,38341,0
0.0,0.0,0.0,26644,28077,29100,41577,38220,0
0.0,0.0,0.0,26566,28133,29071,41577,38260,0
0.0,0.0,0.0,26566,28161,28984,41577,38180,0
0.0,0.0,0.0,26618,28161,29042,41667,38341,0
0.0,0.0,0.0,26513,28189,29042,41577,38180,0
0.0,0.0,0.0,26566,28133,29100,41577,38260,0
0.0,0.0,0.0,26592,28161,29042,41622,38260,0
0.0,0.0,0.0,26618,28133,28984,41622,38260,0
0.0,0.0,0.0,26592,28133,29042,41577,38260,0
0.0,0.0,0.0,26539,28022,29100,41622,38180,0
0.0,0.0,0.0,26513,28105,29042,41622,38140,0
0.0,0.0,0.0,26566,28077,29042,41533,38140,0
0.0,0.0,0.0,26566,28133,28984,41488,38180,0
0.0,0.0,0.0,26566,28189,29071,41488,38220,0
0.0,0.0,0.0,26513,28077,29042,41622,38019,0
0.0,0.0,0.0,26566,28133,29071,41577,38180,0
0.0,0.0,0.0,26513,28133,28955,41622,38140,0
0.0,0.0,0.0,26513,28077,29042,41622,38019,0
0.0,0.0,0.0,26539,28077,29042,41533,38100,0
0.0,0.0,0.0,26461,28133,29013,41622,38180,0
0.0,0.0,0.0,26435,28105,28927,41577,38100,0
0.0,0.0,0.0,26461,28077,28955,41577,38100,0
0.0,0.0,0.0,26513,27911,29013,41622,37980,0
0.0,0.0,0.0,26409,28049,28955,41533,38100,0
0.0,0.0,0.0,26409,28022,28955,41488,38059,0
0.0,0.0,0.0,26253,27966,28984,41488,38100,0
0.0,0.0,0.0,26202,27911,28927,41443,38059,0
0.0,0.0,0.0,26124,27911,28955,41443,38019,0
0.0,0.0,0.0,25894,27800,28927,41399,38019,0
0.0,0.0,0.0,25793,27800,28869,41309,38019,0
0.0,0.0,0.0,25540,27718,28812,41354,38100,0
0.0,0.0,0.0,25465,27636,28869,41399,38100,0
0.0,0.0,0.0,25142,27499,28927,41309,37940,0
0.0,0.0,0.0,24751,27310,28840,41265,38059,0
0.0,0.0,0.0,24510,27148,28840,41221,37940,0
0.0,0.0,0.0,24414,27148,28812,41221,38059,0
0.0,0.0,0.0,24271,27095,28812,41221,37860,0
0.0,0.0,0.0,24129,27095,28812,41265,37980,0
0.0,0.0,0.0,24058,27068,28754,41221,38059,0
0.0,0.0,0.0,24058,26988,28812,41176,38140,0
0.0,0.0,0.0,23894,26908,28812,41132,38100,0
0.0,0.0,0.0,23754,26829,28754,41221,38059,0
0.0,0.0,0.0,23431,26749,28754,41132,38140,0
0.0,0.0,0.0,23294,26670,28726,41088,38100,0
0.0,0.0,0.0,23135,26670,28754,41132,38140,0
0.0,0.0,0.0,23044,26670,28697,41088,38059,0
0.0,0.0,0.0,22977,26618,28697,41044,38059,0
0.0,0.0,0.0,22955,26670,28640,40955,38019,0
0.0,0.0,0.0,22955,26618,28697,40955,38059,0
0.0,0.0,0.0,22955,26723,28640,40955,38180,0
0.0,0.0,0.0,22932,26618,28669,41044,38019,0
0.0,0.0,0.0,22932,26618,28697,41044,38019,0
0.0,0.0,0.0,23022,26670,28697,41000,38019,0
0.0,0.0,0.0,23022,26723,28697,40912,38100,0
0.0,0.0,0.0,23022,26644,28669,40912,38059,0
0.0,0.0,0.0,23044,26670,28640,40955,37980,0
0.0,0.0,0.0,23112,26670,28583,40955,38140,0
0.0,0.0,0.0,23157,26670,28612,40868,38059,0
0.0,0.0,0.0,23135,26618,28640,40868,38140,0
0.0,0.0,0.0,23294,26566,28612,40955,38019,0
0.0,0.0,0.0,23225,26644,28583,41044,38059,0
0.0,0.0,0.0,23294,26670,28612,40868,38019,0
0.0,0.0,0.0,23339,26618,28640,40868,38100,0
0.0,0.0,0.0,23294,26670,28583,40912,38019,0
0.0,0.0,0.0,23294,26618,28640,40955,38059,0
0.0,0.0,0.0,23339,26723,28583,40868,38100,0
0.0,0.0,0.0,23339,26644,28583,40868,38100,0
0.0,0.0,0.0,23316,26566,28612,40868,38019,0
0.0,0.0,0.0,23431,26618,28697,40824,38019,0
0.0,0.0,0.0,23431,26644,28612,40868,38019,0
0.0,0.0,0.0,23477,26618,28583,40912,37940,0
0.0,0.0,0.0,23431,26566,28612,40912,38019,0
0.0,0.0,0.0,23431,26566,28583,40955,38019,0
0.0,0.0,0.0,23431,26618,28527,40868,37940,0
0.0,0.0,0.0,23431,26618,28612,40868,37940,0
0.0,0.0,0.0,23431,26566,28527,40824,37940,0
0.0,0.0,0.0,23339,26566,28583,40868,37940,0
0.0,0.0,0.0,23431,26566,28612,40868,37940,0
0.0,0.0,0.0,23385,26461,28640,40780,38019,0
0.0,0.0,0.0,23431,26435,28527,40868,38019,0
0.0,0.0,0.0,23431,26513,28555,40912,37940,0
0.0,0.0,0.0,23385,26539,28583,40736,37900,0
0.0,0.0,0.0,23362,26513,28583,40868,38019,0
0.0,0.0,0.0,23316,26461,28527,40868,37860,0
0.0,0.0,0.0,23385,26487,28470,40868,37900,0
0.0,0.0,0.0,23431,26487,28527,40868,37860,0
0.0,0.0,0.0,23362,26435,28470,40912,37900,0
0.0,0.0,0.0,23385,26513,28470,40693,37940,0
0.0,0.0,0.0,23431,26461,28527,40868,37781,0
0.0,0.0,0.0,23385,26435,28470,40693,37860,0
0.0,0.0,0.0,23385,26461,28498,40868,37741,0
0.0,0.0,0.0,23339,26409,28470,40736,37940,0
0.0,0.0,0.0,23294,26409,28470,40780,37820,0
0.0,0.0,0.0,23385,26383,28470,40868,37701,0
0.0,0.0,0.0,23339,26409,28470,40824,37900,0
0.0,0.0,0.0,23339,26435,28442,40693,37900,0
0.0,0.0,0.0,23362,26461,28414,40736,37860,0
0.0,0.0,0.0,23362,26409,28470,40780,37781,0
0.0,0.0,0.0,23385,26409,28470,40824,37860,0
0.0,0.0,0.0,23339,26253,28385,40736,37940,0
0.0,0.0,0.0,23385,26461,28470,40605,37860,0
0.0,0.0,0.0,23339,26409,28414,40736,37781,0
0.0,0.0,0.0,23339,26383,28414,40780,37741,0
0.0,0.0,0.0,23316,26357,28442,40736,37781,0
0.0,0.0,0.0,23294,26305,28357,40649,37820,0
0.0,0.0,0.0,23225,26253,28414,40605,37900,0
0.0,0.0,0.0,23044,26253,28414,40693,37781,0
0.0,0.0,0.0,23022,26150,28414,40693,37741,0
0.0,0.0,0.0,22887,26253,28357,40605,37701,0
0.0,0.0,0.0,22754,26202,28385,40562,37781,0
0.0,0.0,0.0,22444,26124,28301,40693,37781,0
0.0,0.0,0.0,22313,26150,28357,40693,37741,0
0.0,0.0,0.0,22226,26124,28357,40693,37701,0
0.0,0.0,0.0,22075,26099,28301,40649,37860,0
0.0,0.0,0.0,21946,26124,28329,40605,37781,0
0.0,0.0,0.0,21754,26228,28301,40693,37860,0
0.0,0.0,0.0,21711,26228,28245,40519,37940,0
0.0,0.0,0.0,21648,26253,28301,40519,37940,0
0.0,0.0,0.0,21627,26253,28301,40605,38059,0
0.0,0.0,0.0,21648,26305,28245,40519,37940,0
0.0,0.0,0.0,21563,26228,28245,40519,37940,0
0.0,0.0,0.0,21458,26253,28301,40562,37860,0
0.0,0.0,0.0,21458,26202,28189,40562,37940,0
0.0,0.0,0.0,21458,26150,28245,40389,37860,0
0.0,0.0,0.0,21563,26305,28161,40519,37980,0
0.0,0.0,0.0,21563,26305,28189,40519,37980,0
0.0,0.0,0.0,21711,26331,28189,40389,38019,0
0.0,0.0,0.0,21733,26409,28189,40432,38019,0
0.0,0.0,0.0,22096,26305,28245,40432,37940,0
0.0,0.0,0.0,22248,26202,28189,40475,37940,0
0.0,0.0,0.0,22423,26305,28133,40432,37940,0
0.0,0.0,0.0,22510,26409,28245,40519,38019,0
0.0,0.0,0.0,22466,26409,28161,40346,38019,0
0.0,0.0,0.0,22576,26409,28133,40432,38019,0
0.0,0.0,0.0,22820,26409,28133,40432,37940,0
0.0,0.0,0.0,23431,26305,28189,40519,37940,0
0.0,0.0,0.0,24081,26461,28133,40519,38019,0
0.0,0.0,0.0,24727,26829,28245,40562,38019,0
0.0,0.0,0.0,24751,26723,28301,40519,37980,0
0.0,0.0,0.0,24824,26697,28245,40475,37860,0
0.0,0.0,0.0,25216,26855,28357,40605,38019,0
0.0,0.0,0.0,25591,27148,28385,40562,38019,0
0.0,0.0,0.0,25591,27095,28470,40693,37940,0
0.0,0.0,0.0,25793,27095,28470,40693,37940,0
0.0,0.0,0.0,25717,27148,28414,40562,37980,0
0.0,0.0,0.0,25641,27068,28470,40519,37980,0
0.0,0.0,0.0,25591,27041,28414,40605,38140,0
0.0,0.0,0.0,25490,26961,28414,40519,37980,0
0.0,0.0,0.0,25316,26882,28414,40605,37980,0
0.0,0.0,0.0,25241,26802,28414,40389,37940,0
0.0,0.0,0.0,25192,26670,28414,40432,37820,0
0.0,0.0,0.0,25093,26723,28357,40432,37900,0
0.0,0.0,0.0,25068,26697,28357,40519,37820,0
0.0,0.0,0.0,25142,26670,28357,40519,37781,0
0.0,0.0,0.0,24995,26618,28357,40389,37741,0
0.0,0.0,0.0,24897,26566,28301,40432,37741,0
0.0,0.0,0.0,24799,26487,28301,40519,37701,0
0.0,0.0,0.0,24702,26435,28245,40346,37860,0
0.0,0.0,0.0,24606,26409,28245,40346,37860,0
0.0,0.0,0.0,24438,26253,28245,40432,37820,0
0.0,0.0,0.0,24081,26202,28189,40216,37860,0
0.0,0.0,0.0,23546,26022,28133,40259,37860,0
0.0,0.0,0.0,23044,25945,28133,40302,37860,0
0.0,0.0,0.0,22621,25894,28133,40302,37940,0
0.0,0.0,0.0,22226,25869,28049,40259,37940,0
0.0,0.0,0.0,22010,25843,28105,40259,37860,0
0.0,0.0,0.0,21882,25894,28133,40173,37860,0
0.0,0.0,0.0,21882,25920,28049,40259,37820,0
0.0,0.0,0.0,21563,25920,28077,40216,37900,0
0.0,0.0,0.0,21479,25920,27966,40173,37781,0
0.0,0.0,0.0,21437,25920,28077,40173,37820,0
0.0,0.0,0.0,21375,25920,28077,40302,37820,0
0.0,0.0,0.0,21375,25894,28049,40173,37781,0
0.0,0.0,0.0,21333,25894,28049,40216,37820,0
0.0,0.0,0.0,21250,25894,28022,40216,37781,0
0.0,0.0,0.0,21208,25894,28049,40216,37781,0
0.0,0.0,0.0,21187,25996,28049,40173,37860,0
0.0,0.0,0.0,21146,25894,28049,40173,37860,0
0.0,0.0,0.0,21146,25945,28022,40173,37900,0
0.0,0.0,0.0,21208,25920,28022,40173,37781,0
0.0,0.0,0.0,21458,26047,28022,40088,37860,0
0.0,0.0,0.0,21796,26047,28022,40131,37860,0
0.0,0.0,0.0,21882,26022,28022,40173,37860,0
0.0,0.0,0.0,21967,25971,27966,40088,37781,0
0.0,0.0,0.0,22096,26047,28022,40173,37741,0
0.0,0.0,0.0,22401,25996,28022,40259,37820,0
0.0,0.0,0.0,22798,26047,28049,40259,37781,0
0.0,0.0,0.0,22932,25996,28022,40259,37860,0
0.0,0.0,0.0,23135,25996,28022,40259,37940,0
0.0,0.0,0.0,23248,26073,28022,40259,37781,0
0.0,0.0,0.0,23477,26099,28022,40216,37940,0
0.0,0.0,0.0,23592,26099,28022,40216,37980,0
0.0,0.0,0.0,23707,26047,28022,40302,37940,0
0.0,0.0,0.0,23917,26124,28049,40216,37781,0
0.0,0.0,0.0,24034,26099,28133,40346,37860,0
0.0,0.0,0.0,24199,26099,28133,40259,37860,0
0.0,0.0,0.0,24534,26228,28189,40346,37940,0
0.0,0.0,0.0,24702,26305,28189,40346,37860,0
0.0,0.0,0.0,24799,26357,28161,40259,37860,0
0.0,0.0,0.0,24751,26357,28189,40346,37820,0
0.0,0.0,0.0,24727,26279,28161,40259,37741,0
0.0,0.0,0.0,24727,26279,28161,40173,37860,0
0.0,0.0,0.0,24751,26279,28245,40346,37860,0
0.0,0.0,0.0,24702,26253,28161,40346,37860,0
0.0,0.0,0.0,24558,26150,28161,40259,37701,0
0.0,0.0,0.0,24462,26099,28189,40259,37781,0
0.0,0.0,0.0,24438,26099,28161,40259,37820,0
0.0,0.0,0.0,24414,26047,28189,40259,37781,0
0.0,0.0,0.0,24438,26073,28217,40259,37781,0
0.0,0.0,0.0,24342,26099,28105,40216,37860,0
0.0,0.0,0.0,24318,26099,28133,40346,37741,0
0.0,0.0,0.0,24366,26022,28161,40259,37622,0
0.0,0.0,0.0,24390,26022,28133,40302,37820,0
0.0,0.0,0.0,24342,26047,28133,40173,37701,0
0.0,0.0,0.0,24342,25996,28105,40346,37741,0
0.0,0.0,0.0,24414,26099,28133,40173,37741,0
0.0,0.0,0.0,24271,25996,28133,40216,37741,0
0.0,0.0,0.0,24271,26022,28133,40173,37781,0
0.0,0.0,0.0,24247,25945,28133,40216,37622,0
0.0,0.0,0.0,24318,25996,28105,40216,37662,0
0.0,0.0,0.0,24271,25996,28161,40173,37741,0
0.0,0.0,0.0,24271,25996,28133,40259,37701,0
0.0,0.0,0.0,24223,25996,28077,40173,37741,0
0.0,0.0,0.0,24223,25996,28133,40173,37662,0
0.0,0.0,0.0,24152,25945,28105,40259,37701,0
0.0,0.0,0.0,24011,25843,28077,40346,37543,0
0.0,0.0,0.0,23894,25793,28022,40173,37543,0
0.0,0.0,0.0,23661,25793,28049,40173,37701,0
0.0,0.0,0.0,23477,25717,28022,40088,37701,0
0.0,0.0,0.0,23203,25717,27966,40045,37662,0
0.0,0.0,0.0,23044,25666,28022,40088,37701,0
0.0,0.0,0.0,22798,25591,27939,40088,37701,0
0.0,0.0,0.0,22709,25591,27911,40088,37701,0
0.0,0.0,0.0,22621,25515,27939,40002,37701,0
0.0,0.0,0.0,22532,25540,28022,40088,37701,0
0.0,0.0,0.0,22248,25591,27883,40002,37622,0
0.0,0.0,0.0,22161,25591,27911,40002,37701,0
0.0,0.0,0.0,21924,25591,27911,39960,37662,0
0.0,0.0,0.0,21711,25641,27911,39960,37583,0
0.0,0.0,0.0,21458,25641,27856,39960,37543,0
0.0,0.0,0.0,21458,25641,27939,40002,37662,0
0.0,0.0,0.0,21375,25616,27911,40045,37662,0
0.0,0.0,0.0,21229,25691,27911,40002,37583,0
0.0,0.0,0.0,21187,25691,27856,39917,37701,0
0.0,0.0,0.0,21084,25717,27828,39747,37583,0
0.0,0.0,0.0,20981,25793,27773,39917,37701,0
0.0,0.0,0.0,20838,25843,27800,39832,37662,0
0.0,0.0,0.0,20676,25843,27800,39874,37662,0
0.0,0.0,0.0,20636,25894,27828,39790,37543,0
0.0,0.0,0.0,20737,25843,27800,39874,37465,0
0.0,0.0,0.0,20757,25818,27800,39832,37543,0
0.0,0.0,0.0,20879,25869,27800,39747,37543,0
0.0,0.0,0.0,21043,25894,27800,39874,37504,0
0.0,0.0,0.0,21125,25843,27773,39832,37622,0
0.0,0.0,0.0,21375,25894,27800,39747,37622,0
0.0,0.0,0.0,21627,25869,27800,39747,37543,0
0.0,0.0,0.0,22096,25894,27828,39874,37662,0
0.0,0.0,0.0,22423,25843,27800,39874,37741,0
0.0,0.0,0.0,22576,25742,27911,40002,37701,0
0.0,0.0,0.0,22709,25717,27856,40002,37701,0
0.0,0.0,0.0,22977,25767,27939,40002,37781,0
0.0,0.0,0.0,23157,25691,27911,40002,37860,0
0.0,0.0,0.0,23385,25742,27966,40045,37781,0
0.0,0.0,0.0,23454,25742,27939,40002,37741,0
0.0,0.0,0.0,23522,25717,27939,40002,37781,0
0.0,0.0,0.0,23661,25793,28022,40002,37701,0
0.0,0.0,0.0,23661,25742,27966,40045,37741,0
0.0,0.0,0.0,23661,25793,27966,40002,37701,0
0.0,0.0,0.0,23847,25793,28022,40002,37622,0
0.0,0.0,0.0,23894,25793,28022,40088,37701,0
0.0,0.0,0.0,23940,25945,28049,39960,37701,0
0.0,0.0,0.0,24034,26022,28161,40173,37741,0
0.0,0.0,0.0,24058,26022,28133,40131,37701,0
0.0,0.0,0.0,24034,26047,28161,40173,37741,0
0.0,0.0,0.0,24271,26124,28189,40131,37741,0
0.0,0.0,0.0,24247,26099,28133,40002,37741,0
0.0,0.0,0.0,24247,26099,28161,40045,37701,0
0.0,0.0,0.0,24271,26099,28077,40088,37701,0
0.0,0.0,0.0,24342,26124,28133,40002,37622,0
0.0,0.0,0.0,24366,26099,28189,40088,37662,0
0.0,0.0,0.0,24414,26099,28133,40045,37701,0
0.0,0.0,0.0,24366,26124,28161,40045,37662,0
0.0,0.0,0.0,24414,26099,28133,40045,37622,0
0.0,0.0,0.0,24318,26099,28133,40002,37543,0
0.0,0.0,0.0,24414,26047,28301,40173,37583,0
0.0,0.0,0.0,24462,26124,28161,40045,37543,0
0.0,0.0,0.0,24606,26176,28161,40173,37622,0
0.0,0.0,0.0,24582,26202,28245,40045,37701,0
0.0,0.0,0.0,24702,26202,28301,40088,37622,0
0.0,0.0,0.0,24678,26202,28245,40173,37622,0
0.0,0.0,0.0,24702,26253,28245,40045,37583,0
0.0,0.0,0.0,24727,26253,28301,40173,37622,0
0.0,0.0,0.0,24751,26305,28301,40088,37701,0
0.0,0.0,0.0,24799,26305,28245,40002,37583,0
0.0,0.0,0.0,24799,26331,28245,40045,37622,0
0.0,0.0,0.0,24824,26253,28245,40088,37622,0
0.0,0.0,0.0,24848,26253,28301,40088,37622,0
0.0,0.0,0.0,24848,26253,28301,40131,37543,0
0.0,0.0,0.0,24799,26253,28245,40002,37622,0
0.0,0.0,0.0,24751,26202,28245,40002,37622,0
0.0,0.0,0.0,24727,26150,28245,40045,37543,0
0.0,0.0,0.0,24702,26202,28245,39917,37583,0
0.0,0.0,0.0,24654,26099,28301,40088,37583,0
0.0,0.0,0.0,24534,26099,28189,40002,37543,0
0.0,0.0,0.0,24510,26073,28133,39917,37543,0
0.0,0.0,0.0,24462,26022,28133,40002,37543,0
0.0,0.0,0.0,24414,25996,28189,39917,37583,0
0.0,0.0,0.0,24318,26022,28105,40002,37583,0
0.0,0.0,0.0,24247,25945,28049,39874,37583,0
0.0,0.0,0.0,24294,25920,28161,40002,37543,0
0.0,0.0,0.0,24271,25894,28133,40002,37622,0
0.0,0.0,0.0,24223,25843,28077,39917,37426,0
0.0,0.0,0.0,23964,25793,28133,39960,37465,0
0.0,0.0,0.0,23754,25691,28049,39832,37583,0
0.0,0.0,0.0,23522,25641,27966,39747,37504,0
0.0,0.0,0.0,23477,25641,28022,39832,37543,0
0.0,0.0,0.0,23339,25591,27966,39832,37543,0
0.0,0.0,0.0,23067,25490,27911,39832,37465,0
0.0,0.0,0.0,22932,25440,27939,39790,37426,0
0.0,0.0,0.0,22932,25465,27939,39747,37465,0
0.0,0.0,0.0,23112,25490,27911,39832,37386,0
0.0,0.0,0.0,23248,25540,27966,39747,37543,0
0.0,0.0,0.0,23431,25591,27911,39747,37386,0
0.0,0.0,0.0,23754,25666,27939,39747,37465,0
0.0,0.0,0.0,23847,25691,27966,39917,37426,0
0.0,0.0,0.0,23847,25591,27966,39747,37386,0
0.0,0.0,0.0,23940,25616,27939,39747,37347,0
0.0,0.0,0.0,23894,25641,27966,39874,37426,0
0.0,0.0,0.0,23894,25666,27966,39832,37230,0
0.0,0.0,0.0,23847,25691,28022,39705,37308,0
0.0,0.0,0.0,23800,25691,27966,39747,37426,0
0.0,0.0,0.0,23777,25591,27966,39832,37386,0
0.0,0.0,0.0,23569,25540,27883,39663,37308,0
0.0,0.0,0.0,23225,25490,27911,39747,37269,0
0.0,0.0,0.0,23112,25390,27911,39663,37347,0
0.0,0.0,0.0,22887,25390,27883,39663,37622,0
0.0,0.0,0.0,22621,25316,27800,39663,37662,0
0.0,0.0,0.0,22444,25291,27828,39578,37781,0
0.0,0.0,0.0,22010,25316,27911,39663,37583,0
0.0,0.0,0.0,21818,25291,27800,39705,37543,0
0.0,0.0,0.0,21711,25390,27745,39494,37543,0
0.0,0.0,0.0,21542,25365,27773,39536,37465,0
0.0,0.0,0.0,21312,25390,27745,39452,37741,0
0.0,0.0,0.0,21229,25490,27745,39536,37504,0
0.0,0.0,0.0,21043,25415,27745,39536,37622,0
0.0,0.0,0.0,20920,25440,27745,39494,37465,0
0.0,0.0,0.0,20818,25515,27691,39494,37543,0
0.0,0.0,0.0,20757,25465,27636,39494,37543,0
0.0,0.0,0.0,20737,25490,27691,39494,37386,0
0.0,0.0,0.0,20716,25415,27691,39536,37347,0
0.0,0.0,0.0,20656,25490,27636,39578,37465,0
0.0,0.0,0.0,20676,25515,27581,39494,37426,0
0.0,0.0,0.0,20656,25515,27636,39494,37230,0
0.0,0.0,0.0,20656,25490,27636,39411,37426,0
0.0,0.0,0.0,20676,25490,27609,39536,37386,0
0.0,0.0,0.0,20716,25490,27609,39452,37152,0
0.0,0.0,0.0,21754,25440,27636,39494,37230,0
0.0,0.0,0.0,22313,25390,27691,39327,37308,0
0.0,0.0,0.0,22576,25291,27636,39494,37230,0
0.0,0.0,0.0,22754,25291,27691,39494,37347,0
0.0,0.0,0.0,23248,25341,27636,39494,37269,0
0.0,0.0,0.0,23431,25341,27691,39536,37269,0
0.0,0.0,0.0,23569,25390,27745,39663,37426,0
0.0,0.0,0.0,24034,25591,27691,39578,37386,0
0.0,0.0,0.0,24129,25641,27773,39536,37347,0
0.0,0.0,0.0,24176,25641,27773,39621,37347,0
0.0,0.0,0.0,24223,25641,27800,39621,37426,0
0.0,0.0,0.0,24223,25616,27800,39663,37386,0
0.0,0.0,0.0,24199,25591,27800,39578,37386,0
0.0,0.0,0.0,24152,25591,27828,39494,37347,0
0.0,0.0,0.0,24129,25515,27828,39536,37386,0
0.0,0.0,0.0,24081,25515,27828,39578,37308,0
0.0,0.0,0.0,24034,25540,27856,39578,37308,0
0.0,0.0,0.0,24034,25490,27800,39536,37386,0
0.0,0.0,0.0,24058,25490,27800,39536,37269,0
0.0,0.0,0.0,24034,25490,27800,39578,37347,0
0.0,0.0,0.0,23987,25415,27800,39663,37386,0
0.0,0.0,0.0,23987,25515,27828,39663,37308,0
0.0,0.0,0.0,23987,25490,27800,39663,37426,0
0.0,0.0,0.0,23964,25440,27800,39578,37426,0
0.0,0.0,0.0,23964,25440,27773,39494,37543,0
0.0,0.0,0.0,23940,25490,27800,39494,37622,0
0.0,0.0,0.0,23940,25440,27800,39494,37504,0
0.0,0.0,0.0,23917,25390,27828,39536,37465,0
0.0,0.0,0.0,23894,25390,27828,39578,37465,0
0.0,0.0,0.0,23847,25390,27800,39494,37426,0
0.0,0.0,0.0,23847,25440,27800,39494,37308,0
0.0,0.0,0.0,23847,25390,27828,39536,37230,0
0.0,0.0,0.0,23754,25415,27800,39578,37308,0
0.0,0.0,0.0,23824,25415,27800,39536,37426,0
0.0,0.0,0.0,23894,25440,27745,39452,37504,0
0.0,0.0,0.0,23870,25515,27800,39578,37543,0
0.0,0.0,0.0,23964,25490,27800,39578,37543,0
0.0,0.0,0.0,23964,25515,27800,39494,37543,0
0.0,0.0,0.0,23940,25490,27800,39578,37543,0
0.0,0.0,0.0,23894,25540,27800,39621,37543,0
0.0,0.0,0.0,23894,25465,27800,39621,37308,0
0.0,0.0,0.0,23847,25415,27828,39578,37426,0
0.0,0.0,0.0,23754,25440,27800,39536,37583,0
0.0,0.0,0.0,23707,25440,27773,39536,37465,0
0.0,0.0,0.0,23707,25390,27745,39494,37504,0
0.0,0.0,0.0,23615,25316,27745,39494,37308,0
0.0,0.0,0.0,23592,25341,27718,39494,37308,0
0.0,0.0,0.0,23569,25216,27745,39494,37386,0
0.0,0.0,0.0,23569,25365,27691,39494,37308,0
0.0,0.0,0.0,23522,25390,27745,39494,37308,0
0.0,0.0,0.0,23522,25291,27718,39494,37465,0
0.0,0.0,0.0,23477,25291,27663,39369,37504,0
0.0,0.0,0.0,23385,25216,27691,39494,37465,0
0.0,0.0,0.0,23339,25241,27691,39494,37269,0
0.0,0.0,0.0,23499,25266,27691,39536,37308,0
0.0,0.0,0.0,23638,25390,27718,39494,37152,0
0.0,0.0,0.0,23754,25390,27718,39494,37308,0
0.0,0.0,0.0,23800,25415,27745,39621,37230,0
0.0,0.0,0.0,23940,25440,27800,39494,37152,0
0.0,0.0,0.0,23964,25515,27718,39494,37269,0
0.0,0.0,0.0,23964,25515,27800,39536,37465,0
0.0,0.0,0.0,23987,25591,27691,39494,37543,0
0.0,0.0,0.0,24129,25616,27745,39578,37308,0
0.0,0.0,0.0,24152,25641,27718,39494,37465,0
0.0,0.0,0.0,24223,25641,27773,39494,37543,0
0.0,0.0,0.0,24247,25793,27773,39536,37543,0
0.0,0.0,0.0,24271,25818,27800,39578,37465,0
0.0,0.0,0.0,24271,25894,27883,39494,37465,0
0.0,0.0,0.0,24271,25894,27828,39536,37543,0
0.0,0.0,0.0,24342,25920,27828,39578,37386,0
0.0,0.0,0.0,24318,25818,27800,39494,37781,0
0.0,0.0,0.0,24366,25894,27800,39663,37308,0
0.0,0.0,0.0,24318,25894,27800,39452,37308,0
0.0,0.0,0.0,24318,25894,27800,39494,37269,0
0.0,0.0,0.0,24414,25894,27828,39578,37308,0
0.0,0.0,0.0,24606,26047,27966,39578,37230,0
0.0,0.0,0.0,24558,25996,27856,39494,37386,0
0.0,0.0,0.0,24462,26022,27828,39494,37701,0
0.0,0.0,0.0,24176,25793,27828,39411,37426,0
0.0,0.0,0.0,23707,25591,27745,39411,37543,0
0.0,0.0,0.0,23477,25415,27718,39452,37386,0
0.0,0.0,0.0,23294,25365,27691,39494,37152,0
0.0,0.0,0.0,23135,25316,27691,39327,37152,0
0.0,0.0,0.0,23112,25266,27663,39327,37386,0
0.0,0.0,0.0,22977,25316,27636,39411,37230,0
0.0,0.0,0.0,22887,25291,27663,39452,37230,0
0.0,0.0,0.0,22932,25266,27609,39327,37465,0
0.0,0.0,0.0,22776,25291,27636,39411,37386,0
0.0,0.0,0.0,22776,25192,27691,39327,37230,0
0.0,0.0,0.0,22776,25142,27527,39327,37504,0
0.0,0.0,0.0,22754,25192,27636,39327,37386,0
0.0,0.0,0.0,22709,25142,27636,39411,37308,0
0.0,0.0,0.0,22665,25167,27636,39327,37386,0
0.0,0.0,0.0,22599,25142,27636,39411,37465,0
0.0,0.0,0.0,22488,25142,27581,39411,37230,0
0.0,0.0,0.0,22423,25142,27527,39369,37583,0
0.0,0.0,0.0,22401,25192,27663,39327,37230,0
0.0,0.0,0.0,22401,25093,27581,39369,37347,0
0.0,0.0,0.0,22357,25093,27581,39327,37269,0
0.0,0.0,0.0,22292,25142,27581,39244,37386,0
0.0,0.0,0.0,22096,25142,27527,39327,37230,0
0.0,0.0,0.0,21818,25192,27527,39369,37114,0
0.0,0.0,0.0,21395,25192,27472,39327,37308,0
0.0,0.0,0.0,21146,25241,27445,39327,37308,0
0.0,0.0,0.0,21043,25241,27472,39244,37191,0
0.0,0.0,0.0,21002,25291,27472,39327,37583,0
0.0,0.0,0.0,21043,25241,27472,39244,37075,0
0.0,0.0,0.0,20879,25216,27418,39244,37230,0
0.0,0.0,0.0,20737,25266,27445,39244,37230,0
0.0,0.0,0.0,20716,25291,27445,39327,37269,0
0.0,0.0,0.0,20676,25291,27445,39244,37386,0
0.0,0.0,0.0,20676,25291,27472,39202,37308,0
0.0,0.0,0.0,20615,25291,27472,39244,37386,0
0.0,0.0,0.0,20395,25341,27391,39285,37347,0
0.0,0.0,0.0,20256,25390,27418,39285,37230,0
0.0,0.0,0.0,20236,25365,27418,39244,37269,0
0.0,0.0,0.0,20216,25341,27364,39244,37230,0
0.0,0.0,0.0,20157,25341,27364,39160,37386,0
0.0,0.0,0.0,20117,25415,27364,39077,37075,0
0.0,0.0,0.0,20157,25415,27337,39160,37386,0
0.0,0.0,0.0,20117,25390,27310,39160,37036,0
0.0,0.0,0.0,20117,25390,27310,39160,37036,0
0.0,0.0,0.0,20216,25390,27364,39202,37075,0
0.0,0.0,0.0,20196,25440,27310,38995,36998,0
0.0,0.0,0.0,20315,25415,27310,39119,36998,0
0.0,0.0,0.0,20275,25291,27310,39160,37075,0
0.0,0.0,0.0,20236,25365,27337,39160,37543,0
0.0,0.0,0.0,20176,25341,27310,39077,37152,0
0.0,0.0,0.0,20117,25390,27364,39160,37465,0
0.0,0.0,0.0,19999,25390,27310,39160,37543,0
0.0,0.0,0.0,19999,25316,27283,39077,37543,0
0.0,0.0,0.0,20039,25341,27337,39077,37543,0
0.0,0.0,0.0,19960,25291,27337,39119,37504,0
0.0,0.0,0.0,20019,25316,27310,39077,37386,0
0.0,0.0,0.0,19980,25291,27337,39077,37583,0
0.0,0.0,0.0,19980,25390,27310,39077,37465,0
0.0,0.0,0.0,20039,25291,27310,39077,37543,0
0.0,0.0,0.0,19980,25341,27283,39160,37465,0
0.0,0.0,0.0,19999,25316,27256,39077,37504,0
0.0,0.0,0.0,19863,25316,27283,38995,37386,0
0.0,0.0,0.0,19708,25341,27283,39077,37230,0
0.0,0.0,0.0,19766,25440,27283,39160,36805,0
0.0,0.0,0.0,19824,25465,27256,39119,36920,0
0.0,0.0,0.0,20019,25490,27229,39077,36998,0
0.0,0.0,0.0,20475,25490,27256,38995,36998,0
0.0,0.0,0.0,20636,25390,27256,39077,36920,0
0.0,0.0,0.0,21043,25390,27310,39160,36920,0
0.0,0.0,0.0,21500,25341,27256,39160,36998,0
0.0,0.0,0.0,21839,25291,27202,39077,37622,0
0.0,0.0,0.0,22248,25390,27364,39202,37622,0
0.0,0.0,0.0,22776,25515,27364,39077,37781,0
0.0,0.0,0.0,23112,25616,27527,39411,37036,0
0.0,0.0,0.0,23339,25742,27418,39285,37075,0
0.0,0.0,0.0,23661,25818,27609,39285,37152,0
0.0,0.0,0.0,24271,26176,27718,39369,37269,0
0.0,0.0,0.0,24678,26305,27800,39411,37230,0
0.0,0.0,0.0,24751,26279,27800,39411,37230,0
0.0,0.0,0.0,24702,26202,27828,39411,37114,0
0.0,0.0,0.0,24606,26202,27773,39327,37230,0
0.0,0.0,0.0,24534,26099,27828,39411,37152,0
0.0,0.0,0.0,24534,26099,27745,39369,37075,0
0.0,0.0,0.0,24462,25996,27800,39327,37152,0
0.0,0.0,0.0,24462,25945,27773,39285,37075,0
0.0,0.0,0.0,24414,25945,27828,39244,36998,0
0.0,0.0,0.0,24223,25894,27800,39285,37036,0
0.0,0.0,0.0,24223,25843,27800,39327,37114,0
0.0,0.0,0.0,24176,25793,27745,39327,37114,0
0.0,0.0,0.0,24152,25818,27800,39327,37075,0
0.0,0.0,0.0,24129,25767,27745,39285,37230,0
0.0,0.0,0.0,24058,25717,27745,39244,37075,0
0.0,0.0,0.0,24034,25742,27745,39202,37075,0
0.0,0.0,0.0,23964,25742,27745,39244,37075,0
0.0,0.0,0.0,23894,25666,27691,39285,37230,0
0.0,0.0,0.0,23894,25691,27691,39160,37075,0
0.0,0.0,0.0,23894,25641,27745,39202,37230,0
0.0,0.0,0.0,23894,25616,27691,39244,37386,0
0.0,0.0,0.0,23847,25591,27718,39244,37465,0
0.0,0.0,0.0,23754,25591,27691,39160,37426,0
0.0,0.0,0.0,23754,25565,27691,39160,37308,0
0.0,0.0,0.0,23754,25591,27663,39244,37386,0
0.0,0.0,0.0,23661,25591,27691,39244,37191,0
0.0,0.0,0.0,23730,25440,27636,39327,37075,0
0.0,0.0,0.0,23661,25591,27718,39244,37114,0
0.0,0.0,0.0,23661,25540,27691,39285,37075,0
0.0,0.0,0.0,23615,25465,27691,39244,37114,0
0.0,0.0,0.0,23569,25515,27581,39244,37152,0
0.0,0.0,0.0,23569,25490,27636,39244,37152,0
0.0,0.0,0.0,23569,25490,27609,39160,37543,0
0.0,0.0,0.0,23499,25490,27609,39160,37191,0
0.0,0.0,0.0,23522,25440,27581,39244,37230,0
0.0,0.0,0.0,23592,25490,27581,39327,37114,0
0.0,0.0,0.0,23499,25390,27581,39244,37114,0
0.0,0.0,0.0,23431,25390,27581,39244,37543,0
0.0,0.0,0.0,23454,25440,27636,39285,37152,0
0.0,0.0,0.0,23454,25415,27581,39160,37152,0
0.0,0.0,0.0,23477,25415,27581,39244,37230,0
0.0,0.0,0.0,23477,25390,27609,39160,37075,0
0.0,0.0,0.0,23477,25390,27581,39202,37114,0
0.0,0.0,0.0,23431,25390,27554,39160,37152,0
0.0,0.0,0.0,23477,25415,27581,39160,37152,0
0.0,0.0,0.0,23431,25440,27554,39119,37230,0
0.0,0.0,0.0,23454,25390,27499,39160,37075,0
0.0,0.0,0.0,23431,25341,27581,39160,37114,0
0.0,0.0,0.0,23431,25341,27609,39077,37152,0
0.0,0.0,0.0,23454,25390,27581,39244,37230,0
0.0,0.0,0.0,23431,25341,27636,39244,37230,0
0.0,0.0,0.0,23339,25415,27527,39160,37152,0
0.0,0.0,0.0,23248,25390,27581,39160,37662,0
0.0,0.0,0.0,23294,25365,27527,39160,37269,0
0.0,0.0,0.0,23385,25390,27609,39202,37230,0
0.0,0.0,0.0,23431,25440,27581,39160,37114,0
0.0,0.0,0.0,23431,25440,27581,39036,37386,0
0.0,0.0,0.0,23431,25440,27581,39077,37820,0
0.0,0.0,0.0,23431,25390,27609,39244,37465,0
0.0,0.0,0.0,23385,25465,27527,39036,37543,0
0.0,0.0,0.0,23431,25390,27527,39077,37504,0
0.0,0.0,0.0,23339,25390,27499,38995,37504,0
0.0,0.0,0.0,23316,25390,27581,39077,37701,0
0.0,0.0,0.0,23294,25390,27499,39077,37386,0
0.0,0.0,0.0,23294,25341,27554,39036,37269,0
0.0,0.0,0.0,23225,25341,27472,39160,37230,0
0.0,0.0,0.0,23294,25341,27581,39244,37308,0
0.0,0.0,0.0,23294,25291,27527,39160,37543,0
0.0,0.0,0.0,23203,25291,27527,39202,37741,0
0.0,0.0,0.0,23203,25241,27581,39077,37583,0
0.0,0.0,0.0,23203,25291,27527,39160,37308,0
0.0,0.0,0.0,23203,25266,27554,39160,37386,0
0.0,0.0,0.0,23203,25241,27527,39160,37269,0
0.0,0.0,0.0,23203,25291,27581,39036,37386,0
0.0,0.0,0.0,23157,25291,27554,39119,37269,0
0.0,0.0,0.0,23225,25291,27581,39036,37347,0
0.0,0.0,0.0,23203,25291,27527,39077,37386,0
0.0,0.0,0.0,23203,25216,27527,39119,37504,0
0.0,0.0,0.0,23157,25291,27527,39077,37386,0
0.0,0.0,0.0,23203,25291,27581,39036,37426,0
0.0,0.0,0.0,23135,25291,27527,39077,37504,0
0.0,0.0,0.0,23180,25241,27581,39036,37583,0
0.0,0.0,0.0,23157,25241,27609,39160,37465,0
0.0,0.0,0.0,23180,25241,27499,39077,37583,0
0.0,0.0,0.0,23203,25216,27499,39036,37386,0
0.0,0.0,0.0,23157,25241,27527,39119,37386,0
0.0,0.0,0.0,23180,25291,27527,39119,37308,0
0.0,0.0,0.0,23180,25216,27499,39202,37308,0
0.0,0.0,0.0,23157,25241,27554,39160,37230,0
0.0,0.0,0.0,23203,25266,27581,38995,37347,0
0.0,0.0,0.0,23112,25266,27527,39036,37230,0
0.0,0.0,0.0,23157,25291,27527,38995,37426,0
0.0,0.0,0.0,23157,25291,27499,39077,37386,0
0.0,0.0,0.0,23157,25316,27554,39036,37386,0
0.0,0.0,0.0,23135,25192,27554,39160,37465,0
0.0,0.0,0.0,23135,25216,27527,39119,37426,0
0.0,0.0,0.0,23135,25291,27499,39077,37386,0
0.0,0.0,0.0,23203,25291,27554,39036,37741,0
0.0,0.0,0.0,23044,25291,27499,39036,37543,0
0.0,0.0,0.0,23135,25266,27499,39036,37465,0
0.0,0.0,0.0,23112,25241,27472,38995,37386,0
0.0,0.0,0.0,23157,25216,27527,38995,37386,0
0.0,0.0,0.0,23112,25192,27554,38995,37386,0
0.0,0.0,0.0,23157,25266,27499,39119,37622,0
0.0,0.0,0.0,23112,25266,27499,38995,37426,0
0.0,0.0,0.0,23112,25241,27527,39036,37386,0
0.0,0.0,0.0,23090,25241,27527,39036,37386,0
0.0,0.0,0.0,23112,25192,27499,38995,37386,0
0.0,0.0,0.0,23067,25241,27527,39036,37308,0
0.0,0.0,0.0,23112,25216,27472,39077,37347,0
0.0,0.0,0.0,23090,25216,27472,39077,37347,0
0.0,0.0,0.0,23067,25241,27527,39036,37191,0
0.0,0.0,0.0,23067,25142,27499,39036,37191,0
0.0,0.0,0.0,23112,25216,27472,38995,37230,0
0.0,0.0,0.0,23067,25192,27499,39036,37230,0
0.0,0.0,0.0,23112,25192,27472,39036,37152,0
0.0,0.0,0.0,23067,25266,27527,39077,37152,0
0.0,0.0,0.0,23044,25167,27472,38995,37230,0
0.0,0.0,0.0,23090,25192,27499,38995,37701,0
0.0,0.0,0.0,23044,25192,27527,39160,37386,0
0.0,0.0,0.0,23044,25216,27527,39244,37386,0
0.0,0.0,0.0,23044,25390,27581,39202,37820,0
0.0,0.0,0.0,23090,25390,27527,39244,37820,0
0.0,0.0,0.0,23203,25540,27581,39244,37543,0
0.0,0.0,0.0,23431,25717,27636,39244,37662,0
0.0,0.0,0.0,23522,25793,27636,39285,37701,0
0.0,0.0,0.0,23684,25818,27691,39244,37701,0
0.0,0.0,0.0,23754,25818,27691,39285,37701,0
0.0,0.0,0.0,23917,25996,27745,39327,37940,0
0.0,0.0,0.0,23964,25996,27745,39327,38140,0
0.0,0.0,0.0,23940,25971,27800,39411,38180,0
0.0,0.0,0.0,23964,25996,27773,39369,37860,0
0.0,0.0,0.0,23940,25971,27745,39369,37940,0
0.0,0.0,0.0,23940,25945,27800,39244,37860,0
0.0,0.0,0.0,23824,25920,27745,39327,37900,0
0.0,0.0,0.0,23870,25894,27745,39244,38019,0
0.0,0.0,0.0,23847,25843,27691,39327,38059,0
0.0,0.0,0.0,23940,25843,27691,39244,37741,0
0.0,0.0,0.0,23987,25818,27663,39244,37701,0
0.0,0.0,0.0,24011,25818,27663,39160,37662,0
0.0,0.0,0.0,23964,25843,27636,39160,37583,0
0.0,0.0,0.0,23987,25793,27663,39244,37701,0
0.0,0.0,0.0,23987,25793,27691,39160,37741,0
0.0,0.0,0.0,23964,25793,27636,39244,37622,0
0.0,0.0,0.0,23987,25717,27636,39244,37701,0
0.0,0.0,0.0,23987,25742,27636,39244,37622,0
0.0,0.0,0.0,23987,25717,27609,39160,37583,0
0.0,0.0,0.0,23940,25742,27636,39160,37543,0
0.0,0.0,0.0,23894,25666,27636,39077,37465,0
0.0,0.0,0.0,23894,25641,27636,39244,37543,0
0.0,0.0,0.0,23894,25691,27636,39036,37543,0
0.0,0.0,0.0,23870,25641,27636,39119,37465,0
0.0,0.0,0.0,23800,25565,27581,39077,37504,0
0.0,0.0,0.0,23800,25616,27581,38995,37465,0
0.0,0.0,0.0,23754,25666,27581,39160,37426,0
0.0,0.0,0.0,23777,25591,27581,39077,37386,0
0.0,0.0,0.0,23754,25591,27636,39077,37386,0
0.0,0.0,0.0,23730,25616,27636,39244,37426,0
0.0,0.0,0.0,23707,25540,27581,39077,37426,0
0.0,0.0,0.0,23777,25591,27609,39160,37465,0
0.0,0.0,0.0,23707,25565,27581,39036,37426,0
0.0,0.0,0.0,23707,25540,27581,39119,37386,0
0.0,0.0,0.0,23754,25565,27581,39036,37386,0
0.0,0.0,0.0,23707,25540,27581,39036,37386,0
0.0,0.0,0.0,23684,25515,27581,38995,37386,0
0.0,0.0,0.0,23661,25490,27527,38995,37386,0
0.0,0.0,0.0,23684,25515,27554,38995,37386,0
0.0,0.0,0.0,23730,25490,27581,38995,37386,0
0.0,0.0,0.0,23684,25490,27581,38995,37308,0
0.0,0.0,0.0,23592,25390,27609,39036,37230,0
0.0,0.0,0.0,23522,25490,27554,39036,37230,0
0.0,0.0,0.0,23638,25440,27499,38995,37347,0
0.0,0.0,0.0,23592,25465,27527,38995,37269,0
0.0,0.0,0.0,23546,25465,27527,38995,37230,0
0.0,0.0,0.0,23522,25440,27581,38912,37386,0
0.0,0.0,0.0,23569,25390,27527,39036,37426,0
0.0,0.0,0.0,23477,25440,27554,39036,37465,0
0.0,0.0,0.0,23477,25440,27554,38995,37269,0
0.0,0.0,0.0,23522,25390,27581,38953,37308,0
0.0,0.0,0.0,23477,25390,27499,38912,37465,0
0.0,0.0,0.0,23522,25415,27581,38912,37465,0
0.0,0.0,0.0,23522,25390,27499,38995,37465,0
0.0,0.0,0.0,23477,25390,27581,38912,37386,0
0.0,0.0,0.0,23522,25341,27527,38912,37269,0
0.0,0.0,0.0,23454,25390,27527,39036,37308,0
0.0,0.0,0.0,23477,25440,27527,38871,37269,0
0.0,0.0,0.0,23477,25390,27499,38912,37426,0
0.0,0.0,0.0,23477,25440,27472,38995,37465,0
0.0,0.0,0.0,23592,25490,27527,38995,37386,0
0.0,0.0,0.0,23569,25490,27527,39036,37583,0
0.0,0.0,0.0,23522,25490,27581,38995,37622,0
0.0,0.0,0.0,23522,25465,27581,38912,37426,0
0.0,0.0,0.0,23522,25390,27554,38995,37583,0
0.0,0.0,0.0,23431,25440,27527,39036,37386,0
0.0,0.0,0.0,23477,25490,27499,38912,37386,0
0.0,0.0,0.0,23499,25440,27499,38995,37426,0
0.0,0.0,0.0,23499,25440,27472,38912,37308,0
0.0,0.0,0.0,23522,25465,27527,38953,37386,0
0.0,0.0,0.0,23454,25415,27581,38953,37386,0
0.0,0.0,0.0,23477,25415,27527,38995,37308,0
0.0,0.0,0.0,23431,25490,27499,38995,37504,0
0.0,0.0,0.0,23477,25440,27499,38953,37543,0
0.0,0.0,0.0,23477,25440,27499,38995,37465,0
0.0,0.0,0.0,23522,25390,27527,38995,37465,0
0.0,0.0,0.0,23522,25440,27527,38912,37426,0
0.0,0.0,0.0,23477,25415,27527,38953,37347,0
0.0,0.0,0.0,23431,25440,27499,38912,37386,0
0.0,0.0,0.0,23431,25365,27527,38995,37308,0
0.0,0.0,0.0,23408,25365,27527,38871,37269,0
0.0,0.0,0.0,23477,25440,27499,38830,37662,0
0.0,0.0,0.0,23477,25440,27499,38871,37308,0
0.0,0.0,0.0,23477,25390,27527,38953,37426,0
0.0,0.0,0.0,23477,25390,27472,38912,37386,0
0.0,0.0,0.0,23431,25415,27499,38830,37347,0
0.0,0.0,0.0,23477,25390,27472,38912,37308,0
0.0,0.0,0.0,23431,25440,27499,38871,37269,0
0.0,0.0,0.0,23477,25390,27472,38912,37308,0
0.0,0.0,0.0,23431,25390,27472,38995,37308,0
0.0,0.0,0.0,23431,25390,27472,38995,37230,0
0.0,0.0,0.0,23431,25390,27527,38953,37269,0
0.0,0.0,0.0,23477,25440,27472,38830,37426,0
0.0,0.0,0.0,23522,25440,27499,38912,37269,0
0.0,0.0,0.0,23477,25390,27527,38953,37308,0
0.0,0.0,0.0,23477,25415,27472,38871,37308,0
0.0,0.0,0.0,23431,25390,27472,38912,37386,0
0.0,0.0,0.0,23477,25390,27527,38830,37426,0
0.0,0.0,0.0,23431,25415,27527,38871,37269,0
0.0,0.0,0.0,23385,25390,27472,38871,37543,0
0.0,0.0,0.0,23431,25390,27527,38995,37465,0
0.0,0.0,0.0,23431,25390,27472,38995,37622,0
0.0,0.0,0.0,23385,25390,27472,38912,37543,0
0.0,0.0,0.0,23431,25341,27499,38912,37386,0
0.0,0.0,0.0,23431,25341,27472,38912,37230,0
0.0,0.0,0.0,23431,25341,27472,38912,37308,0
0.0,0.0,0.0,23477,25390,27472,38912,37386,0
0.0,0.0,0.0,23431,25390,27472,38912,37269,0
0.0,0.0,0.0,23339,25390,27527,38953,37308,0
0.0,0.0,0.0,23431,25341,27499,38953,37426,0
0.0,0.0,0.0,23431,25341,27499,38871,37347,0
0.0,0.0,0.0,23431,25390,27527,38871,37543,0
0.0,0.0,0.0,23385,25365,27472,38830,37386,0
0.0,0.0,0.0,23431,25341,27554,38953,37308,0
0.0,0.0,0.0,23339,25365,27472,38830,37543,0
0.0,0.0,0.0,23385,25291,27472,38830,37543,0
0.0,0.0,0.0,23294,25316,27472,38912,37583,0
0.0,0.0,0.0,23157,25216,27418,38912,37465,0
0.0,0.0,0.0,22932,25192,27418,38953,37308,0
0.0,0.0,0.0,22754,25192,27418,38912,37386,0
0.0,0.0,0.0,22665,25142,27337,38830,37347,0
0.0,0.0,0.0,22576,25142,27337,38830,37386,0
0.0,0.0,0.0,22554,25044,27418,38871,37426,0
0.0,0.0,0.0,22554,25093,27418,38830,37191,0
0.0,0.0,0.0,22532,25093,27364,38789,37230,0
0.0,0.0,0.0,22554,25118,27364,38789,37230,0
0.0,0.0,0.0,22532,25093,27364,38912,37269,0
0.0,0.0,0.0,22510,25192,27391,38871,37308,0
0.0,0.0,0.0,22510,25068,27364,38830,37386,0
0.0,0.0,0.0,22488,25044,27391,38830,37114,0
0.0,0.0,0.0,22488,25019,27310,38748,37114,0
0.0,0.0,0.0,22488,25093,27364,38871,37152,0
0.0,0.0,0.0,22510,25093,27283,38830,37269,0
0.0,0.0,0.0,22488,25093,27364,38748,37152,0
0.0,0.0,0.0,22444,25044,27418,38871,37036,0
0.0,0.0,0.0,22488,25044,27337,38830,37075,0
0.0,0.0,0.0,22466,24995,27337,38748,37308,0
0.0,0.0,0.0,22444,25093,27337,38830,37386,0
0.0,0.0,0.0,22335,25044,27364,38830,37308,0
0.0,0.0,0.0,22270,25068,27337,38789,37386,0
0.0,0.0,0.0,22096,25044,27283,38707,37386,0
0.0,0.0,0.0,21903,25044,27337,38666,37114,0
0.0,0.0,0.0,21818,25093,27310,38748,37152,0
0.0,0.0,0.0,21733,25044,27283,38748,37114,0
0.0,0.0,0.0,21690,25068,27310,38830,37308,0
0.0,0.0,0.0,21458,25068,27283,38748,37386,0
0.0,0.0,0.0,21375,25093,27256,38830,37308,0
0.0,0.0,0.0,21312,25044,27256,38789,37269,0
0.0,0.0,0.0,21291,25044,27283,38748,37465,0
0.0,0.0,0.0,21312,25068,27283,38748,36998,0
0.0,0.0,0.0,21291,25068,27310,38830,37543,0
0.0,0.0,0.0,21022,25118,27256,38707,37347,0
0.0,0.0,0.0,20636,25192,27256,38707,37075,0
0.0,0.0,0.0,20555,25142,27229,38707,37075,0
0.0,0.0,0.0,20515,25192,27148,38666,37152,0
0.0,0.0,0.0,20696,25192,27229,38707,36998,0
0.0,0.0,0.0,20879,25118,27202,38830,36959,0
0.0,0.0,0.0,20716,25142,27229,38666,37075,0
0.0,0.0,0.0,20475,25216,27175,38666,37036,0
0.0,0.0,0.0,20395,25216,27175,38666,36998,0
0.0,0.0,0.0,20315,25291,27175,38544,36843,0
0.0,0.0,0.0,19708,25565,27148,38625,36920,0
0.0,0.0,0.0,19573,25490,27175,38544,36882,0
0.0,0.0,0.0,19535,25515,27175,38666,36805,0
0.0,0.0,0.0,19535,25440,27175,38707,36920,0
0.0,0.0,0.0,19746,25490,27148,38625,36920,0
0.0,0.0,0.0,20137,25440,27175,38666,36959,0
0.0,0.0,0.0,20676,25316,27202,38707,36959,0
0.0,0.0,0.0,21291,25291,27202,38666,37075,0
0.0,0.0,0.0,22010,25118,27256,38707,37230,0
0.0,0.0,0.0,22576,25241,27337,38748,37269,0
0.0,0.0,0.0,22887,25316,27364,38830,37191,0
0.0,0.0,0.0,23135,25390,27445,38789,37230,0
0.0,0.0,0.0,23385,25440,27472,38830,37308,0
0.0,0.0,0.0,23569,25641,27472,38830,37308,0
0.0,0.0,0.0,23661,25591,27527,38871,37191,0
0.0,0.0,0.0,23824,25616,27499,38830,37308,0
0.0,0.0,0.0,23964,25691,27527,38953,37191,0
0.0,0.0,0.0,23987,25742,27581,38871,37230,0
0.0,0.0,0.0,23894,25691,27499,38871,37191,0
0.0,0.0,0.0,23917,25641,27581,38830,37230,0
0.0,0.0,0.0,23847,25641,27527,38871,37114,0
0.0,0.0,0.0,23847,25591,27499,38830,37230,0
0.0,0.0,0.0,23824,25616,27472,38830,37152,0
0.0,0.0,0.0,23777,25565,27527,38871,37075,0
0.0,0.0,0.0,23754,25591,27527,38830,37191,0
0.0,0.0,0.0,23661,25515,27527,38830,37075,0
0.0,0.0,0.0,23661,25490,27527,38871,37114,0
0.0,0.0,0.0,23661,25490,27472,38830,37152,0
0.0,0.0,0.0,23592,25390,27527,38871,37152,0
0.0,0.0,0.0,23569,25490,27472,38830,37152,0
0.0,0.0,0.0,23615,25415,27472,38871,37075,0
0.0,0.0,0.0,23569,25390,27472,38830,37075,0
0.0,0.0,0.0,23522,25390,27472,38830,37036,0
0.0,0.0,0.0,23477,25390,27472,38871,37114,0
0.0,0.0,0.0,23431,25316,27472,38789,37386,0
0.0,0.0,0.0,23408,25365,27472,38748,37152,0
0.0,0.0,0.0,23408,25291,27472,38789,37191,0
0.0,0.0,0.0,23339,25241,27418,38748,37386,0
0.0,0.0,0.0,23316,25241,27472,38748,37230,0
0.0,0.0,0.0,23294,25192,27418,38871,37152,0
0.0,0.0,0.0,23248,25241,27472,38748,37426,0
0.0,0.0,0.0,23294,25192,27445,38789,37152,0
0.0,0.0,0.0,23248,25216,27418,38830,37075,0
0.0,0.0,0.0,23225,25192,27472,38830,36998,0
0.0,0.0,0.0,23248,25291,27391,38707,37543,0
0.0,0.0,0.0,23294,25216,27418,38748,37075,0
0.0,0.0,0.0,23294,25291,27418,38830,37114,0
0.0,0.0,0.0,23271,25266,27418,38748,37152,0
0.0,0.0,0.0,23316,25216,27418,38748,37152,0
0.0,0.0,0.0,23294,25216,27418,38912,37191,0
0.0,0.0,0.0,23248,25241,27418,38830,37114,0
0.0,0.0,0.0,23225,25241,27418,38830,37230,0
0.0,0.0,0.0,23225,25216,27418,38789,37426,0
0.0,0.0,0.0,23203,25216,27418,38830,37269,0
0.0,0.0,0.0,23203,25192,27418,38830,37152,0
0.0,0.0,0.0,23157,25192,27418,38748,37075,0
0.0,0.0,0.0,23112,25142,27418,38748,37075,0
0.0,0.0,0.0,23135,25192,27418,38707,37036,0
0.0,0.0,0.0,23112,25118,27337,38666,37036,0
0.0,0.0,0.0,23112,25118,27364,38707,36920,0
0.0,0.0,0.0,23135,25192,27364,38789,36920,0
0.0,0.0,0.0,23112,25118,27418,38789,37114,0
0.0,0.0,0.0,23157,25093,27364,38830,37036,0
0.0,0.0,0.0,23044,25142,27364,38748,37075,0
0.0,0.0,0.0,23135,25192,27418,38748,36959,0
0.0,0.0,0.0,23112,25142,27391,38748,36920,0
0.0,0.0,0.0,23112,25142,27391,38666,36998,0
0.0,0.0,0.0,23112,25118,27418,38830,37075,0
0.0,0.0,0.0,23090,25118,27391,38666,37308,0
0.0,0.0,0.0,23090,25142,27391,38666,37114,0
0.0,0.0,0.0,23044,25142,27364,38707,37075,0
0.0,0.0,0.0,23112,25093,27391,38707,37036,0
0.0,0.0,0.0,23112,25093,27310,38748,37308,0
0.0,0.0,0.0,23044,25093,27283,38666,37269,0
