GyroX,GyroY,GyroZ,Thumb,Index,Middle,Ring,Pinky,Gesture
0.0,0.0,0.0,22053,11553,9599,11109,41667,4
0.0,0.0,0.0,22053,11553,9621,11121,41488,4
0.0,0.0,0.0,22053,11553,9610,11121,41443,4
0.0,0.0,0.0,22075,11565,9599,11109,41488,4
0.0,0.0,0.0,22075,11565,9599,11133,41399,4
0.0,0.0,0.0,22075,11578,9599,11109,41488,4
0.0,0.0,0.0,22053,11628,9588,11121,41622,4
0.0,0.0,0.0,22053,11615,9599,11121,41622,4
0.0,0.0,0.0,22010,11590,9621,11109,41488,4
0.0,0.0,0.0,22010,11565,9599,11133,41757,4
0.0,0.0,0.0,21967,11565,9599,11133,41221,4
0.0,0.0,0.0,22010,11578,9588,11121,41221,4
0.0,0.0,0.0,22010,11553,9577,11133,41399,4
0.0,0.0,0.0,22010,11565,9599,11109,41221,4
0.0,0.0,0.0,22010,11578,9599,11133,41221,4
0.0,0.0,0.0,22010,11603,9599,11109,41399,4
0.0,0.0,0.0,22010,11565,9599,11109,41309,4
0.0,0.0,0.0,22010,11565,9588,11109,41221,4
0.0,0.0,0.0,22010,11578,9599,11109,41221,4
0.0,0.0,0.0,22010,11603,9599,11133,41132,4
0.0,0.0,0.0,21903,11590,9621,11109,41176,4
0.0,0.0,0.0,22010,11615,9588,11109,41265,4
0.0,0.0,0.0,22010,11603,9588,11109,41221,4
0.0,0.0,0.0,21924,11603,9577,11133,41088,4
0.0,0.0,0.0,21967,11603,9599,11109,41265,4
0.0,0.0,0.0,22010,11603,9599,11133,41221,4
0.0,0.0,0.0,22010,11603,9599,11109,41221,4
0.0,0.0,0.0,22010,11603,9588,11121,41132,4
0.0,0.0,0.0,22010,11578,9599,11133,41221,4
0.0,0.0,0.0,22010,11590,9599,11109,41088,4
0.0,0.0,0.0,22010,11578,9588,11109,41088,4
0.0,0.0,0.0,21967,11553,9599,11109,41088,4
0.0,0.0,0.0,22010,11553,9599,11109,41309,4
0.0,0.0,0.0,21967,11515,9577,11109,41044,4
0.0,0.0,0.0,21924,11528,9588,11109,41044,4
0.0,0.0,0.0,22010,11528,9588,11109,41176,4
0.0,0.0,0.0,22010,11503,9599,11109,41221,4
0.0,0.0,0.0,21946,11503,9588,11109,41088,4
0.0,0.0,0.0,21882,11503,9599,11109,41221,4
0.0,0.0,0.0,21882,11528,9621,11109,41132,4
0.0,0.0,0.0,21924,11503,9599,11109,40868,4
0.0,0.0,0.0,21882,11528,9599,11109,40780,4
0.0,0.0,0.0,21882,11528,9588,11109,40780,4
0.0,0.0,0.0,21882,11528,9599,11133,40736,4
0.0,0.0,0.0,21882,11528,9588,11109,40693,4
0.0,0.0,0.0,21946,11528,9599,11109,40605,4
0.0,0.0,0.0,21882,11553,9599,11109,40562,4
0.0,0.0,0.0,21860,11528,9599,11084,40562,4
0.0,0.0,0.0,21903,11528,9610,11084,40693,4
0.0,0.0,0.0,21882,11503,9588,11109,40562,4
0.0,0.0,0.0,21903,11528,9599,11109,40605,4
0.0,0.0,0.0,21839,11528,9610,11133,40562,4
0.0,0.0,0.0,21903,11503,9588,11133,40912,4
0.0,0.0,0.0,21903,11465,9621,11109,40912,4
0.0,0.0,0.0,21924,11478,9588,11133,40868,4
0.0,0.0,0.0,21818,11465,9621,11133,40868,4
0.0,0.0,0.0,21839,11503,9588,11133,41221,4
0.0,0.0,0.0,21839,11453,9599,11157,40736,4
0.0,0.0,0.0,21882,11453,9588,11133,41044,4
0.0,0.0,0.0,21818,11453,9588,11133,41088,4
0.0,0.0,0.0,21818,11403,9588,11121,40780,4
0.0,0.0,0.0,21796,11366,9610,11121,40693,4
0.0,0.0,0.0,21796,11379,9588,11121,40605,4
0.0,0.0,0.0,21754,11391,9599,11109,40519,4
0.0,0.0,0.0,21754,11366,9588,11109,40736,4
0.0,0.0,0.0,21711,11379,9588,11084,40389,4
0.0,0.0,0.0,21711,11403,9599,11109,40432,4
0.0,0.0,0.0,21711,11391,9599,11084,40216,4
0.0,0.0,0.0,21711,11391,9599,11109,40346,4
0.0,0.0,0.0,21711,11391,9599,11084,40389,4
0.0,0.0,0.0,21711,11403,9588,11084,40173,4
0.0,0.0,0.0,21733,11403,9599,11072,40259,4
0.0,0.0,0.0,21648,11403,9588,11109,40216,4
0.0,0.0,0.0,21648,11403,9588,11096,40346,4
0.0,0.0,0.0,21711,11403,9577,11084,40346,4
0.0,0.0,0.0,21648,11403,9599,11084,40346,4
0.0,0.0,0.0,21733,11416,9599,11084,40259,4
0.0,0.0,0.0,21648,11453,9621,11084,40693,4
0.0,0.0,0.0,21711,11453,9599,11084,40693,4
0.0,0.0,0.0,21648,11428,9621,11109,40649,4
0.0,0.0,0.0,21669,11453,9588,11096,40605,4
0.0,0.0,0.0,21711,11428,9610,11109,40649,4
0.0,0.0,0.0,21648,11453,9599,11109,40562,4
0.0,0.0,0.0,21690,11453,9599,11109,40868,4
0.0,0.0,0.0,21733,11453,9599,11109,41667,4
0.0,0.0,0.0,21711,11478,9588,11109,40955,4
0.0,0.0,0.0,21711,11478,9588,11084,40912,4
0.0,0.0,0.0,21690,11478,9599,11072,41221,4
0.0,0.0,0.0,21711,11478,9610,11109,41088,4
0.0,0.0,0.0,21711,11465,9599,11060,41221,4
0.0,0.0,0.0,21711,11465,9599,11109,40868,4
0.0,0.0,0.0,21669,11453,9599,11109,40955,4
0.0,0.0,0.0,21711,11490,9599,11109,40868,4
0.0,0.0,0.0,21711,11453,9588,11109,40868,4
0.0,0.0,0.0,21711,11453,9577,11084,40868,4
0.0,0.0,0.0,21711,11478,9599,11109,40605,4
0.0,0.0,0.0,21733,11453,9621,11109,40693,4
0.0,0.0,0.0,21669,11453,9588,11096,40955,4
0.0,0.0,0.0,21711,11453,9588,11072,41000,4
0.0,0.0,0.0,21711,11453,9599,11109,40780,4
0.0,0.0,0.0,21711,11478,9599,11109,41044,4
0.0,0.0,0.0,21711,11478,9599,11109,41044,4
0.0,0.0,0.0,21711,11478,9588,11096,40868,4
0.0,0.0,0.0,21711,11453,9599,11109,40868,4
0.0,0.0,0.0,21711,11465,9599,11109,40693,4
0.0,0.0,0.0,21648,11503,9599,11109,40605,4
0.0,0.0,0.0,21711,11453,9599,11109,40605,4
0.0,0.0,0.0,21669,11465,9599,11109,40519,4
0.0,0.0,0.0,21711,11465,9588,11109,40693,4
0.0,0.0,0.0,21648,11465,9599,11109,40736,4
0.0,0.0,0.0,21711,11453,9599,11084,40780,4
0.0,0.0,0.0,21648,11490,9621,11109,40824,4
0.0,0.0,0.0,21711,11503,9599,11109,40519,4
0.0,0.0,0.0,21648,11503,9588,11109,40302,4
0.0,0.0,0.0,21882,11503,9599,11109,40519,4
0.0,0.0,0.0,21882,11453,9621,11109,40519,4
0.0,0.0,0.0,21860,11453,9599,11109,40346,4
0.0,0.0,0.0,21882,11478,9588,11109,40432,4
0.0,0.0,0.0,21924,11515,9577,11109,40519,4
0.0,0.0,0.0,22010,11528,9588,11109,40562,4
0.0,0.0,0.0,22010,11528,9588,11109,40562,4
0.0,0.0,0.0,22010,11553,9599,11109,40346,4
0.0,0.0,0.0,22010,11528,9621,11109,40389,4
0.0,0.0,0.0,21924,11528,9621,11109,40432,4
0.0,0.0,0.0,21924,11528,9588,11109,40389,4
0.0,0.0,0.0,21946,11515,9599,11109,40346,4
0.0,0.0,0.0,21839,11528,9599,11109,40346,4
0.0,0.0,0.0,21882,11528,9588,11109,40475,4
0.0,0.0,0.0,21882,11503,9588,11084,40346,4
0.0,0.0,0.0,21818,11478,9588,11109,40519,4
0.0,0.0,0.0,21839,11465,9599,11109,40259,4
0.0,0.0,0.0,21882,11453,9577,11109,40259,4
0.0,0.0,0.0,21818,11465,9588,11060,40131,4
0.0,0.0,0.0,21796,11478,9599,11109,40259,4
0.0,0.0,0.0,21754,11478,9610,11109,40346,4
0.0,0.0,0.0,21796,11465,9621,11109,40346,4
0.0,0.0,0.0,21818,11478,9599,11109,40173,4
0.0,0.0,0.0,21796,11478,9577,11096,40259,4
0.0,0.0,0.0,21775,11465,9588,11096,40173,4
0.0,0.0,0.0,21711,11465,9599,11109,40173,4
0.0,0.0,0.0,21775,11453,9610,11109,40346,4
0.0,0.0,0.0,21754,11453,9599,11109,40216,4
0.0,0.0,0.0,21733,11453,9599,11109,40519,4
0.0,0.0,0.0,21711,11453,9577,11109,40519,4
0.0,0.0,0.0,21648,11465,9577,11109,40780,4
0.0,0.0,0.0,21627,11665,9632,11206,40432,4
0.0,0.0,0.0,21500,11728,9946,11255,39874,4
0.0,0.0,0.0,21479,11804,9890,11280,39077,4
0.0,0.0,0.0,21500,11830,9666,11280,38422,4
0.0,0.0,0.0,21500,11754,9621,11304,37940,4
0.0,0.0,0.0,21437,11578,9599,11255,37543,4
0.0,0.0,0.0,21395,11440,9599,11255,37543,4
0.0,0.0,0.0,21375,11403,9599,11219,37504,4
0.0,0.0,0.0,21375,11403,9599,11219,37701,4
0.0,0.0,0.0,21395,11391,9599,11219,37543,4
0.0,0.0,0.0,21375,11403,9599,11206,37543,4
0.0,0.0,0.0,21375,11403,9621,11206,37114,4
0.0,0.0,0.0,21375,11416,9643,11182,37114,4
0.0,0.0,0.0,21395,11416,9666,11182,36998,4
0.0,0.0,0.0,21333,11453,9688,11170,36920,4
0.0,0.0,0.0,21291,11428,9710,11182,37781,4
0.0,0.0,0.0,21312,11428,9755,11182,37781,4
0.0,0.0,0.0,21291,11428,9777,11145,38019,4
0.0,0.0,0.0,21291,11416,9800,11182,38341,4
0.0,0.0,0.0,21437,11453,9980,11121,39244,4
0.0,0.0,0.0,21416,11453,10094,11084,39327,4
0.0,0.0,0.0,21333,11416,9958,11157,38341,4
0.0,0.0,0.0,21375,11453,9890,11206,38059,4
0.0,0.0,0.0,21291,11416,9733,11182,37622,4
0.0,0.0,0.0,21250,11366,9677,11182,37543,4
0.0,0.0,0.0,21291,11354,9643,11182,37543,4
0.0,0.0,0.0,21208,11329,9632,11206,37465,4
0.0,0.0,0.0,21291,11354,9621,11182,37386,4
0.0,0.0,0.0,21270,11354,9643,11170,37347,4
0.0,0.0,0.0,21229,11354,9643,11170,37543,4
0.0,0.0,0.0,21250,11354,9643,11157,37583,4
0.0,0.0,0.0,21270,11379,9621,11121,37583,4
0.0,0.0,0.0,21291,11366,9632,11170,37701,4
0.0,0.0,0.0,21250,11354,9632,11157,37583,4
0.0,0.0,0.0,21229,11366,9632,11157,37543,4
0.0,0.0,0.0,21312,11354,9643,11133,37622,4
0.0,0.0,0.0,21291,11341,9621,11157,37543,4
0.0,0.0,0.0,21250,11366,9632,11133,37860,4
0.0,0.0,0.0,21270,11354,9666,11133,37980,4
0.0,0.0,0.0,21270,11403,9688,11121,38341,4
0.0,0.0,0.0,21291,11391,9733,11157,38341,4
0.0,0.0,0.0,21312,11615,9733,11109,38995,4
0.0,0.0,0.0,21291,11653,9666,11060,39160,4
0.0,0.0,0.0,21250,11653,9621,11084,39202,4
0.0,0.0,0.0,21250,11615,9621,11133,39494,4
0.0,0.0,0.0,21208,11603,9610,11182,39578,4
0.0,0.0,0.0,21167,11553,9610,11157,39411,4
0.0,0.0,0.0,21167,11453,9610,11157,39494,4
0.0,0.0,0.0,21146,11428,9588,11170,39244,4
0.0,0.0,0.0,21167,11453,9599,11109,39327,4
0.0,0.0,0.0,21167,11478,9599,11109,39285,4
0.0,0.0,0.0,21146,11453,9599,11109,39327,4
0.0,0.0,0.0,21125,11478,9621,11109,38503,4
0.0,0.0,0.0,21146,11503,9621,11157,38382,4
0.0,0.0,0.0,21167,11503,9599,11109,38422,4
0.0,0.0,0.0,21187,11503,9599,11109,38260,4
0.0,0.0,0.0,21208,11478,9588,11109,38871,4
0.0,0.0,0.0,21208,11478,9610,11121,38585,4
0.0,0.0,0.0,21187,11465,9577,11109,38544,4
0.0,0.0,0.0,21208,11465,9599,11109,38503,4
0.0,0.0,0.0,21167,11503,9577,11109,38422,4
0.0,0.0,0.0,21146,11528,9599,11109,38301,4
0.0,0.0,0.0,21229,11515,9588,11109,38382,4
0.0,0.0,0.0,21146,11503,9599,11109,38341,4
0.0,0.0,0.0,21146,11528,9588,11109,38180,4
0.0,0.0,0.0,21125,11528,9588,11072,38260,4
0.0,0.0,0.0,21208,11553,9588,11109,38220,4
0.0,0.0,0.0,21125,11553,9599,11060,38180,4
0.0,0.0,0.0,21105,11515,9621,11060,38180,4
0.0,0.0,0.0,21125,11553,9621,11072,38140,4
0.0,0.0,0.0,21125,11528,9610,11121,38220,4
0.0,0.0,0.0,21084,11515,9599,11206,39119,4
0.0,0.0,0.0,21064,11453,9599,11206,38871,4
0.0,0.0,0.0,20920,11317,9621,11182,38544,4
0.0,0.0,0.0,20899,11268,9599,11182,38503,4
0.0,0.0,0.0,20859,11231,9599,11157,38382,4
0.0,0.0,0.0,20798,11170,9599,11145,38341,4
0.0,0.0,0.0,20716,11133,9621,11133,38260,4
0.0,0.0,0.0,20716,11133,9599,11157,38422,4
0.0,0.0,0.0,20696,11157,9599,11133,38341,4
0.0,0.0,0.0,20757,11133,9588,11109,38341,4
0.0,0.0,0.0,20696,11157,9588,11121,38382,4
0.0,0.0,0.0,20676,11157,9621,11133,38422,4
0.0,0.0,0.0,20716,11157,9599,11121,38544,4
0.0,0.0,0.0,20676,11206,9588,11121,38503,4
0.0,0.0,0.0,20696,11206,9599,11109,38422,4
0.0,0.0,0.0,20676,11219,9588,11109,38666,4
0.0,0.0,0.0,20676,11255,9610,11109,38748,4
0.0,0.0,0.0,20676,11219,9599,11133,38503,4
0.0,0.0,0.0,20676,11206,9599,11109,38544,4
0.0,0.0,0.0,20716,11231,9577,11109,38544,4
0.0,0.0,0.0,20716,11231,9610,11084,38503,4
0.0,0.0,0.0,20656,11231,9599,11084,38585,4
0.0,0.0,0.0,20676,11219,9588,11072,38544,4
0.0,0.0,0.0,20676,11255,9621,11109,38503,4
0.0,0.0,0.0,20676,11280,9599,11084,38503,4
0.0,0.0,0.0,20676,11304,9599,11084,38422,4
0.0,0.0,0.0,20716,11341,9599,11060,38585,4
0.0,0.0,0.0,20656,11379,9610,11036,38585,4
0.0,0.0,0.0,20676,11453,9621,11060,38707,4
0.0,0.0,0.0,20495,11453,10267,11182,37940,4
0.0,0.0,0.0,20475,11379,10071,11206,37543,4
0.0,0.0,0.0,20415,11366,9946,11206,37075,4
0.0,0.0,0.0,20295,11354,9688,11194,36538,4
0.0,0.0,0.0,20275,11317,9621,11206,36462,4
0.0,0.0,0.0,20256,11304,9599,11182,36310,4
0.0,0.0,0.0,20236,11292,9599,11182,36310,4
0.0,0.0,0.0,20275,11280,9599,11182,36462,4
0.0,0.0,0.0,20196,11280,9588,11157,36348,4
0.0,0.0,0.0,20315,11304,9599,11157,36462,4
0.0,0.0,0.0,20335,11255,9599,11133,36690,4
0.0,0.0,0.0,20395,11268,9599,11121,36690,4
0.0,0.0,0.0,20395,11268,9610,11121,36767,4
0.0,0.0,0.0,20435,11268,9588,11109,36843,4
0.0,0.0,0.0,20435,11268,9621,11109,36728,4
0.0,0.0,0.0,20375,11255,9610,11109,36690,4
0.0,0.0,0.0,20395,11280,9588,11096,36767,4
0.0,0.0,0.0,20415,11268,9588,11084,36805,4
0.0,0.0,0.0,20415,11280,9599,11084,37152,4
0.0,0.0,0.0,20475,11280,9599,11072,37347,4
0.0,0.0,0.0,20515,11280,9599,11060,37308,4
0.0,0.0,0.0,20475,11280,9599,11024,36767,4
0.0,0.0,0.0,20495,11280,9599,11036,36690,4
0.0,0.0,0.0,20475,11280,9599,11036,36690,4
0.0,0.0,0.0,20435,11280,9599,11024,36538,4
0.0,0.0,0.0,20415,11280,9599,11036,36576,4
0.0,0.0,0.0,20435,11304,9577,11036,36538,4
0.0,0.0,0.0,20395,11304,9621,11024,36499,4
0.0,0.0,0.0,20495,11304,9588,11024,36728,4
0.0,0.0,0.0,20515,11304,9588,11024,36843,4
0.0,0.0,0.0,20515,11304,9621,11024,36920,4
0.0,0.0,0.0,20555,11329,9588,11012,37075,4
0.0,0.0,0.0,20595,11317,9621,11012,37191,4
0.0,0.0,0.0,20575,11329,9588,10975,37191,4
0.0,0.0,0.0,20595,11329,9599,10975,37347,4
0.0,0.0,0.0,20676,11403,9577,10987,37543,4
0.0,0.0,0.0,20676,11403,9621,10963,37269,4
0.0,0.0,0.0,20636,11354,9632,10987,37114,4
0.0,0.0,0.0,20676,11354,9621,10987,36920,4
0.0,0.0,0.0,20636,11304,9621,10987,36805,4
0.0,0.0,0.0,20595,11304,9621,10987,36767,4
0.0,0.0,0.0,20595,11304,9621,11012,36843,4
0.0,0.0,0.0,20595,11317,9621,11012,36690,4
0.0,0.0,0.0,20595,11329,9621,10987,36767,4
0.0,0.0,0.0,20595,11379,9599,10987,36690,4
0.0,0.0,0.0,20636,11354,9610,10987,36843,4
0.0,0.0,0.0,20636,11354,9610,10987,36920,4
0.0,0.0,0.0,20636,11366,9610,10999,36843,4
0.0,0.0,0.0,20636,11416,9588,10975,36920,4
0.0,0.0,0.0,20636,11465,9588,11012,36998,4
0.0,0.0,0.0,20595,11453,9599,10975,36843,4
0.0,0.0,0.0,20555,11453,9588,10975,36882,4
0.0,0.0,0.0,20575,11478,9599,10963,36959,4
0.0,0.0,0.0,20555,11453,9588,10963,37114,4
0.0,0.0,0.0,20656,11528,9610,10975,37543,4
0.0,0.0,0.0,20595,11553,9599,11012,37426,4
0.0,0.0,0.0,20818,11578,9610,11072,37940,4
0.0,0.0,0.0,21022,11578,9599,11145,38422,4
0.0,0.0,0.0,21043,11653,9621,11072,38748,4
0.0,0.0,0.0,21064,11703,9599,11109,38666,4
0.0,0.0,0.0,21125,11603,9599,11133,39705,4
0.0,0.0,0.0,21125,11453,9599,11072,39036,4
0.0,0.0,0.0,21125,11379,9599,11060,39244,4
0.0,0.0,0.0,21043,11206,9599,11012,39036,4
0.0,0.0,0.0,20981,11072,9577,10963,39160,4
0.0,0.0,0.0,20940,10975,9599,10927,38707,4
0.0,0.0,0.0,20757,10951,9588,10927,39327,4
0.0,0.0,0.0,20757,10915,9588,10915,39369,4
0.0,0.0,0.0,20757,10927,9588,10915,39160,4
0.0,0.0,0.0,20737,10915,9588,10891,39621,4
0.0,0.0,0.0,20716,10927,9599,10891,39494,4
0.0,0.0,0.0,20737,10879,9588,10867,39663,4
0.0,0.0,0.0,21043,10843,9588,10879,39327,4
0.0,0.0,0.0,21146,10867,9599,10915,39369,4
0.0,0.0,0.0,21105,10855,9610,10915,39119,4
0.0,0.0,0.0,20981,10843,9588,10939,38912,4
0.0,0.0,0.0,20961,10867,9599,10963,38912,4
0.0,0.0,0.0,20838,10891,9588,10987,38666,4
0.0,0.0,0.0,20981,10891,9588,10987,38666,4
0.0,0.0,0.0,21125,10879,9621,10987,38544,4
0.0,0.0,0.0,21167,10879,9599,11012,39036,4
0.0,0.0,0.0,21167,10867,9599,10963,39369,4
0.0,0.0,0.0,21208,10891,9588,10987,39202,4
0.0,0.0,0.0,21208,10891,9588,10975,39536,4
0.0,0.0,0.0,21250,10891,9588,10963,39790,4
0.0,0.0,0.0,21208,10867,9599,10963,40955,4
0.0,0.0,0.0,21105,10867,9588,10975,40562,4
0.0,0.0,0.0,21043,10867,9599,10963,40389,4
0.0,0.0,0.0,20981,10867,9577,10963,40045,4
0.0,0.0,0.0,20961,10867,9599,10963,39874,4
0.0,0.0,0.0,20961,10867,9599,10963,39874,4
0.0,0.0,0.0,20940,10867,9599,10963,39747,4
0.0,0.0,0.0,20920,10867,9599,10963,39663,4
0.0,0.0,0.0,20961,10879,9599,10963,39411,4
0.0,0.0,0.0,20899,10915,9588,10963,39494,4
0.0,0.0,0.0,20940,10927,9599,10975,39411,4
0.0,0.0,0.0,20961,10951,9599,10963,39369,4
0.0,0.0,0.0,20961,10939,9599,10963,39327,4
0.0,0.0,0.0,20961,10963,9588,10951,39578,4
0.0,0.0,0.0,20961,10987,9599,10963,39494,4
0.0,0.0,0.0,21002,10987,9599,10939,39536,4
0.0,0.0,0.0,20981,11012,9577,10963,39494,4
0.0,0.0,0.0,21125,11012,9588,10963,39663,4
0.0,0.0,0.0,21125,11060,9599,10963,39832,4
0.0,0.0,0.0,21146,11060,9599,10939,39832,4
0.0,0.0,0.0,21084,11060,9599,10963,39747,4
0.0,0.0,0.0,21105,11109,9588,10951,39705,4
0.0,0.0,0.0,21125,11072,9599,10939,39663,4
0.0,0.0,0.0,21084,11072,9588,10939,39494,4
0.0,0.0,0.0,21064,11109,9588,10915,39578,4
0.0,0.0,0.0,21125,11072,9588,10915,39578,4
0.0,0.0,0.0,21105,11109,9599,10915,39536,4
0.0,0.0,0.0,21043,11109,9599,10939,39578,4
0.0,0.0,0.0,21043,11109,9621,10915,39536,4
0.0,0.0,0.0,20981,11109,9588,10915,39327,4
0.0,0.0,0.0,20981,11109,9599,10927,39327,4
0.0,0.0,0.0,20981,11109,9599,10963,38995,4
0.0,0.0,0.0,20940,11060,9588,10975,39452,4
0.0,0.0,0.0,20798,11024,9599,10963,39119,4
0.0,0.0,0.0,20798,11036,9577,10975,38995,4
0.0,0.0,0.0,20798,11024,9599,10963,38912,4
0.0,0.0,0.0,20757,11036,9599,10963,38625,4
0.0,0.0,0.0,20777,11012,9588,10939,38748,4
0.0,0.0,0.0,20798,11024,9588,10963,38707,4
0.0,0.0,0.0,20798,11036,9599,10939,38585,4
0.0,0.0,0.0,20798,11060,9599,10927,38748,4
0.0,0.0,0.0,20737,11060,9599,10939,38585,4
0.0,0.0,0.0,20798,11060,9599,10915,38748,4
0.0,0.0,0.0,20798,11072,9599,10915,38463,4
0.0,0.0,0.0,20798,11060,9588,10915,38463,4
0.0,0.0,0.0,20798,11072,9599,10891,38422,4
0.0,0.0,0.0,20818,11084,9588,10915,38180,4
0.0,0.0,0.0,20798,11072,9599,10915,38140,4
0.0,0.0,0.0,20818,11133,9588,10891,38220,4
0.0,0.0,0.0,20798,11121,9599,10915,38019,4
0.0,0.0,0.0,20798,11157,9588,10927,37860,4
0.0,0.0,0.0,20838,11121,9599,10963,38503,4
0.0,0.0,0.0,21043,11157,9621,10987,38341,4
0.0,0.0,0.0,20961,11109,9588,10963,38220,4
0.0,0.0,0.0,21002,11109,9599,10987,38260,4
0.0,0.0,0.0,20981,11072,9599,10987,38059,4
0.0,0.0,0.0,21043,11060,9599,11012,38260,4
0.0,0.0,0.0,20940,11060,9599,11012,37940,4
0.0,0.0,0.0,20818,11024,9588,11012,37940,4
0.0,0.0,0.0,20879,11060,9599,10987,37940,4
0.0,0.0,0.0,20838,11060,9599,10963,38059,4
0.0,0.0,0.0,20879,11036,9610,10963,37781,4
0.0,0.0,0.0,20981,11012,9599,10987,37622,4
0.0,0.0,0.0,20920,11036,9588,11060,37465,4
0.0,0.0,0.0,20859,11024,9577,11036,37465,4
0.0,0.0,0.0,20961,11036,9599,11024,37269,4
0.0,0.0,0.0,20879,11060,9588,11036,37152,4
0.0,0.0,0.0,20961,11024,9599,11060,36959,4
0.0,0.0,0.0,20899,11012,9610,11060,36920,4
0.0,0.0,0.0,20818,11024,9588,11036,36959,4
0.0,0.0,0.0,20879,11036,9621,11036,36843,4
0.0,0.0,0.0,20716,11060,9588,11036,36690,4
0.0,0.0,0.0,20676,11024,9588,11024,36386,4
0.0,0.0,0.0,20676,10975,9599,11060,36386,4
0.0,0.0,0.0,20676,10987,9588,11036,36272,4
0.0,0.0,0.0,20696,11012,9588,11072,35935,4
0.0,0.0,0.0,20757,10963,9599,11060,36010,4
0.0,0.0,0.0,20757,10963,9599,11036,35898,4
0.0,0.0,0.0,20818,10927,9588,11060,35861,4
0.0,0.0,0.0,20656,10927,9577,11060,36462,4
0.0,0.0,0.0,20656,10939,9599,11060,36122,4
0.0,0.0,0.0,20676,10939,9577,11060,36010,4
0.0,0.0,0.0,20716,10927,9577,11072,35787,4
0.0,0.0,0.0,20777,10939,9599,11060,35749,4
0.0,0.0,0.0,20798,10939,9588,11109,35712,4
0.0,0.0,0.0,20737,10963,9588,11109,36197,4
0.0,0.0,0.0,20757,10963,9588,11096,35935,4
0.0,0.0,0.0,20798,10963,9599,11109,35935,4
0.0,0.0,0.0,20757,10975,9599,11109,36998,4
0.0,0.0,0.0,20798,10987,9599,11109,36310,4
0.0,0.0,0.0,20757,10987,9599,11084,36348,4
0.0,0.0,0.0,20716,11012,9621,11109,36348,4
0.0,0.0,0.0,20737,11012,9588,11109,36122,4
0.0,0.0,0.0,20696,11036,9599,11109,36462,4
0.0,0.0,0.0,20716,11060,9588,11121,36197,4
0.0,0.0,0.0,20716,11024,9599,11109,36160,4
0.0,0.0,0.0,20716,11012,9621,11109,36047,4
0.0,0.0,0.0,20615,11012,9588,11096,35898,4
0.0,0.0,0.0,20555,11012,9588,11096,36122,4
0.0,0.0,0.0,20575,11012,9588,11109,35972,4
0.0,0.0,0.0,20555,11012,9610,11072,36310,4
0.0,0.0,0.0,20455,11024,9621,11060,36235,4
0.0,0.0,0.0,20475,11060,9610,10963,36652,4
0.0,0.0,0.0,20395,11072,9599,10891,37386,4
0.0,0.0,0.0,20176,11268,9610,11060,37622,4
0.0,0.0,0.0,20039,11280,10117,11145,36767,4
0.0,0.0,0.0,19785,11280,9800,11157,35787,4
0.0,0.0,0.0,19785,11304,9621,11145,35565,4
0.0,0.0,0.0,19689,11255,9588,11121,35382,4
0.0,0.0,0.0,19689,11268,9599,11109,35272,4
0.0,0.0,0.0,19689,11255,9599,11109,35345,4
0.0,0.0,0.0,19689,11219,9599,11109,35272,4
0.0,0.0,0.0,19650,11255,9577,11109,35163,4
0.0,0.0,0.0,19631,11231,9599,11109,35127,4
0.0,0.0,0.0,19650,11206,9599,11109,35199,4
0.0,0.0,0.0,19766,11255,9621,11109,35418,4
0.0,0.0,0.0,19902,11219,9588,11072,35972,4
0.0,0.0,0.0,20078,11255,9599,11060,36235,4
0.0,0.0,0.0,20315,11255,9599,11072,36614,4
0.0,0.0,0.0,20636,11255,9588,11048,37269,4
0.0,0.0,0.0,20798,11255,9599,11024,37701,4
0.0,0.0,0.0,21002,11255,9599,11012,38019,4
0.0,0.0,0.0,21022,11231,9588,11012,37900,4
0.0,0.0,0.0,20981,11231,9599,10987,37820,4
0.0,0.0,0.0,20981,11194,9599,10975,37662,4
0.0,0.0,0.0,20981,11219,9599,10987,37543,4
0.0,0.0,0.0,20961,11219,9588,10987,37543,4
0.0,0.0,0.0,20920,11231,9577,10987,37386,4
0.0,0.0,0.0,20920,11231,9599,10987,37386,4
0.0,0.0,0.0,20920,11231,9599,10987,37308,4
0.0,0.0,0.0,20961,11231,9599,10963,37308,4
0.0,0.0,0.0,20981,11255,9621,10987,37386,4
0.0,0.0,0.0,21043,11255,9599,10987,37583,4
0.0,0.0,0.0,20981,11243,9621,10963,37860,4
0.0,0.0,0.0,21002,11255,9577,10963,37662,4
0.0,0.0,0.0,20961,11255,9599,10975,37781,4
0.0,0.0,0.0,20899,11268,9599,10963,37781,4
0.0,0.0,0.0,20920,11280,9599,10999,37741,4
0.0,0.0,0.0,20920,11304,9599,10987,37860,4
0.0,0.0,0.0,20920,11304,9610,10999,37940,4
0.0,0.0,0.0,20961,11292,9599,10975,38180,4
0.0,0.0,0.0,21043,11304,9599,10963,38341,4
0.0,0.0,0.0,20981,11280,9599,10963,38140,4
0.0,0.0,0.0,20981,11304,9621,10987,38220,4
0.0,0.0,0.0,21002,11317,9599,10963,38341,4
0.0,0.0,0.0,20920,11329,9588,10939,38503,4
0.0,0.0,0.0,20899,11354,9610,10915,38503,4
0.0,0.0,0.0,20920,11366,9599,10915,38666,4
0.0,0.0,0.0,20961,11379,9599,10915,38666,4
0.0,0.0,0.0,20899,11403,9599,10939,38544,4
0.0,0.0,0.0,20940,11465,9599,10963,38871,4
0.0,0.0,0.0,21084,11329,9599,10987,38995,4
0.0,0.0,0.0,21084,11060,9599,11012,38666,4
0.0,0.0,0.0,21043,10939,9588,10975,38059,4
0.0,0.0,0.0,20981,10879,9599,10939,37940,4
0.0,0.0,0.0,20961,10879,9599,10915,37980,4
0.0,0.0,0.0,20961,10867,9599,10915,37820,4
0.0,0.0,0.0,20920,10867,9577,10891,37900,4
0.0,0.0,0.0,20961,10867,9599,10867,37940,4
0.0,0.0,0.0,20961,10891,9588,10879,37900,4
0.0,0.0,0.0,20961,10915,9599,10891,37860,4
0.0,0.0,0.0,20961,10927,9599,10891,37940,4
0.0,0.0,0.0,20981,10927,9599,10879,38019,4
0.0,0.0,0.0,20981,10963,9599,10891,38019,4
0.0,0.0,0.0,20920,10963,9588,10879,37386,4
0.0,0.0,0.0,20981,11012,9588,10915,37308,4
0.0,0.0,0.0,20920,11012,9599,10915,37308,4
0.0,0.0,0.0,20961,11060,9588,10915,37347,4
0.0,0.0,0.0,20899,11072,9577,10927,37152,4
0.0,0.0,0.0,20899,11084,9610,10915,37152,4
0.0,0.0,0.0,20879,11084,9599,10915,37152,4
0.0,0.0,0.0,20859,11121,9621,10915,37269,4
0.0,0.0,0.0,20838,11133,9599,10939,37075,4
0.0,0.0,0.0,20838,11157,9577,10927,37191,4
0.0,0.0,0.0,20838,11157,9588,10927,37152,4
0.0,0.0,0.0,20798,11304,9588,10915,37152,4
0.0,0.0,0.0,20716,11354,9621,10963,37230,4
0.0,0.0,0.0,20636,11329,9599,11060,36767,4
0.0,0.0,0.0,20475,11403,9621,11133,36538,4
0.0,0.0,0.0,20415,11403,9588,11121,36272,4
0.0,0.0,0.0,20395,11354,9599,11133,36010,4
0.0,0.0,0.0,20335,11304,9577,11133,35935,4
0.0,0.0,0.0,20236,11280,9599,11109,35861,4
0.0,0.0,0.0,20196,11268,9588,11133,35861,4
0.0,0.0,0.0,20216,11255,9588,11109,35712,4
0.0,0.0,0.0,20157,11255,9599,11109,35676,4
0.0,0.0,0.0,20196,11280,9599,11109,35639,4
0.0,0.0,0.0,20176,11268,9599,11121,35824,4
0.0,0.0,0.0,20236,11280,9599,11084,35935,4
0.0,0.0,0.0,20236,11255,9599,11060,35935,4
0.0,0.0,0.0,20236,11255,9599,11024,35861,4
0.0,0.0,0.0,20176,11268,9588,10999,35565,4
0.0,0.0,0.0,20176,11255,9588,11012,35418,4
0.0,0.0,0.0,20117,11354,9599,10987,35382,4
0.0,0.0,0.0,20078,11379,9666,10987,35272,4
0.0,0.0,0.0,19999,11329,9643,10963,35163,4
0.0,0.0,0.0,19921,11304,9643,10963,34982,4
0.0,0.0,0.0,19882,11304,9643,10963,34910,4
0.0,0.0,0.0,19863,11304,9643,10963,34874,4
0.0,0.0,0.0,19843,11255,9666,10963,34982,4
0.0,0.0,0.0,19843,11280,9666,10915,34803,4
0.0,0.0,0.0,19843,11268,9677,10963,34946,4
0.0,0.0,0.0,19843,11268,9677,10939,34982,4
0.0,0.0,0.0,19863,11317,9710,10951,34946,4
0.0,0.0,0.0,19902,11317,9710,10939,35055,4
0.0,0.0,0.0,19882,11317,9710,10915,35272,4
0.0,0.0,0.0,19921,11317,9710,10915,35199,4
0.0,0.0,0.0,19921,11304,9733,10927,35309,4
0.0,0.0,0.0,19921,11280,9710,10915,35565,4
0.0,0.0,0.0,19999,11255,9666,10915,35639,4
0.0,0.0,0.0,20019,11255,9643,10879,35861,4
0.0,0.0,0.0,20078,11255,9621,10891,35712,4
0.0,0.0,0.0,20157,11255,9621,10891,36085,4
0.0,0.0,0.0,20157,11170,9588,10867,36160,4
0.0,0.0,0.0,20236,11219,9610,10879,36197,4
0.0,0.0,0.0,20256,11219,9588,10879,36386,4
0.0,0.0,0.0,20275,11219,9621,10891,36160,4
0.0,0.0,0.0,20196,11206,9610,10855,36348,4
0.0,0.0,0.0,20196,11206,9588,10867,36348,4
0.0,0.0,0.0,20216,11206,9621,10855,36424,4
0.0,0.0,0.0,20236,11206,9621,10867,36197,4
0.0,0.0,0.0,20216,11231,9621,10867,36197,4
0.0,0.0,0.0,20157,11206,9610,10867,36197,4
0.0,0.0,0.0,20176,11231,9588,10867,36085,4
0.0,0.0,0.0,20275,11255,9621,10867,36348,4
0.0,0.0,0.0,20236,11255,9621,10867,36310,4
0.0,0.0,0.0,20196,11268,9610,10867,36160,4
0.0,0.0,0.0,20236,11280,9599,10867,36348,4
0.0,0.0,0.0,20275,11268,9610,10855,36235,4
0.0,0.0,0.0,20236,11280,9621,10867,36272,4
0.0,0.0,0.0,20256,11280,9621,10867,36272,4
0.0,0.0,0.0,20236,11280,9599,10867,36235,4
0.0,0.0,0.0,20256,11304,9621,10867,36235,4
0.0,0.0,0.0,20275,11304,9599,10867,36272,4
0.0,0.0,0.0,20315,11341,9599,10867,36310,4
0.0,0.0,0.0,20335,11317,9599,10867,36235,4
0.0,0.0,0.0,20275,11304,9599,10867,36047,4
0.0,0.0,0.0,20256,11304,9588,10867,36047,4
0.0,0.0,0.0,20275,11329,9621,10867,36122,4
0.0,0.0,0.0,20275,11317,9588,10867,36047,4
0.0,0.0,0.0,20256,11317,9588,10867,36047,4
0.0,0.0,0.0,20236,11304,9599,10855,36010,4
0.0,0.0,0.0,20236,11304,9599,10867,35861,4
0.0,0.0,0.0,20157,11304,9599,10867,35749,4
0.0,0.0,0.0,20236,11304,9610,10867,35935,4
0.0,0.0,0.0,20157,11329,9599,10855,35972,4
0.0,0.0,0.0,20176,11317,9588,10867,36010,4
0.0,0.0,0.0,20315,11354,9599,10867,36160,4
0.0,0.0,0.0,20256,11354,9599,10867,36122,4
0.0,0.0,0.0,20236,11354,9599,10855,36122,4
0.0,0.0,0.0,20236,11354,9588,10867,36160,4
0.0,0.0,0.0,20196,11354,9621,10867,36160,4
0.0,0.0,0.0,20196,11354,9588,10855,36085,4
0.0,0.0,0.0,20196,11354,9599,10867,36160,4
0.0,0.0,0.0,20236,11354,9621,10867,36197,4
0.0,0.0,0.0,20176,11354,9588,10843,36386,4
0.0,0.0,0.0,20216,11354,9599,10855,36085,4
0.0,0.0,0.0,20176,11354,9621,10843,36197,4
0.0,0.0,0.0,20236,11379,9599,10867,36348,4
0.0,0.0,0.0,20216,11354,9588,10867,36538,4
0.0,0.0,0.0,20236,11379,9621,10867,36767,4
0.0,0.0,0.0,20196,11379,9621,10867,36499,4
0.0,0.0,0.0,20157,11354,9621,10831,36462,4
0.0,0.0,0.0,20176,11379,9599,10867,36386,4
0.0,0.0,0.0,20137,11379,9599,10867,36310,4
0.0,0.0,0.0,20176,11403,9577,10867,36348,4
0.0,0.0,0.0,20157,11379,9621,10867,36348,4
0.0,0.0,0.0,20157,11379,9610,10855,36386,4
0.0,0.0,0.0,20176,11366,9599,10867,36310,4
0.0,0.0,0.0,20117,11379,9610,10867,36272,4
0.0,0.0,0.0,20098,11379,9599,10867,36197,4
0.0,0.0,0.0,20117,11379,9621,10843,36160,4
0.0,0.0,0.0,20137,11391,9599,10867,36010,4
0.0,0.0,0.0,20117,11403,9621,10867,36085,4
0.0,0.0,0.0,20117,11453,9588,10867,36085,4
0.0,0.0,0.0,20157,11515,9643,10867,35935,4
0.0,0.0,0.0,20117,11503,9621,10843,35861,4
0.0,0.0,0.0,20117,11503,9643,10855,35712,4
0.0,0.0,0.0,20098,11465,9643,10867,35712,4
0.0,0.0,0.0,20078,11503,9643,10867,35712,4
0.0,0.0,0.0,20078,11515,9621,10867,35824,4
0.0,0.0,0.0,20019,11528,9610,10843,35712,4
0.0,0.0,0.0,19999,11515,9599,10843,35639,4
0.0,0.0,0.0,20078,11528,9599,10855,35639,4
0.0,0.0,0.0,20058,11528,9621,10867,35565,4
0.0,0.0,0.0,20078,11528,9588,10867,35712,4
0.0,0.0,0.0,20039,11528,9599,10843,35712,4
0.0,0.0,0.0,19999,11528,9588,10843,35602,4
0.0,0.0,0.0,20039,11503,9621,10855,35639,4
0.0,0.0,0.0,19960,11515,9599,10867,35602,4
0.0,0.0,0.0,19941,11465,9599,10867,35639,4
0.0,0.0,0.0,19941,11565,9599,10843,35787,4
0.0,0.0,0.0,19882,11528,9599,10891,36690,4
0.0,0.0,0.0,19843,11478,9621,10891,36310,4
0.0,0.0,0.0,19843,11304,9610,10891,36010,4
0.0,0.0,0.0,19805,11304,9599,10867,35861,4
0.0,0.0,0.0,19785,11268,9588,10867,35602,4
0.0,0.0,0.0,19766,11268,9588,10867,35272,4
0.0,0.0,0.0,19766,11231,9599,10867,35345,4
0.0,0.0,0.0,19746,11231,9610,10891,35272,4
0.0,0.0,0.0,19708,11182,9588,10867,35199,4
0.0,0.0,0.0,19708,11157,9588,10843,35199,4
0.0,0.0,0.0,19689,11121,9599,10831,35199,4
0.0,0.0,0.0,19708,11157,9599,10819,35345,4
0.0,0.0,0.0,19727,11170,9599,10819,35345,4
0.0,0.0,0.0,19708,11182,9588,10807,35565,4
0.0,0.0,0.0,19746,11206,9588,10783,35749,4
0.0,0.0,0.0,19766,11231,9610,10771,35861,4
0.0,0.0,0.0,19805,11219,9588,10783,35861,4
0.0,0.0,0.0,19843,11219,9599,10771,35898,4
0.0,0.0,0.0,19805,11255,9621,10795,35972,4
0.0,0.0,0.0,19785,11255,9610,10783,36047,4
0.0,0.0,0.0,19785,11304,9599,10795,36085,4
0.0,0.0,0.0,19843,11304,9621,10771,36538,4
0.0,0.0,0.0,19863,11317,9599,10795,36462,4
0.0,0.0,0.0,19863,11329,9599,10771,36310,4
0.0,0.0,0.0,19863,11317,9610,10771,36386,4
0.0,0.0,0.0,19863,11317,9588,10748,36310,4
0.0,0.0,0.0,19902,11317,9621,10771,36272,4
0.0,0.0,0.0,19902,11354,9577,10771,36047,4
0.0,0.0,0.0,19921,11317,9621,10771,36235,4
0.0,0.0,0.0,19921,11341,9599,10771,36235,4
0.0,0.0,0.0,19902,11317,9588,10771,36085,4
0.0,0.0,0.0,19882,11304,9577,10771,36197,4
0.0,0.0,0.0,19960,11304,9599,10759,36235,4
0.0,0.0,0.0,19843,11304,9588,10759,36235,4
0.0,0.0,0.0,19843,11317,9599,10771,36272,4
0.0,0.0,0.0,19843,11280,9610,10771,36235,4
0.0,0.0,0.0,19843,11292,9610,10748,36310,4
0.0,0.0,0.0,19921,11304,9599,10771,36235,4
0.0,0.0,0.0,19863,11304,9599,10748,36235,4
0.0,0.0,0.0,19882,11317,9555,10771,36235,4
0.0,0.0,0.0,19863,11304,9610,10771,36272,4
0.0,0.0,0.0,19843,11304,9599,10748,36310,4
0.0,0.0,0.0,19863,11304,9621,10771,36235,4
0.0,0.0,0.0,19824,11304,9621,10771,36310,4
0.0,0.0,0.0,19843,11304,9599,10771,36310,4
0.0,0.0,0.0,19843,11317,9588,10748,36235,4
0.0,0.0,0.0,19843,11329,9599,10748,36310,4
0.0,0.0,0.0,19805,11329,9588,10771,36462,4
0.0,0.0,0.0,19843,11329,9610,10771,36348,4
0.0,0.0,0.0,19863,11304,9599,10748,36310,4
0.0,0.0,0.0,19843,11354,9621,10771,36272,4
0.0,0.0,0.0,19843,11354,9599,10771,36160,4
0.0,0.0,0.0,19863,11354,9599,10771,36310,4
0.0,0.0,0.0,19882,11379,9588,10748,36310,4
0.0,0.0,0.0,19824,11379,9577,10748,36235,4
0.0,0.0,0.0,19843,11379,9599,10748,36235,4
0.0,0.0,0.0,19785,11391,9577,10771,36235,4
0.0,0.0,0.0,19805,11403,9599,10771,36197,4
0.0,0.0,0.0,19843,11403,9599,10771,36310,4
0.0,0.0,0.0,19843,11379,9610,10748,36386,4
0.0,0.0,0.0,19824,11379,9577,10748,36235,4
0.0,0.0,0.0,19843,11403,9588,10771,36310,4
0.0,0.0,0.0,19805,11403,9588,10771,36235,4
0.0,0.0,0.0,19805,11366,9588,10748,36348,4
0.0,0.0,0.0,19843,11366,9588,10748,36197,4
0.0,0.0,0.0,19805,11354,9588,10771,36160,4
0.0,0.0,0.0,19766,11354,9599,10748,36235,4
0.0,0.0,0.0,19805,11354,9610,10771,36310,4
0.0,0.0,0.0,19785,11354,9621,10748,36272,4
0.0,0.0,0.0,19785,11354,9621,10759,36310,4
0.0,0.0,0.0,19785,11354,9599,10759,36235,4
0.0,0.0,0.0,19785,11354,9588,10771,36197,4
0.0,0.0,0.0,19727,11354,9588,10748,36272,4
0.0,0.0,0.0,19766,11341,9599,10759,36348,4
0.0,0.0,0.0,19805,11354,9599,10771,36235,4
0.0,0.0,0.0,19746,11329,9599,10748,36272,4
0.0,0.0,0.0,19805,11354,9610,10748,36272,4
0.0,0.0,0.0,19766,11354,9588,10771,36310,4
0.0,0.0,0.0,19766,11329,9599,10748,36235,4
0.0,0.0,0.0,19766,11329,9610,10748,36197,4
0.0,0.0,0.0,19766,11341,9599,10748,36310,4
0.0,0.0,0.0,19746,11304,9599,10771,36235,4
0.0,0.0,0.0,19727,11304,9599,10748,36235,4
0.0,0.0,0.0,19785,11366,9599,10748,36386,4
0.0,0.0,0.0,19766,11906,9610,10771,36998,4
0.0,0.0,0.0,19766,12086,9610,10795,37075,4
0.0,0.0,0.0,19766,12137,9621,10819,37114,4
0.0,0.0,0.0,19766,12583,10174,10891,37269,4
0.0,0.0,0.0,19766,12810,10313,10963,37152,4
0.0,0.0,0.0,19631,13150,10371,10987,36882,4
0.0,0.0,0.0,19669,13821,10724,11206,36843,4
0.0,0.0,0.0,19573,14021,10748,11280,36805,4
0.0,0.0,0.0,19612,13978,10843,11304,36767,4
0.0,0.0,0.0,19612,13792,10831,11329,36843,4
0.0,0.0,0.0,19612,13821,11096,11354,36998,4
0.0,0.0,0.0,19612,13792,11255,11391,37036,4
0.0,0.0,0.0,19612,13778,11206,11403,36998,4
0.0,0.0,0.0,19612,13849,11354,11416,37075,4
0.0,0.0,0.0,19631,13792,11366,11416,36998,4
0.0,0.0,0.0,19631,13735,11354,11416,37075,4
0.0,0.0,0.0,19612,13707,11255,11416,37075,4
0.0,0.0,0.0,19650,13594,11157,11403,37230,4
0.0,0.0,0.0,19631,13510,11012,11403,37152,4
0.0,0.0,0.0,19689,13440,10987,11403,37075,4
0.0,0.0,0.0,19631,13343,10915,11403,37152,4
0.0,0.0,0.0,19612,13315,10843,11379,37114,4
0.0,0.0,0.0,19612,13246,10843,11354,37075,4
0.0,0.0,0.0,19612,13232,10819,11354,37075,4
0.0,0.0,0.0,19631,13177,10819,11366,37036,4
0.0,0.0,0.0,19631,13136,10783,11354,36920,4
0.0,0.0,0.0,19612,13027,10795,11354,36728,4
0.0,0.0,0.0,19631,13013,10771,11354,36767,4
0.0,0.0,0.0,19612,12959,10771,11341,36805,4
0.0,0.0,0.0,19631,12824,10748,11329,36882,4
0.0,0.0,0.0,19631,12810,10724,11304,36920,4
0.0,0.0,0.0,19631,12810,10724,11329,36920,4
0.0,0.0,0.0,19612,12797,10712,11304,36920,4
0.0,0.0,0.0,19650,12716,10676,11304,37075,4
0.0,0.0,0.0,19650,12690,10629,11280,37075,4
0.0,0.0,0.0,19650,12663,10641,11292,36920,4
0.0,0.0,0.0,19612,12690,10629,11280,36920,4
0.0,0.0,0.0,19612,12690,10629,11280,36767,4
0.0,0.0,0.0,19612,12690,10629,11268,36767,4
0.0,0.0,0.0,19689,12690,10629,11268,36920,4
0.0,0.0,0.0,19669,12690,10629,11268,36843,4
0.0,0.0,0.0,19689,12690,10629,11280,36920,4
0.0,0.0,0.0,19650,12743,10629,11268,37036,4
0.0,0.0,0.0,19689,12703,10605,11280,36998,4
0.0,0.0,0.0,19708,12703,10582,11268,36959,4
0.0,0.0,0.0,19708,12663,10605,11280,37075,4
0.0,0.0,0.0,19766,12596,10594,11268,37036,4
0.0,0.0,0.0,19708,12583,10605,11268,37075,4
0.0,0.0,0.0,19766,12570,10582,11268,37036,4
0.0,0.0,0.0,19708,12570,10582,11280,37075,4
0.0,0.0,0.0,19708,12530,10594,11268,36959,4
0.0,0.0,0.0,19689,12543,10582,11255,36882,4
0.0,0.0,0.0,19708,12530,10582,11280,36920,4
0.0,0.0,0.0,19746,12477,10582,11255,36920,4
0.0,0.0,0.0,19727,12477,10546,11268,36843,4
0.0,0.0,0.0,19669,12477,10546,11255,36882,4
0.0,0.0,0.0,19689,12451,10570,11255,36882,4
0.0,0.0,0.0,19689,12477,10546,11255,36843,4
0.0,0.0,0.0,19689,12451,10546,11255,36805,4
0.0,0.0,0.0,19689,12451,10546,11255,36767,4
0.0,0.0,0.0,19689,12464,10535,11255,36690,4
0.0,0.0,0.0,19689,12451,10546,11255,36767,4
0.0,0.0,0.0,19689,12477,10535,11255,36728,4
0.0,0.0,0.0,19689,12451,10546,11255,36767,4
0.0,0.0,0.0,19650,12438,10535,11255,36805,4
0.0,0.0,0.0,19689,12424,10535,11255,36690,4
0.0,0.0,0.0,19669,12438,10535,11219,36690,4
0.0,0.0,0.0,19689,12438,10511,11255,36690,4
0.0,0.0,0.0,19689,12438,10535,11231,36767,4
0.0,0.0,0.0,19650,12477,10535,11255,36690,4
0.0,0.0,0.0,19631,12451,10546,11255,36728,4
0.0,0.0,0.0,19669,12438,10523,11255,36690,4
0.0,0.0,0.0,19689,12438,10523,11255,36690,4
0.0,0.0,0.0,19650,12424,10546,11255,36690,4
0.0,0.0,0.0,19631,12477,10535,11243,36614,4
0.0,0.0,0.0,19689,12477,10511,11255,36690,4
0.0,0.0,0.0,19708,12451,10535,11255,36843,4
0.0,0.0,0.0,19746,12477,10488,11243,36920,4
0.0,0.0,0.0,19766,12530,10499,11255,36843,4
0.0,0.0,0.0,19689,12504,10488,11255,36728,4
0.0,0.0,0.0,19631,12490,10511,11255,36805,4
0.0,0.0,0.0,19650,12490,10511,11255,36690,4
0.0,0.0,0.0,19631,12477,10511,11243,36690,4
0.0,0.0,0.0,19612,12451,10499,11219,36614,4
0.0,0.0,0.0,19573,12438,10499,11255,36614,4
0.0,0.0,0.0,19650,12451,10488,11231,36690,4
0.0,0.0,0.0,19612,12438,10511,11231,36499,4
0.0,0.0,0.0,19612,12477,10511,11231,36690,4
0.0,0.0,0.0,19573,12477,10523,11255,36614,4
0.0,0.0,0.0,19535,12504,10499,11231,36462,4
0.0,0.0,0.0,19573,12504,10488,11255,36538,4
0.0,0.0,0.0,19612,12490,10511,11255,36576,4
0.0,0.0,0.0,19592,12477,10511,11231,36614,4
0.0,0.0,0.0,19554,12451,10499,11255,36652,4
0.0,0.0,0.0,19612,12477,10511,11255,36538,4
0.0,0.0,0.0,19554,12451,10511,11255,36462,4
0.0,0.0,0.0,19554,12451,10511,11255,36538,4
0.0,0.0,0.0,19631,12438,10499,11255,36690,4
0.0,0.0,0.0,19573,12464,10511,11243,36538,4
0.0,0.0,0.0,19631,12451,10499,11255,36614,4
0.0,0.0,0.0,19631,12477,10499,11243,36538,4
0.0,0.0,0.0,19612,12477,10511,11255,36614,4
0.0,0.0,0.0,19592,12477,10511,11243,36576,4
0.0,0.0,0.0,19612,12477,10499,11255,36690,4
0.0,0.0,0.0,19554,12490,10499,11243,36576,4
0.0,0.0,0.0,19612,12530,10488,11231,36614,4
0.0,0.0,0.0,19554,12530,10511,11243,36576,4
0.0,0.0,0.0,19535,12530,10511,11243,36614,4
0.0,0.0,0.0,19612,12490,10511,11231,36614,4
0.0,0.0,0.0,19554,12530,10511,11255,36462,4
0.0,0.0,0.0,19554,12504,10499,11255,36499,4
0.0,0.0,0.0,19535,12504,10499,11255,36424,4
0.0,0.0,0.0,19554,12504,10511,11231,36462,4
0.0,0.0,0.0,19535,12477,10488,11255,36499,4
0.0,0.0,0.0,19535,12477,10499,11255,36348,4
0.0,0.0,0.0,19458,12477,10511,11231,36386,4
0.0,0.0,0.0,19535,12477,10499,11231,36348,4
0.0,0.0,0.0,19535,12477,10488,11243,36310,4
0.0,0.0,0.0,19535,12477,10499,11231,36310,4
0.0,0.0,0.0,19497,12451,10523,11255,36462,4
0.0,0.0,0.0,19497,12490,10511,11255,36310,4
0.0,0.0,0.0,19497,12490,10511,11255,36424,4
0.0,0.0,0.0,19535,12451,10511,11255,36310,4
0.0,0.0,0.0,19497,12477,10499,11255,36348,4
0.0,0.0,0.0,19535,12477,10511,11255,36310,4
0.0,0.0,0.0,19497,12504,10499,11243,36235,4
0.0,0.0,0.0,19497,12477,10488,11243,36386,4
0.0,0.0,0.0,19516,12477,10511,11231,36310,4
0.0,0.0,0.0,19477,12477,10499,11243,36310,4
0.0,0.0,0.0,19497,12477,10499,11219,36424,4
0.0,0.0,0.0,19535,12451,10488,11255,36310,4
0.0,0.0,0.0,19497,12490,10499,11219,36235,4
0.0,0.0,0.0,19535,12477,10499,11231,36386,4
0.0,0.0,0.0,19477,12477,10499,11231,36310,4
0.0,0.0,0.0,19516,12451,10488,11231,36235,4
0.0,0.0,0.0,19535,12451,10499,11231,36386,4
0.0,0.0,0.0,19689,12424,10582,11255,36462,4
0.0,0.0,0.0,19766,12451,10546,11219,36348,4
0.0,0.0,0.0,19746,12438,10535,11231,36348,4
0.0,0.0,0.0,19727,12477,10546,11255,36310,4
0.0,0.0,0.0,19766,12451,10546,11255,36386,4
0.0,0.0,0.0,19708,12438,10535,11231,36310,4
0.0,0.0,0.0,19669,12451,10535,11243,36386,4
0.0,0.0,0.0,19708,12477,10511,11255,36310,4
0.0,0.0,0.0,19689,12451,10511,11255,36235,4
0.0,0.0,0.0,19708,12477,10511,11243,36310,4
0.0,0.0,0.0,19689,12451,10499,11231,36348,4
0.0,0.0,0.0,19708,12424,10511,11255,36310,4
0.0,0.0,0.0,19689,12424,10535,11255,36310,4
0.0,0.0,0.0,19708,12451,10499,11255,36272,4
0.0,0.0,0.0,19708,12424,10499,11255,36386,4
0.0,0.0,0.0,19669,12372,10511,11231,36310,4
0.0,0.0,0.0,19689,12385,10499,11219,36348,4
0.0,0.0,0.0,19708,12372,10511,11219,36310,4
0.0,0.0,0.0,19689,12372,10535,11255,36272,4
0.0,0.0,0.0,19689,12372,10523,11231,36235,4
0.0,0.0,0.0,19689,12385,10499,11231,36235,4
0.0,0.0,0.0,19689,12346,10511,11231,36310,4
0.0,0.0,0.0,19689,12372,10511,11231,36197,4
0.0,0.0,0.0,19689,12372,10535,11255,36348,4
0.0,0.0,0.0,19650,12372,10488,11255,36272,4
0.0,0.0,0.0,19650,12372,10499,11231,36310,4
0.0,0.0,0.0,19689,12372,10511,11255,36310,4
0.0,0.0,0.0,19689,12398,10511,11219,36235,4
0.0,0.0,0.0,19669,12372,10511,11243,36348,4
0.0,0.0,0.0,19631,12398,10523,11255,36197,4
0.0,0.0,0.0,19631,12398,10523,11255,36272,4
0.0,0.0,0.0,19650,12398,10499,11255,36272,4
0.0,0.0,0.0,19631,12411,10488,11255,36235,4
0.0,0.0,0.0,19689,12398,10499,11231,36386,4
0.0,0.0,0.0,19669,12372,10499,11255,36348,4
0.0,0.0,0.0,19689,12372,10499,11231,36235,4
0.0,0.0,0.0,19612,12372,10535,11231,36348,4
0.0,0.0,0.0,19669,12372,10511,11255,36235,4
0.0,0.0,0.0,19631,12372,10535,11231,36272,4
0.0,0.0,0.0,19650,12385,10511,11231,36235,4
0.0,0.0,0.0,19650,12372,10499,11255,36235,4
0.0,0.0,0.0,19612,12385,10499,11231,36235,4
0.0,0.0,0.0,19650,12372,10511,11255,36272,4
0.0,0.0,0.0,19650,12372,10488,11255,36197,4
0.0,0.0,0.0,19612,12385,10499,11255,36235,4
0.0,0.0,0.0,19650,12372,10511,11255,36272,4
0.0,0.0,0.0,19650,12398,10499,11231,36160,4
0.0,0.0,0.0,19612,12372,10511,11231,36310,4
0.0,0.0,0.0,19612,12372,10511,11255,36310,4
0.0,0.0,0.0,19650,12372,10499,11255,36310,4
0.0,0.0,0.0,19631,12398,10499,11255,36197,4
0.0,0.0,0.0,19631,12398,10511,11255,36235,4
0.0,0.0,0.0,19650,12424,10499,11255,36310,4
0.0,0.0,0.0,19689,12398,10499,11231,36235,4
0.0,0.0,0.0,19631,12398,10499,11255,36348,4
0.0,0.0,0.0,19631,12424,10499,11231,36310,4
0.0,0.0,0.0,19689,12424,10499,11219,36310,4
0.0,0.0,0.0,19689,12424,10499,11231,36197,4
0.0,0.0,0.0,19631,12438,10499,11255,36272,4
0.0,0.0,0.0,19631,12424,10488,11231,36272,4
0.0,0.0,0.0,19631,12424,10499,11231,36235,4
0.0,0.0,0.0,19612,12424,10511,11255,36310,4
0.0,0.0,0.0,19612,12411,10499,11231,36235,4
0.0,0.0,0.0,19631,12424,10499,11255,36272,4
0.0,0.0,0.0,19650,12385,10499,11255,36310,4
0.0,0.0,0.0,19631,12424,10499,11255,36272,4
0.0,0.0,0.0,19612,12372,10511,11231,36272,4
0.0,0.0,0.0,19612,12385,10499,11219,36272,4
0.0,0.0,0.0,19631,12385,10499,11255,36197,4
0.0,0.0,0.0,19612,12398,10499,11255,36348,4
0.0,0.0,0.0,19612,12556,10535,11243,36310,4
0.0,0.0,0.0,19631,12530,10511,11255,36235,4
0.0,0.0,0.0,19612,12649,10535,11255,36197,4
0.0,0.0,0.0,19631,12649,10546,11255,36235,4
0.0,0.0,0.0,19592,12743,10629,11304,36272,4
0.0,0.0,0.0,19592,12972,10843,11317,36235,4
0.0,0.0,0.0,19573,13426,11528,11578,36348,4
0.0,0.0,0.0,19669,13863,12636,12137,36235,4
0.0,0.0,0.0,19650,13792,12797,12346,36085,4
0.0,0.0,0.0,19650,13566,12770,12438,35972,4
0.0,0.0,0.0,19554,13371,12690,12398,36348,4
0.0,0.0,0.0,19573,13357,12610,12293,35861,4
0.0,0.0,0.0,19497,13343,12530,12267,35492,4
0.0,0.0,0.0,19497,13287,12504,12215,35055,4
0.0,0.0,0.0,19420,13191,12346,12034,34482,4
0.0,0.0,0.0,19382,13068,12359,12034,34341,4
0.0,0.0,0.0,19401,13122,12346,11983,34341,4
0.0,0.0,0.0,19439,13081,12372,11957,34376,4
0.0,0.0,0.0,19382,13068,12346,11932,34589,4
0.0,0.0,0.0,19401,13013,12320,11944,34731,4
0.0,0.0,0.0,19382,12999,12320,11893,34696,4
0.0,0.0,0.0,19382,12986,12267,11906,34553,4
0.0,0.0,0.0,19382,12972,12254,11881,34767,4
0.0,0.0,0.0,19382,12972,12228,11881,34767,4
0.0,0.0,0.0,19363,12932,12215,11881,35055,4
0.0,0.0,0.0,19382,12959,12163,11881,34982,4
0.0,0.0,0.0,19382,12918,12163,11855,35055,4
0.0,0.0,0.0,19401,12918,12163,11855,35163,4
0.0,0.0,0.0,19344,12932,12163,11855,35455,4
0.0,0.0,0.0,19382,12959,12163,11855,35418,4
0.0,0.0,0.0,19382,12959,12163,11830,35418,4
0.0,0.0,0.0,19401,12905,12163,11906,35345,4
0.0,0.0,0.0,19458,12945,12163,11830,35345,4
0.0,0.0,0.0,19458,12905,12137,11830,35418,4
0.0,0.0,0.0,19382,12905,12112,11804,35565,4
0.0,0.0,0.0,19458,12905,12086,11754,35972,4
0.0,0.0,0.0,19458,12932,12060,11754,35787,4
0.0,0.0,0.0,19439,12918,12060,11754,35787,4
0.0,0.0,0.0,19420,12918,12060,11728,35676,4
0.0,0.0,0.0,19420,12959,12060,11728,35749,4
0.0,0.0,0.0,19477,12932,12060,11754,35749,4
0.0,0.0,0.0,19477,12959,12034,11728,35787,4
0.0,0.0,0.0,19439,12932,12009,11728,35639,4
0.0,0.0,0.0,19458,12999,11996,11728,35528,4
0.0,0.0,0.0,19477,13013,11957,11754,35602,4
0.0,0.0,0.0,19439,13013,11957,11754,35492,4
0.0,0.0,0.0,19401,12986,11957,11754,35418,4
0.0,0.0,0.0,19382,13013,11932,11804,35382,4
0.0,0.0,0.0,19458,13013,11906,11804,35418,4
0.0,0.0,0.0,19382,12999,11906,11779,35418,4
0.0,0.0,0.0,19420,12972,11881,11792,35345,4
0.0,0.0,0.0,19458,12959,11868,11754,35492,4
0.0,0.0,0.0,19439,12972,11855,11766,35418,4
0.0,0.0,0.0,19420,12972,11855,11703,35528,4
0.0,0.0,0.0,19420,12972,11855,11703,35345,4
0.0,0.0,0.0,19401,12959,11855,11678,35418,4
0.0,0.0,0.0,19401,12959,11830,11691,35345,4
0.0,0.0,0.0,19382,12932,11817,11678,35272,4
0.0,0.0,0.0,19420,12959,11855,11678,35309,4
0.0,0.0,0.0,19382,12932,11830,11678,35345,4
0.0,0.0,0.0,19382,12945,11804,11678,35345,4
0.0,0.0,0.0,19401,12959,11804,11665,35345,4
0.0,0.0,0.0,19382,12959,11792,11653,35418,4
0.0,0.0,0.0,19306,12972,11792,11653,35272,4
0.0,0.0,0.0,19363,12959,11804,11653,35418,4
0.0,0.0,0.0,19401,12918,11766,11653,35455,4
0.0,0.0,0.0,19363,12918,11766,11665,35345,4
0.0,0.0,0.0,19382,12918,11766,11640,35345,4
0.0,0.0,0.0,19382,12864,11716,11653,35199,4
0.0,0.0,0.0,19306,12878,11703,11653,35345,4
0.0,0.0,0.0,19344,12905,11703,11653,35272,4
0.0,0.0,0.0,19382,12878,11703,11653,35309,4
0.0,0.0,0.0,19382,12891,11716,11640,35345,4
0.0,0.0,0.0,19344,12878,11716,11628,35345,4
0.0,0.0,0.0,19325,12918,11703,11628,35272,4
0.0,0.0,0.0,19306,12918,11703,11628,35272,4
0.0,0.0,0.0,19306,12932,11703,11640,35345,4
0.0,0.0,0.0,19306,12905,11716,11628,35345,4
0.0,0.0,0.0,19344,12932,11703,11628,35345,4
0.0,0.0,0.0,19306,12959,11703,11628,35309,4
0.0,0.0,0.0,19344,12932,11703,11653,35345,4
0.0,0.0,0.0,19325,12932,11678,11640,35345,4
0.0,0.0,0.0,19325,12959,11703,11628,35309,4
0.0,0.0,0.0,19306,12932,11703,11603,35272,4
0.0,0.0,0.0,19325,12959,11678,11628,35272,4
0.0,0.0,0.0,19325,12959,11678,11628,35272,4
0.0,0.0,0.0,19325,12945,11703,11603,35163,4
0.0,0.0,0.0,19325,12959,11703,11640,35309,4
0.0,0.0,0.0,19401,12959,11678,11603,35236,4
0.0,0.0,0.0,19287,12959,11678,11615,35272,4
0.0,0.0,0.0,19325,12959,11703,11615,35236,4
0.0,0.0,0.0,19306,12959,11691,11628,35272,4
0.0,0.0,0.0,19306,12959,11653,11628,35309,4
0.0,0.0,0.0,19344,12972,11665,11603,35345,4
0.0,0.0,0.0,19268,12959,11678,11628,35272,4
0.0,0.0,0.0,19306,12959,11653,11615,35309,4
0.0,0.0,0.0,19306,12959,11678,11603,35199,4
0.0,0.0,0.0,19306,12959,11691,11628,35272,4
0.0,0.0,0.0,19363,12959,11678,11603,35236,4
0.0,0.0,0.0,19325,12972,11665,11615,35199,4
0.0,0.0,0.0,19249,12959,11678,11615,35199,4
0.0,0.0,0.0,19287,12986,11678,11603,35272,4
0.0,0.0,0.0,19325,12972,11678,11628,35199,4
0.0,0.0,0.0,19325,13013,11678,11603,35236,4
0.0,0.0,0.0,19325,12986,11703,11603,35345,4
0.0,0.0,0.0,19363,12959,11653,11628,35309,4
0.0,0.0,0.0,19306,12972,11665,11628,35309,4
0.0,0.0,0.0,19344,12932,11665,11628,35272,4
0.0,0.0,0.0,19287,12959,11653,11603,35345,4
0.0,0.0,0.0,19344,12932,11653,11603,35382,4
0.0,0.0,0.0,19306,12905,11628,11603,35382,4
0.0,0.0,0.0,19344,12878,11653,11603,35382,4
0.0,0.0,0.0,19325,12851,11615,11603,35492,4
0.0,0.0,0.0,19287,12851,11603,11590,35272,4
0.0,0.0,0.0,19306,12851,11603,11603,35236,4
0.0,0.0,0.0,19344,12878,11615,11615,35199,4
0.0,0.0,0.0,19344,12918,11628,11615,35309,4
0.0,0.0,0.0,19306,13013,11628,11603,35236,4
0.0,0.0,0.0,19344,13081,11653,11653,35309,4
0.0,0.0,0.0,19325,13177,11716,11665,35272,4
0.0,0.0,0.0,19306,13163,11703,11703,35199,4
0.0,0.0,0.0,19306,13177,11804,11728,35163,4
0.0,0.0,0.0,19325,13177,11855,11766,35163,4
0.0,0.0,0.0,19325,13163,11804,11754,35163,4
0.0,0.0,0.0,19306,13136,11779,11754,35055,4
0.0,0.0,0.0,19325,13095,11678,11703,35163,4
0.0,0.0,0.0,19325,13040,11653,11716,35272,4
0.0,0.0,0.0,19325,13081,11628,11678,35345,4
0.0,0.0,0.0,19382,13054,11565,11665,35236,4
0.0,0.0,0.0,19325,12918,11553,11653,35163,4
0.0,0.0,0.0,19325,12690,11170,11603,35055,4
0.0,0.0,0.0,19382,12163,10700,11403,35055,4
0.0,0.0,0.0,19401,11754,10394,11255,35163,4
0.0,0.0,0.0,19401,11528,10003,11170,36010,4
0.0,0.0,0.0,19325,11403,10117,11121,35418,4
0.0,0.0,0.0,19306,11317,10163,11084,35345,4
0.0,0.0,0.0,19268,11317,10083,11072,35345,4
0.0,0.0,0.0,19268,11329,10049,11060,35163,4
0.0,0.0,0.0,19231,11379,10026,11060,35127,4
0.0,0.0,0.0,19231,11366,9980,11024,35163,4
0.0,0.0,0.0,19249,11403,9980,11012,35055,4
0.0,0.0,0.0,19231,11453,9958,11036,35091,4
0.0,0.0,0.0,19231,11453,9935,11012,35127,4
0.0,0.0,0.0,19231,11453,9935,11012,35163,4
0.0,0.0,0.0,19212,11465,9935,11012,35127,4
0.0,0.0,0.0,19193,11503,9912,11012,34982,4
0.0,0.0,0.0,19193,11515,9912,10987,35018,4
0.0,0.0,0.0,19231,11553,9935,11024,35055,4
0.0,0.0,0.0,19212,11553,9912,11012,35091,4
0.0,0.0,0.0,19249,11553,9901,11012,35455,4
0.0,0.0,0.0,19174,11553,9867,10987,35455,4
0.0,0.0,0.0,19231,11553,9867,11012,35418,4
0.0,0.0,0.0,19193,11565,9867,11012,35418,4
0.0,0.0,0.0,19193,11603,9845,11012,35345,4
0.0,0.0,0.0,19212,11628,9845,11012,35565,4
