GyroX,GyroY,GyroZ,Thumb,Index,Middle,Ring,Pinky,Gesture
0.0,0.0,0.0,18949,11060,25996,38830,32173,2
0.0,0.0,0.0,18931,11060,25945,38830,32173,2
0.0,0.0,0.0,18931,11072,25945,38830,32108,2
0.0,0.0,0.0,18931,11109,25996,38830,32108,2
0.0,0.0,0.0,18949,11060,26022,38871,32075,2
0.0,0.0,0.0,18949,11036,25971,38830,32238,2
0.0,0.0,0.0,19005,11012,25996,38789,32205,2
0.0,0.0,0.0,19005,11012,25971,38871,32108,2
0.0,0.0,0.0,18949,11012,25843,38871,32140,2
0.0,0.0,0.0,18987,11024,25894,38871,32173,2
0.0,0.0,0.0,18949,11036,25767,38789,32108,2
0.0,0.0,0.0,18931,11060,25793,38707,32108,2
0.0,0.0,0.0,18857,11060,25793,38748,32075,2
0.0,0.0,0.0,18857,11109,25742,38748,31913,2
0.0,0.0,0.0,18820,11121,25742,38748,31913,2
0.0,0.0,0.0,18820,11109,25742,38707,32043,2
0.0,0.0,0.0,18820,11145,25843,38748,31913,2
0.0,0.0,0.0,18857,11157,25818,38666,31978,2
0.0,0.0,0.0,18820,11170,25818,38666,31913,2
0.0,0.0,0.0,18783,11157,25818,38666,31849,2
0.0,0.0,0.0,18801,11157,25843,38666,31881,2
0.0,0.0,0.0,18783,11182,25793,38748,31881,2
0.0,0.0,0.0,18783,11182,25818,38666,31849,2
0.0,0.0,0.0,18783,11206,25843,38707,31849,2
0.0,0.0,0.0,18801,11206,25843,38666,31849,2
0.0,0.0,0.0,18783,11206,25818,38585,31817,2
0.0,0.0,0.0,18746,11206,25818,38625,31849,2
0.0,0.0,0.0,18783,11194,25818,38666,31849,2
0.0,0.0,0.0,18783,11194,25793,38666,31849,2
0.0,0.0,0.0,18783,11182,25793,38585,31849,2
0.0,0.0,0.0,18764,11182,25793,38666,31785,2
0.0,0.0,0.0,18783,11170,25742,38666,31817,2
0.0,0.0,0.0,18783,11170,25742,38544,31785,2
0.0,0.0,0.0,18746,11182,25742,38544,31817,2
0.0,0.0,0.0,18764,11170,25717,38503,31881,2
0.0,0.0,0.0,18709,11194,25767,38544,31688,2
0.0,0.0,0.0,18764,11182,25767,38585,31752,2
0.0,0.0,0.0,18746,11182,25742,38625,31752,2
0.0,0.0,0.0,18727,11157,25717,38544,31752,2
0.0,0.0,0.0,18783,11084,25691,38585,31785,2
0.0,0.0,0.0,18727,11084,25691,38625,31720,2
0.0,0.0,0.0,18764,11060,25691,38585,31720,2
0.0,0.0,0.0,18709,11060,25641,38544,31752,2
0.0,0.0,0.0,18727,11072,25641,38503,31817,2
0.0,0.0,0.0,18764,11109,25641,38422,31785,2
0.0,0.0,0.0,18727,11109,25616,38544,31752,2
0.0,0.0,0.0,18746,11109,25641,38544,31752,2
0.0,0.0,0.0,18709,11133,25616,38544,31720,2
0.0,0.0,0.0,18709,11133,25616,38503,31752,2
0.0,0.0,0.0,18709,11121,25641,38422,31752,2
0.0,0.0,0.0,18709,11121,25591,38503,31752,2
0.0,0.0,0.0,18709,11121,25591,38503,31720,2
0.0,0.0,0.0,18709,11157,25616,38503,31720,2
0.0,0.0,0.0,18654,11157,25591,38503,31688,2
0.0,0.0,0.0,18691,11157,25641,38544,31624,2
0.0,0.0,0.0,18672,11182,25616,38463,31720,2
0.0,0.0,0.0,18709,11182,25616,38463,31656,2
0.0,0.0,0.0,18691,11170,25591,38503,31656,2
0.0,0.0,0.0,18709,11206,25540,38422,31720,2
0.0,0.0,0.0,18709,11182,25591,38503,31624,2
0.0,0.0,0.0,18709,11206,25616,38463,31656,2
0.0,0.0,0.0,18709,11206,25591,38463,31720,2
0.0,0.0,0.0,18691,11206,25540,38422,31688,2
0.0,0.0,0.0,18709,11206,25591,38503,31720,2
0.0,0.0,0.0,18654,11255,25591,38422,31624,2
0.0,0.0,0.0,18654,11206,25616,38422,31593,2
0.0,0.0,0.0,18654,11206,25591,38422,31561,2
0.0,0.0,0.0,18672,11219,25591,38422,31656,2
0.0,0.0,0.0,18654,11206,25591,38422,31624,2
0.0,0.0,0.0,18635,11206,25591,38503,31529,2
0.0,0.0,0.0,18672,11194,25591,38422,31593,2
0.0,0.0,0.0,18654,11206,25641,38422,31497,2
0.0,0.0,0.0,18635,11206,25591,38503,31529,2
0.0,0.0,0.0,18635,11219,25616,38260,31656,2
0.0,0.0,0.0,18654,11219,25616,38382,31593,2
0.0,0.0,0.0,18654,11219,25616,38341,31561,2
0.0,0.0,0.0,18635,11206,25616,38382,31497,2
0.0,0.0,0.0,18617,11255,25641,38301,31593,2
0.0,0.0,0.0,18635,11206,25641,38301,31593,2
0.0,0.0,0.0,18654,11182,25641,38382,31593,2
0.0,0.0,0.0,18654,11206,25591,38341,31593,2
0.0,0.0,0.0,18635,11219,25540,38382,31561,2
0.0,0.0,0.0,18635,11255,25591,38341,31561,2
0.0,0.0,0.0,18635,11255,25666,38382,31497,2
0.0,0.0,0.0,18635,11231,25591,38260,31497,2
0.0,0.0,0.0,18599,11255,25641,38422,31497,2
0.0,0.0,0.0,18635,11280,25591,38260,31593,2
0.0,0.0,0.0,18599,11304,25616,38260,31561,2
0.0,0.0,0.0,18599,11268,25666,38341,31497,2
0.0,0.0,0.0,18635,11268,25591,38260,31529,2
0.0,0.0,0.0,18635,11268,25616,38341,31497,2
0.0,0.0,0.0,18635,11280,25591,38260,31497,2
0.0,0.0,0.0,18654,11280,25591,38341,31434,2
0.0,0.0,0.0,18599,11255,25540,38220,31465,2
0.0,0.0,0.0,18599,11292,25591,38220,31497,2
0.0,0.0,0.0,18654,11268,25591,38260,31370,2
0.0,0.0,0.0,18635,11280,25591,38341,31465,2
0.0,0.0,0.0,18635,11280,25591,38220,31465,2
0.0,0.0,0.0,18635,11255,25565,38260,31497,2
0.0,0.0,0.0,18581,11280,25540,38180,31465,2
0.0,0.0,0.0,18599,11304,25490,38260,31529,2
0.0,0.0,0.0,18617,11268,25591,38180,31434,2
0.0,0.0,0.0,18617,11304,25540,38260,31402,2
0.0,0.0,0.0,18581,11268,25515,38260,31402,2
0.0,0.0,0.0,18635,11280,25540,38220,31370,2
0.0,0.0,0.0,18581,11268,25540,38220,31402,2
0.0,0.0,0.0,18599,11304,25540,38220,31402,2
0.0,0.0,0.0,18617,11304,25540,38140,31370,2
0.0,0.0,0.0,18562,11292,25540,38260,31402,2
0.0,0.0,0.0,18562,11280,25515,38180,31402,2
0.0,0.0,0.0,18562,11304,25490,38260,31370,2
0.0,0.0,0.0,18581,11292,25515,38220,31402,2
0.0,0.0,0.0,18581,11280,25591,38260,31370,2
0.0,0.0,0.0,18581,11292,25490,38180,31465,2
0.0,0.0,0.0,18599,11317,25490,38180,31402,2
0.0,0.0,0.0,18581,11280,25490,38220,31339,2
0.0,0.0,0.0,18581,11304,25440,38140,31339,2
0.0,0.0,0.0,18599,11304,25490,38180,31276,2
0.0,0.0,0.0,18581,11304,25490,38100,31244,2
0.0,0.0,0.0,18599,11304,25515,38180,31276,2
0.0,0.0,0.0,18635,11304,25465,38019,31244,2
0.0,0.0,0.0,18635,11304,25490,38059,31244,2
0.0,0.0,0.0,18617,11304,25490,38019,31276,2
0.0,0.0,0.0,18581,11317,25490,38059,31276,2
0.0,0.0,0.0,18581,11304,25490,38019,31244,2
0.0,0.0,0.0,18562,11317,25440,38019,31150,2
0.0,0.0,0.0,18562,11304,25440,38100,31213,2
0.0,0.0,0.0,18562,11304,25440,38019,31213,2
0.0,0.0,0.0,18562,11304,25490,38019,31213,2
0.0,0.0,0.0,18581,11304,25415,38019,31244,2
0.0,0.0,0.0,18544,11304,25440,38019,31181,2
0.0,0.0,0.0,18544,11304,25415,37940,31244,2
0.0,0.0,0.0,18526,11304,25440,37940,31213,2
0.0,0.0,0.0,18581,11317,25415,37980,31213,2
0.0,0.0,0.0,18562,11304,25415,38059,31150,2
0.0,0.0,0.0,18562,11317,25440,37900,31244,2
0.0,0.0,0.0,18562,11304,25440,38019,31181,2
0.0,0.0,0.0,18562,11304,25440,38019,31213,2
0.0,0.0,0.0,18617,11329,25440,37940,31150,2
0.0,0.0,0.0,18581,11329,25440,37940,31213,2
0.0,0.0,0.0,18562,11329,25415,37860,31213,2
0.0,0.0,0.0,18544,11304,25440,37940,31213,2
0.0,0.0,0.0,18562,11329,25415,37900,31213,2
0.0,0.0,0.0,18562,11329,25390,37860,31213,2
0.0,0.0,0.0,18562,11329,25390,37860,31150,2
0.0,0.0,0.0,18508,11341,25390,37940,31119,2
0.0,0.0,0.0,18562,11341,25440,37940,31213,2
0.0,0.0,0.0,18562,11317,25415,37900,31213,2
0.0,0.0,0.0,18508,11341,25390,38019,31150,2
0.0,0.0,0.0,18508,11354,25390,37820,31213,2
0.0,0.0,0.0,18526,11354,25440,37860,31119,2
0.0,0.0,0.0,18562,11341,25415,37940,31213,2
0.0,0.0,0.0,18526,11354,25390,37860,31150,2
0.0,0.0,0.0,18508,11341,25341,37860,31150,2
0.0,0.0,0.0,18562,11354,25341,37940,31150,2
0.0,0.0,0.0,18508,11354,25390,37900,31213,2
0.0,0.0,0.0,18489,11329,25365,37860,31213,2
0.0,0.0,0.0,18435,11354,25390,37860,31025,2
0.0,0.0,0.0,18417,11354,25390,37860,31087,2
0.0,0.0,0.0,18380,11354,25341,37781,31119,2
0.0,0.0,0.0,18417,11354,25390,37781,31025,2
0.0,0.0,0.0,18399,11354,25341,37781,31119,2
0.0,0.0,0.0,18417,11379,25291,37781,30962,2
0.0,0.0,0.0,18272,11379,25390,37426,30745,2
0.0,0.0,0.0,17220,11379,25044,36010,29865,2
0.0,0.0,0.0,16385,11354,24630,34553,29071,2
0.0,0.0,0.0,15397,11329,24129,33679,28527,2
0.0,0.0,0.0,15043,11304,23987,33202,27966,2
0.0,0.0,0.0,14876,11304,23894,32899,27581,2
0.0,0.0,0.0,14786,11317,23940,32732,27283,2
0.0,0.0,0.0,14846,11304,23777,32435,27256,2
0.0,0.0,0.0,14846,11304,23754,32467,27229,2
0.0,0.0,0.0,14967,11329,23777,32271,27175,2
0.0,0.0,0.0,15028,11354,23707,32238,27202,2
0.0,0.0,0.0,15089,11354,23684,32303,27310,2
0.0,0.0,0.0,15150,11341,23707,32435,27364,2
0.0,0.0,0.0,15181,11391,23754,32666,27310,2
0.0,0.0,0.0,15135,11366,23754,32699,27364,2
0.0,0.0,0.0,15135,11403,23777,32765,27310,2
0.0,0.0,0.0,15335,11403,23847,32832,27337,2
0.0,0.0,0.0,15319,11379,23894,32699,27310,2
0.0,0.0,0.0,15412,11379,23917,32765,27364,2
0.0,0.0,0.0,15537,11304,24034,32799,27364,2
0.0,0.0,0.0,15663,11206,24034,32799,27364,2
0.0,0.0,0.0,15900,11206,24058,32832,27310,2
0.0,0.0,0.0,15980,11206,24034,32866,27310,2
0.0,0.0,0.0,15900,11182,23987,32832,27202,2
0.0,0.0,0.0,15980,11133,24034,32832,27256,2
0.0,0.0,0.0,16093,11109,23987,32832,27202,2
0.0,0.0,0.0,16093,11109,23940,32799,27175,2
0.0,0.0,0.0,16125,11109,23940,32765,27148,2
0.0,0.0,0.0,16125,11084,23940,32832,27068,2
0.0,0.0,0.0,16157,11109,23940,32866,27175,2
0.0,0.0,0.0,16157,11109,23894,32765,27122,2
0.0,0.0,0.0,16093,11109,23870,32799,27148,2
0.0,0.0,0.0,16109,11060,23870,32799,27122,2
0.0,0.0,0.0,16157,11145,23824,32866,27041,2
0.0,0.0,0.0,16157,11170,23847,32899,27095,2
0.0,0.0,0.0,16173,11157,23754,32899,27041,2
0.0,0.0,0.0,16173,11157,23824,32899,27041,2
0.0,0.0,0.0,16173,11182,23777,32932,27068,2
0.0,0.0,0.0,16287,11133,23847,32999,27095,2
0.0,0.0,0.0,16483,11206,23917,33033,27095,2
0.0,0.0,0.0,16516,11182,23894,33033,27148,2
0.0,0.0,0.0,16516,11206,23940,33100,27095,2
0.0,0.0,0.0,16516,11170,23894,33100,27148,2
0.0,0.0,0.0,16516,11182,23917,33067,27148,2
0.0,0.0,0.0,16516,11206,23940,33067,27148,2
0.0,0.0,0.0,16549,11206,23940,33100,27148,2
0.0,0.0,0.0,16549,11206,23894,33100,27229,2
0.0,0.0,0.0,16549,11231,23894,33067,27256,2
0.0,0.0,0.0,16565,11231,23940,33168,27175,2
0.0,0.0,0.0,16549,11255,23894,33168,27256,2
0.0,0.0,0.0,16499,11255,23894,33100,27202,2
0.0,0.0,0.0,16698,11255,23894,33100,27256,2
0.0,0.0,0.0,16615,11243,23847,33033,27283,2
0.0,0.0,0.0,16582,11255,23894,32899,27202,2
0.0,0.0,0.0,16598,11255,23847,32899,27202,2
0.0,0.0,0.0,16352,11255,23847,32932,27256,2
0.0,0.0,0.0,15996,11255,23940,32932,27202,2
0.0,0.0,0.0,15852,11280,23894,32899,27364,2
0.0,0.0,0.0,15964,11292,23870,32832,27202,2
0.0,0.0,0.0,15980,11280,23894,32899,27256,2
0.0,0.0,0.0,16028,11280,23894,32899,27256,2
0.0,0.0,0.0,16028,11292,23824,32866,27256,2
0.0,0.0,0.0,16044,11280,23870,32799,27202,2
0.0,0.0,0.0,16093,11280,23894,32866,27202,2
0.0,0.0,0.0,16109,11304,23847,32866,27202,2
0.0,0.0,0.0,16173,11354,23870,32899,27148,2
0.0,0.0,0.0,16076,11255,23847,32832,27175,2
0.0,0.0,0.0,16093,11280,23754,32765,27283,2
0.0,0.0,0.0,16157,11280,23824,32799,27283,2
0.0,0.0,0.0,16141,11304,23800,32799,27256,2
0.0,0.0,0.0,16012,11268,23870,32832,27256,2
0.0,0.0,0.0,15996,11268,23847,32832,27256,2
0.0,0.0,0.0,15900,11255,23870,32832,27310,2
0.0,0.0,0.0,15900,11304,23894,32866,27283,2
0.0,0.0,0.0,15837,11280,23940,32899,27310,2
0.0,0.0,0.0,15789,11268,23964,32899,27364,2
0.0,0.0,0.0,15741,11280,23964,33033,27337,2
0.0,0.0,0.0,15773,11255,23964,32899,27256,2
0.0,0.0,0.0,15773,11255,23940,32932,27364,2
0.0,0.0,0.0,15773,11280,23940,32966,27364,2
0.0,0.0,0.0,15773,11255,23964,32899,27283,2
0.0,0.0,0.0,15773,11255,23964,32932,27364,2
0.0,0.0,0.0,15852,11255,23987,32932,27337,2
0.0,0.0,0.0,15852,11255,24034,32966,27364,2
0.0,0.0,0.0,15852,11255,24058,32932,27445,2
0.0,0.0,0.0,15900,11255,24129,32899,27391,2
0.0,0.0,0.0,15916,11194,24034,32966,27418,2
0.0,0.0,0.0,15932,11206,24011,32932,27310,2
0.0,0.0,0.0,15916,11206,24034,32932,27364,2
0.0,0.0,0.0,15932,11206,24034,32899,27364,2
0.0,0.0,0.0,15932,11219,23964,32966,27283,2
0.0,0.0,0.0,15980,11206,23987,32899,27256,2
0.0,0.0,0.0,15980,11206,23987,32966,27337,2
0.0,0.0,0.0,15932,11255,23940,32966,27256,2
0.0,0.0,0.0,15996,11231,23964,32932,27202,2
0.0,0.0,0.0,15964,11231,23964,32832,27283,2
0.0,0.0,0.0,15996,11206,23987,32899,27256,2
0.0,0.0,0.0,15996,11255,23987,32899,27175,2
0.0,0.0,0.0,16044,11231,23940,32899,27202,2
0.0,0.0,0.0,16125,11255,23964,32832,27175,2
0.0,0.0,0.0,16060,11255,23940,32899,27202,2
0.0,0.0,0.0,16093,11255,23964,32966,27256,2
0.0,0.0,0.0,16093,11231,23964,32932,27175,2
0.0,0.0,0.0,16093,11255,23940,32932,27256,2
0.0,0.0,0.0,16125,11255,23940,32899,27229,2
0.0,0.0,0.0,16093,11243,23940,32966,27256,2
0.0,0.0,0.0,16093,11255,23940,32932,27202,2
0.0,0.0,0.0,16109,11255,23940,32899,27256,2
0.0,0.0,0.0,16109,11255,23870,32866,27148,2
0.0,0.0,0.0,16076,11255,23940,32832,27175,2
0.0,0.0,0.0,16093,11255,23940,32899,27175,2
0.0,0.0,0.0,16093,11255,23917,32832,27095,2
0.0,0.0,0.0,16109,11304,23917,32899,27202,2
0.0,0.0,0.0,16093,11255,23940,32899,27256,2
0.0,0.0,0.0,16125,11280,23940,32899,27148,2
0.0,0.0,0.0,16173,11268,23917,32932,27175,2
0.0,0.0,0.0,16206,11268,23894,32866,27202,2
0.0,0.0,0.0,16173,11255,23847,32866,27175,2
0.0,0.0,0.0,16189,11268,23917,32932,27256,2
0.0,0.0,0.0,16189,11255,23940,32899,27202,2
0.0,0.0,0.0,16222,11255,24011,32899,27256,2
0.0,0.0,0.0,16189,11268,23964,32932,27148,2
0.0,0.0,0.0,16271,11231,23964,32999,27202,2
0.0,0.0,0.0,16238,11255,23964,32966,27202,2
0.0,0.0,0.0,16287,11255,23940,32966,27202,2
0.0,0.0,0.0,16287,11255,23987,33033,27202,2
0.0,0.0,0.0,16303,11255,23894,32966,27256,2
0.0,0.0,0.0,16303,11255,23894,32966,27148,2
0.0,0.0,0.0,16254,11255,23940,33033,27256,2
0.0,0.0,0.0,16352,11255,23870,32966,27148,2
0.0,0.0,0.0,16303,11255,23870,32966,27175,2
0.0,0.0,0.0,16287,11255,23894,32899,27256,2
0.0,0.0,0.0,16287,11255,23894,33033,27202,2
0.0,0.0,0.0,16287,11280,23894,32966,27256,2
0.0,0.0,0.0,16303,11268,23847,32966,27175,2
0.0,0.0,0.0,16303,11292,23824,32999,27175,2
0.0,0.0,0.0,16352,11292,23847,33033,27202,2
0.0,0.0,0.0,16352,11304,23824,32932,27175,2
0.0,0.0,0.0,16303,11304,23847,33033,27202,2
0.0,0.0,0.0,16352,11304,23824,33033,27229,2
0.0,0.0,0.0,16368,11280,23824,33067,27202,2
0.0,0.0,0.0,16352,11280,23847,32899,27202,2
0.0,0.0,0.0,16352,11280,23777,32966,27256,2
0.0,0.0,0.0,16303,11280,23800,32932,27175,2
0.0,0.0,0.0,16319,11280,23754,33033,27202,2
0.0,0.0,0.0,16385,11304,23800,32999,27122,2
0.0,0.0,0.0,16532,11317,23824,32932,27175,2
0.0,0.0,0.0,16516,11317,23894,33033,27175,2
0.0,0.0,0.0,16516,11317,23800,32899,27175,2
0.0,0.0,0.0,16598,11304,23800,33033,27229,2
0.0,0.0,0.0,16582,11304,23964,32899,27122,2
0.0,0.0,0.0,16287,11329,24081,32932,27095,2
0.0,0.0,0.0,15852,11366,24414,32932,27041,2
0.0,0.0,0.0,15647,11379,24995,33439,27310,2
0.0,0.0,0.0,15678,11403,25266,33645,27418,2
0.0,0.0,0.0,15615,11403,25793,34341,27828,2
0.0,0.0,0.0,15521,11403,25945,34271,27828,2
0.0,0.0,0.0,15428,11453,26047,34306,27883,2
0.0,0.0,0.0,15647,11528,26228,34341,27828,2
0.0,0.0,0.0,16012,11653,26357,34447,27856,2
0.0,0.0,0.0,16352,11665,26670,35309,28245,2
0.0,0.0,0.0,16582,11665,26670,35492,28301,2
0.0,0.0,0.0,16915,11628,26776,35935,28612,2
0.0,0.0,0.0,17357,11615,26723,36462,29100,2
0.0,0.0,0.0,17774,11615,26670,36843,29450,2
0.0,0.0,0.0,18200,11653,26670,37230,29746,2
0.0,0.0,0.0,18435,11653,26618,37386,29775,2
0.0,0.0,0.0,18489,11628,26670,37386,29865,2
0.0,0.0,0.0,18581,11615,26644,37701,29865,2
0.0,0.0,0.0,18801,11553,26566,37860,30075,2
0.0,0.0,0.0,18894,11515,26566,37980,30105,2
0.0,0.0,0.0,18801,11528,26566,38019,30045,2
0.0,0.0,0.0,18617,11528,26566,37741,29955,2
0.0,0.0,0.0,18635,11528,26513,37741,29984,2
0.0,0.0,0.0,18489,11528,26566,37860,29895,2
0.0,0.0,0.0,18544,11503,26592,38059,29865,2
0.0,0.0,0.0,18453,11515,26513,37980,29805,2
0.0,0.0,0.0,18344,11553,26513,37701,29627,2
0.0,0.0,0.0,18362,11553,26513,37465,29597,2
0.0,0.0,0.0,18344,11528,26409,37426,29568,2
0.0,0.0,0.0,18308,11553,26409,37269,29509,2
0.0,0.0,0.0,18272,11553,26331,37308,29450,2
0.0,0.0,0.0,18236,11553,26331,37191,29421,2
0.0,0.0,0.0,18236,11565,26253,37152,29391,2
0.0,0.0,0.0,18236,11578,26228,36998,29391,2
0.0,0.0,0.0,18236,11603,26202,36959,29362,2
0.0,0.0,0.0,18236,11578,26202,36882,29333,2
0.0,0.0,0.0,18200,11553,26124,36920,29333,2
0.0,0.0,0.0,18147,11553,26202,36959,29333,2
0.0,0.0,0.0,18200,11565,26150,36843,29391,2
0.0,0.0,0.0,18182,11553,26099,36998,29391,2
0.0,0.0,0.0,18200,11553,26124,36843,29304,2
0.0,0.0,0.0,18200,11553,26099,36920,29245,2
0.0,0.0,0.0,18164,11528,26073,36805,29187,2
0.0,0.0,0.0,18200,11528,26099,36805,29216,2
0.0,0.0,0.0,18164,11528,26073,36767,29100,2
0.0,0.0,0.0,18164,11540,26047,36690,29216,2
0.0,0.0,0.0,18182,11528,26047,36690,29216,2
0.0,0.0,0.0,18129,11553,25996,36652,29100,2
0.0,0.0,0.0,18182,11553,25996,36690,29042,2
0.0,0.0,0.0,18182,11515,26022,36690,29158,2
0.0,0.0,0.0,18182,11528,26047,36690,29216,2
0.0,0.0,0.0,18129,11553,25971,36614,29071,2
0.0,0.0,0.0,18200,11553,25996,36690,29100,2
0.0,0.0,0.0,18182,11540,25996,36614,29013,2
0.0,0.0,0.0,18164,11578,25945,36462,29042,2
0.0,0.0,0.0,18129,11565,25945,36499,29071,2
0.0,0.0,0.0,18129,11578,25945,36538,28984,2
0.0,0.0,0.0,18129,11565,25996,36499,28955,2
0.0,0.0,0.0,18147,11603,25945,36499,29013,2
0.0,0.0,0.0,18129,11603,25945,36576,28955,2
0.0,0.0,0.0,18111,11578,25945,36462,28984,2
0.0,0.0,0.0,18093,11615,25971,36462,29013,2
0.0,0.0,0.0,18129,11628,25996,36499,28984,2
0.0,0.0,0.0,18075,11603,25920,36499,28984,2
0.0,0.0,0.0,18129,11615,25996,36462,28955,2
0.0,0.0,0.0,18075,11615,25920,36462,29071,2
0.0,0.0,0.0,18129,11628,25894,36386,28984,2
0.0,0.0,0.0,18129,11603,25894,36348,29042,2
0.0,0.0,0.0,18093,11603,25920,36462,28984,2
0.0,0.0,0.0,18075,11603,25894,36348,28955,2
0.0,0.0,0.0,18093,11628,25894,36386,28955,2
0.0,0.0,0.0,18093,11628,25894,36462,29042,2
0.0,0.0,0.0,18075,11603,25894,36348,28869,2
0.0,0.0,0.0,18093,11615,25843,36348,28869,2
0.0,0.0,0.0,18075,11603,25894,36386,28955,2
0.0,0.0,0.0,18022,11603,25894,36386,28984,2
0.0,0.0,0.0,18147,11603,25818,36386,28898,2
0.0,0.0,0.0,18057,11603,25818,36424,28927,2
0.0,0.0,0.0,18057,11603,25843,36272,28927,2
0.0,0.0,0.0,18022,11603,25793,36310,28927,2
0.0,0.0,0.0,18057,11615,25818,36235,28927,2
0.0,0.0,0.0,18075,11640,25793,36235,28955,2
0.0,0.0,0.0,18057,11628,25818,36235,28984,2
0.0,0.0,0.0,18057,11628,25818,36310,28869,2
0.0,0.0,0.0,18057,11615,25818,36197,28927,2
0.0,0.0,0.0,18004,11615,25818,36235,28898,2
0.0,0.0,0.0,18057,11628,25818,36235,28869,2
0.0,0.0,0.0,18057,11640,25818,36122,28898,2
0.0,0.0,0.0,18004,11615,25793,36122,28927,2
0.0,0.0,0.0,18022,11628,25818,36160,28840,2
0.0,0.0,0.0,18039,11615,25742,36160,28840,2
0.0,0.0,0.0,18004,11603,25793,36085,28927,2
0.0,0.0,0.0,18057,11615,25793,36085,28812,2
0.0,0.0,0.0,18022,11628,25742,36122,28898,2
0.0,0.0,0.0,17986,11653,25742,36122,28898,2
0.0,0.0,0.0,18004,11603,25793,36160,28955,2
0.0,0.0,0.0,17986,11628,25793,36047,28927,2
0.0,0.0,0.0,18022,11653,25742,36010,28869,2
0.0,0.0,0.0,17986,11615,25717,36010,28840,2
0.0,0.0,0.0,17986,11628,25793,36160,28927,2
0.0,0.0,0.0,17986,11615,25793,36085,28869,2
0.0,0.0,0.0,18057,11640,25717,36010,28869,2
0.0,0.0,0.0,17986,11628,25742,36010,28927,2
0.0,0.0,0.0,17986,11628,25742,36010,28840,2
0.0,0.0,0.0,17986,11678,25742,36085,28812,2
0.0,0.0,0.0,17986,11628,25742,36085,28840,2
0.0,0.0,0.0,17968,11628,25742,36010,28840,2
0.0,0.0,0.0,17986,11653,25691,35972,28840,2
0.0,0.0,0.0,17986,11628,25767,36010,28869,2
0.0,0.0,0.0,18022,11653,25691,35972,28812,2
0.0,0.0,0.0,18004,11665,25691,35935,28869,2
0.0,0.0,0.0,18057,11653,25691,36010,28840,2
0.0,0.0,0.0,17986,11653,25742,36085,28869,2
0.0,0.0,0.0,17986,11615,25691,35972,28783,2
0.0,0.0,0.0,17986,11628,25742,36010,28869,2
0.0,0.0,0.0,18039,11665,25691,36010,28869,2
0.0,0.0,0.0,17986,11653,25742,36047,28812,2
0.0,0.0,0.0,18022,11678,25691,35935,28754,2
0.0,0.0,0.0,17951,11653,25742,36085,28840,2
0.0,0.0,0.0,17933,11653,25691,35935,28783,2
0.0,0.0,0.0,17933,11678,25742,36010,28869,2
0.0,0.0,0.0,17933,11628,25742,36010,28869,2
0.0,0.0,0.0,17986,11628,25666,35935,28840,2
0.0,0.0,0.0,17986,11628,25742,35824,28812,2
0.0,0.0,0.0,17986,11653,25666,35676,28840,2
0.0,0.0,0.0,18039,11603,25616,35492,28812,2
0.0,0.0,0.0,17880,11603,25641,35272,28812,2
0.0,0.0,0.0,17495,11603,25440,34767,28869,2
0.0,0.0,0.0,17289,11615,25341,34589,28840,2
0.0,0.0,0.0,17050,11615,25118,34412,28783,2
0.0,0.0,0.0,16815,11603,24995,34200,28726,2
0.0,0.0,0.0,16483,11603,24921,34095,28754,2
0.0,0.0,0.0,16189,11603,24775,34026,28697,2
0.0,0.0,0.0,16028,11603,24702,34026,28583,2
0.0,0.0,0.0,16012,11603,24630,33991,28555,2
0.0,0.0,0.0,16076,11590,24654,33956,28527,2
0.0,0.0,0.0,16173,11603,24654,33921,28583,2
0.0,0.0,0.0,16352,11603,24702,33921,28555,2
0.0,0.0,0.0,16434,11540,24775,33956,28470,2
0.0,0.0,0.0,16615,11565,24848,33991,28414,2
0.0,0.0,0.0,16798,11565,24995,33991,28470,2
0.0,0.0,0.0,16915,11578,25068,33887,28470,2
0.0,0.0,0.0,17016,11578,25142,33956,28442,2
0.0,0.0,0.0,17016,11565,25093,33852,28527,2
0.0,0.0,0.0,17084,11565,25142,33921,28470,2
0.0,0.0,0.0,17152,11565,25142,33991,28414,2
0.0,0.0,0.0,17186,11578,25216,33956,28470,2
0.0,0.0,0.0,17289,11553,25192,33956,28442,2
0.0,0.0,0.0,17323,11528,25241,33852,28527,2
0.0,0.0,0.0,17323,11515,25291,33921,28583,2
0.0,0.0,0.0,17357,11503,25365,33852,28498,2
0.0,0.0,0.0,17357,11428,25341,33852,28442,2
0.0,0.0,0.0,17495,11453,25316,33852,28470,2
0.0,0.0,0.0,17426,11403,25316,33852,28414,2
0.0,0.0,0.0,17513,11379,25291,33921,28498,2
0.0,0.0,0.0,17495,11403,25266,33852,28470,2
0.0,0.0,0.0,17495,11403,25192,33852,28470,2
0.0,0.0,0.0,17513,11403,25142,33852,28470,2
0.0,0.0,0.0,17495,11403,25093,33852,28498,2
0.0,0.0,0.0,17495,11416,25093,33852,28470,2
0.0,0.0,0.0,17495,11428,25118,33852,28470,2
0.0,0.0,0.0,17634,11403,25118,33748,28414,2
0.0,0.0,0.0,17669,11428,25192,33852,28414,2
0.0,0.0,0.0,17652,11416,25167,33783,28470,2
0.0,0.0,0.0,17774,11465,25241,33748,28357,2
0.0,0.0,0.0,17757,11453,25341,33783,28301,2
0.0,0.0,0.0,17722,11453,25316,33817,28357,2
0.0,0.0,0.0,17669,11490,25365,33748,28301,2
0.0,0.0,0.0,17722,11478,25341,33852,28357,2
0.0,0.0,0.0,17652,11478,25316,33714,28301,2
0.0,0.0,0.0,17669,11503,25365,33748,28357,2
0.0,0.0,0.0,17704,11465,25341,33783,28301,2
0.0,0.0,0.0,17739,11478,25341,33714,28357,2
0.0,0.0,0.0,17792,11478,25415,33783,28329,2
0.0,0.0,0.0,17774,11503,25390,33748,28301,2
0.0,0.0,0.0,17774,11478,25390,33783,28357,2
0.0,0.0,0.0,17774,11503,25316,33817,28301,2
0.0,0.0,0.0,17722,11465,25390,33852,28357,2
0.0,0.0,0.0,17582,11515,25291,33714,28301,2
0.0,0.0,0.0,17357,11528,25291,33748,28301,2
0.0,0.0,0.0,17084,11515,25241,33679,28301,2
0.0,0.0,0.0,16915,11515,25241,33645,28245,2
0.0,0.0,0.0,16815,11503,25192,33508,28217,2
0.0,0.0,0.0,16450,11515,25142,33439,28161,2
0.0,0.0,0.0,16254,11503,25044,33439,28189,2
0.0,0.0,0.0,16206,11503,25019,33508,28133,2
0.0,0.0,0.0,16287,11515,24995,33508,28189,2
0.0,0.0,0.0,16499,11528,24995,33508,28133,2
0.0,0.0,0.0,16483,11528,24995,33508,28105,2
0.0,0.0,0.0,16483,11528,25019,33439,28133,2
0.0,0.0,0.0,16417,11515,24995,33542,28133,2
0.0,0.0,0.0,16222,11503,24946,33371,28049,2
0.0,0.0,0.0,16076,11503,24995,33439,28217,2
0.0,0.0,0.0,16028,11478,24970,33405,28133,2
0.0,0.0,0.0,15964,11503,24946,33439,28189,2
0.0,0.0,0.0,15980,11503,24897,33371,28189,2
0.0,0.0,0.0,15916,11503,24824,33508,28217,2
0.0,0.0,0.0,15900,11453,24824,33337,28161,2
0.0,0.0,0.0,15916,11490,24873,33337,28161,2
0.0,0.0,0.0,16222,11528,24824,33303,28189,2
0.0,0.0,0.0,16368,11528,24799,33303,28161,2
0.0,0.0,0.0,16698,11540,24848,33303,28133,2
0.0,0.0,0.0,17050,11553,24946,33371,27499,2
0.0,0.0,0.0,17152,11553,25241,33474,27527,2
0.0,0.0,0.0,17443,11565,25390,33714,27527,2
0.0,0.0,0.0,17582,11565,25515,33852,27527,2
0.0,0.0,0.0,17565,11603,25440,33748,27472,2
0.0,0.0,0.0,17565,11565,25316,33714,27418,2
0.0,0.0,0.0,17582,11578,25316,33714,27445,2
0.0,0.0,0.0,17600,11578,25316,33679,27418,2
0.0,0.0,0.0,17634,11553,25266,33748,27445,2
0.0,0.0,0.0,17704,11553,25291,33645,27472,2
0.0,0.0,0.0,17669,11528,25241,33748,27472,2
0.0,0.0,0.0,17704,11565,25241,33645,27445,2
0.0,0.0,0.0,17774,11553,25291,33748,27499,2
0.0,0.0,0.0,17792,11515,25291,33714,27472,2
0.0,0.0,0.0,17845,11478,25266,33645,27472,2
0.0,0.0,0.0,17845,11453,25291,33817,27499,2
0.0,0.0,0.0,17862,11465,25291,33817,27445,2
0.0,0.0,0.0,17809,11403,25316,33714,27391,2
0.0,0.0,0.0,17880,11416,25291,33748,27364,2
0.0,0.0,0.0,17986,11317,25490,33783,27472,2
0.0,0.0,0.0,18057,11280,25591,33714,27472,2
0.0,0.0,0.0,18218,11255,25591,33852,27581,2
0.0,0.0,0.0,18272,11255,25591,33783,27499,2
0.0,0.0,0.0,18254,11231,25515,33748,27527,2
0.0,0.0,0.0,18236,11255,25415,33679,27472,2
0.0,0.0,0.0,18182,11231,25390,33645,27499,2
0.0,0.0,0.0,18164,11231,25291,33679,27472,2
0.0,0.0,0.0,18164,11255,25291,33645,27472,2
0.0,0.0,0.0,18129,11231,25291,33714,27418,2
0.0,0.0,0.0,18129,11255,25241,33679,27472,2
0.0,0.0,0.0,18129,11280,25241,33645,27472,2
0.0,0.0,0.0,18147,11292,25142,33645,27472,2
0.0,0.0,0.0,18129,11304,25192,33611,27472,2
0.0,0.0,0.0,18093,11317,25142,33611,27418,2
0.0,0.0,0.0,18129,11329,25192,33611,27418,2
0.0,0.0,0.0,18093,11354,25142,33576,27364,2
0.0,0.0,0.0,18129,11354,25142,33679,27472,2
0.0,0.0,0.0,18164,11379,25142,33611,27472,2
0.0,0.0,0.0,18164,11354,25142,33645,27472,2
0.0,0.0,0.0,18129,11354,25192,33611,27418,2
0.0,0.0,0.0,18129,11366,25118,33611,27472,2
0.0,0.0,0.0,18200,11354,25192,33611,27527,2
0.0,0.0,0.0,18164,11379,25192,33679,27445,2
0.0,0.0,0.0,18200,11379,25142,33645,27527,2
0.0,0.0,0.0,18236,11379,25142,33611,27554,2
0.0,0.0,0.0,18254,11366,25216,33645,27472,2
0.0,0.0,0.0,18236,11403,25192,33611,27364,2
0.0,0.0,0.0,18236,11403,25142,33611,27472,2
0.0,0.0,0.0,18236,11403,25167,33576,27418,2
0.0,0.0,0.0,18236,11379,25093,33576,27472,2
0.0,0.0,0.0,18236,11403,25118,33542,27472,2
0.0,0.0,0.0,18272,11403,25142,33576,27472,2
0.0,0.0,0.0,18272,11403,25093,33576,27418,2
0.0,0.0,0.0,18272,11403,25118,33576,27499,2
0.0,0.0,0.0,18272,11416,25118,33576,27499,2
0.0,0.0,0.0,18308,11403,25093,33508,27472,2
0.0,0.0,0.0,18272,11391,25142,33645,27472,2
0.0,0.0,0.0,18236,11403,25093,33611,27499,2
0.0,0.0,0.0,18272,11403,25093,33576,27499,2
0.0,0.0,0.0,18272,11403,25118,33576,27472,2
0.0,0.0,0.0,18308,11403,25093,33576,27472,2
0.0,0.0,0.0,18417,11391,25068,33576,27472,2
0.0,0.0,0.0,18344,11391,25044,33611,27527,2
0.0,0.0,0.0,18200,11403,25019,33542,27472,2
0.0,0.0,0.0,17722,11403,24873,33439,27445,2
0.0,0.0,0.0,17392,11403,24995,33439,27364,2
0.0,0.0,0.0,16966,11403,25019,33303,27418,2
0.0,0.0,0.0,16060,11366,24824,33303,27527,2
0.0,0.0,0.0,15773,11354,24678,33236,27527,2
0.0,0.0,0.0,15710,11354,24630,33168,27527,2
0.0,0.0,0.0,15475,11354,24462,33202,27581,2
0.0,0.0,0.0,15288,11354,24462,33134,27581,2
0.0,0.0,0.0,15028,11329,24414,33202,27636,2
0.0,0.0,0.0,14937,11329,24318,33100,27581,2
0.0,0.0,0.0,14907,11329,24318,33067,27554,2
0.0,0.0,0.0,14846,11341,24271,33100,27527,2
0.0,0.0,0.0,14726,11317,24271,33067,27581,2
0.0,0.0,0.0,14503,11317,24247,33033,27691,2
0.0,0.0,0.0,14253,11304,24152,32966,27636,2
0.0,0.0,0.0,14253,11304,24129,32866,27581,2
0.0,0.0,0.0,14195,11304,24081,32866,27527,2
0.0,0.0,0.0,14122,11280,24034,32866,27527,2
0.0,0.0,0.0,14064,11292,23987,32765,27472,2
0.0,0.0,0.0,13964,11304,23940,32699,27527,2
0.0,0.0,0.0,13735,11268,23754,32435,27718,2
0.0,0.0,0.0,13792,11304,23592,32369,27391,2
0.0,0.0,0.0,13806,11304,23522,32369,27691,2
0.0,0.0,0.0,13792,11304,23431,32303,27609,2
0.0,0.0,0.0,13806,11304,23431,32369,27364,2
0.0,0.0,0.0,13806,11280,23431,32303,27310,2
0.0,0.0,0.0,13806,11304,23431,32336,27364,2
0.0,0.0,0.0,13821,11317,23431,32238,27310,2
0.0,0.0,0.0,13821,11317,23431,32303,27364,2
0.0,0.0,0.0,13849,11304,23431,32271,27364,2
0.0,0.0,0.0,13849,11304,23431,32402,27310,2
0.0,0.0,0.0,13892,11304,23385,32303,27364,2
0.0,0.0,0.0,13906,11329,23431,32238,27391,2
0.0,0.0,0.0,13906,11304,23385,32238,27310,2
0.0,0.0,0.0,13906,11304,23385,32205,27337,2
0.0,0.0,0.0,13906,11317,23385,32271,27364,2
0.0,0.0,0.0,13921,11304,23339,32173,27337,2
0.0,0.0,0.0,13921,11304,23385,32238,27418,2
0.0,0.0,0.0,13935,11317,23339,32205,27391,2
0.0,0.0,0.0,13964,11304,23339,32173,27337,2
0.0,0.0,0.0,13921,11304,23316,32173,27364,2
0.0,0.0,0.0,13964,11329,23385,32140,27364,2
0.0,0.0,0.0,13978,11317,23339,32173,27283,2
0.0,0.0,0.0,13992,11304,23294,32303,27283,2
0.0,0.0,0.0,13978,11304,23294,32238,27310,2
0.0,0.0,0.0,13992,11304,23339,32238,27283,2
0.0,0.0,0.0,14021,11317,23294,32108,27310,2
0.0,0.0,0.0,14036,11304,23294,32173,27310,2
0.0,0.0,0.0,14021,11304,23294,32238,27364,2
0.0,0.0,0.0,14064,11304,23294,32173,27256,2
0.0,0.0,0.0,14079,11304,23294,32173,27256,2
0.0,0.0,0.0,14064,11304,23316,32205,27310,2
0.0,0.0,0.0,14108,11304,23294,32205,27283,2
0.0,0.0,0.0,14108,11304,23248,32173,27256,2
0.0,0.0,0.0,14108,11304,23271,32173,27310,2
0.0,0.0,0.0,14108,11329,23294,32108,27283,2
0.0,0.0,0.0,14079,11304,23316,32173,27364,2
0.0,0.0,0.0,14079,11304,23294,32173,27364,2
0.0,0.0,0.0,14050,11317,23294,32173,27310,2
0.0,0.0,0.0,14137,11304,23225,32108,27256,2
0.0,0.0,0.0,14108,11304,23316,32205,27310,2
0.0,0.0,0.0,14108,11304,23248,32140,27256,2
0.0,0.0,0.0,14079,11304,23294,32173,27256,2
0.0,0.0,0.0,14108,11317,23225,32173,27310,2
0.0,0.0,0.0,14108,11329,23248,32108,27310,2
0.0,0.0,0.0,14122,11329,23225,32173,27310,2
0.0,0.0,0.0,14122,11317,23248,32173,27256,2
0.0,0.0,0.0,14137,11329,23248,32173,27283,2
0.0,0.0,0.0,14108,11317,23225,32108,27202,2
0.0,0.0,0.0,14108,11329,23248,32173,27364,2
0.0,0.0,0.0,14108,11317,23203,32173,27310,2
0.0,0.0,0.0,14108,11317,23271,32173,27256,2
0.0,0.0,0.0,14108,11317,23294,32173,27283,2
0.0,0.0,0.0,14122,11317,23225,32108,27310,2
0.0,0.0,0.0,14108,11329,23248,32108,27310,2
0.0,0.0,0.0,14108,11317,23248,32140,27310,2
0.0,0.0,0.0,14137,11317,23203,32173,27283,2
0.0,0.0,0.0,14137,11304,23225,32140,27283,2
0.0,0.0,0.0,14137,11329,23225,32108,27229,2
0.0,0.0,0.0,14137,11329,23271,32173,27418,2
0.0,0.0,0.0,14151,11329,23248,32173,27445,2
0.0,0.0,0.0,14137,11304,23203,32140,27418,2
0.0,0.0,0.0,14137,11329,23225,32238,27527,2
0.0,0.0,0.0,14137,11354,23203,32140,27364,2
0.0,0.0,0.0,14108,11317,23225,32108,27175,2
0.0,0.0,0.0,14137,11329,23248,32108,27148,2
0.0,0.0,0.0,14137,11341,23225,32205,27202,2
0.0,0.0,0.0,14137,11354,23225,32238,27256,2
0.0,0.0,0.0,14166,11379,23203,32108,27256,2
0.0,0.0,0.0,14137,11379,23203,32108,27202,2
0.0,0.0,0.0,14166,11329,23203,32173,27256,2
0.0,0.0,0.0,14137,11366,23203,32173,27175,2
0.0,0.0,0.0,14151,11366,23203,32173,27256,2
0.0,0.0,0.0,14166,11366,23157,32108,27202,2
0.0,0.0,0.0,14195,11379,23157,32108,27202,2
0.0,0.0,0.0,14253,11366,23203,32108,27256,2
0.0,0.0,0.0,14224,11354,23157,32173,27310,2
0.0,0.0,0.0,14238,11379,23135,32043,27175,2
0.0,0.0,0.0,14209,11403,23157,32108,27283,2
0.0,0.0,0.0,14268,11366,23157,32108,27148,2
0.0,0.0,0.0,14224,11379,23157,32173,27229,2
0.0,0.0,0.0,14253,11379,23157,32173,27202,2
0.0,0.0,0.0,14268,11366,23203,32108,27175,2
0.0,0.0,0.0,14282,11403,23203,32108,27148,2
0.0,0.0,0.0,14253,11379,23157,32173,27175,2
0.0,0.0,0.0,14282,11354,23203,32108,27202,2
0.0,0.0,0.0,14297,11379,23157,32108,27202,2
0.0,0.0,0.0,14282,11379,23203,32140,27175,2
0.0,0.0,0.0,14253,11379,23157,32238,27202,2
0.0,0.0,0.0,14282,11354,23157,32108,27256,2
0.0,0.0,0.0,14268,11379,23157,32108,27256,2
0.0,0.0,0.0,14282,11403,23157,32075,27202,2
0.0,0.0,0.0,14282,11379,23157,32108,27256,2
0.0,0.0,0.0,14268,11379,23112,32173,27256,2
0.0,0.0,0.0,14268,11403,23157,32075,27175,2
0.0,0.0,0.0,14268,11379,23157,32108,27202,2
0.0,0.0,0.0,14268,11379,23203,32075,27229,2
0.0,0.0,0.0,14282,11366,23203,32108,27148,2
0.0,0.0,0.0,14282,11403,23135,32108,27095,2
0.0,0.0,0.0,14311,11403,23157,32043,27148,2
0.0,0.0,0.0,14282,11416,23157,32108,27202,2
0.0,0.0,0.0,14268,11416,23157,32108,27229,2
0.0,0.0,0.0,14268,11391,23157,32108,27202,2
0.0,0.0,0.0,14282,11403,23203,32108,27148,2
0.0,0.0,0.0,14268,11403,23135,32108,27148,2
0.0,0.0,0.0,14311,11403,23203,32108,27202,2
0.0,0.0,0.0,14311,11403,23180,32108,27148,2
0.0,0.0,0.0,14282,11428,23248,32108,27202,2
0.0,0.0,0.0,14282,11416,23112,32108,27175,2
0.0,0.0,0.0,14297,11416,23135,32108,27256,2
0.0,0.0,0.0,14268,11403,23112,32108,27256,2
0.0,0.0,0.0,14311,11403,23180,32173,27202,2
0.0,0.0,0.0,14282,11416,23157,32173,27175,2
0.0,0.0,0.0,14282,11428,23112,32140,27202,2
0.0,0.0,0.0,14311,11403,23112,32173,27283,2
0.0,0.0,0.0,14297,11403,23112,32205,27256,2
0.0,0.0,0.0,14311,11428,23135,32108,27202,2
0.0,0.0,0.0,14311,11416,23203,32140,27202,2
0.0,0.0,0.0,14282,11416,23157,32108,27148,2
0.0,0.0,0.0,14282,11403,23135,32108,27202,2
0.0,0.0,0.0,14311,11416,23112,32108,27202,2
0.0,0.0,0.0,14268,11403,23135,32173,27256,2
0.0,0.0,0.0,14297,11428,23112,32140,27256,2
0.0,0.0,0.0,14326,11403,23157,32108,27175,2
0.0,0.0,0.0,14326,11428,23112,32108,27175,2
0.0,0.0,0.0,14341,11403,23135,32075,27283,2
0.0,0.0,0.0,14326,11428,23112,32010,27202,2
0.0,0.0,0.0,14311,11428,23135,32043,27148,2
0.0,0.0,0.0,14326,11453,23112,32108,27202,2
0.0,0.0,0.0,14311,11428,23112,32043,27202,2
0.0,0.0,0.0,14311,11453,23067,32043,27256,2
0.0,0.0,0.0,14326,11453,23067,32108,27283,2
0.0,0.0,0.0,14311,11465,23067,32043,27202,2
0.0,0.0,0.0,14370,11453,23067,32075,27256,2
0.0,0.0,0.0,14414,11453,23090,32043,27148,2
0.0,0.0,0.0,14370,11453,23112,32140,27175,2
0.0,0.0,0.0,14370,11453,23067,32043,27256,2
0.0,0.0,0.0,14370,11440,23112,32173,27310,2
0.0,0.0,0.0,14370,11428,23112,32043,27202,2
0.0,0.0,0.0,14385,11453,23044,32043,27202,2
0.0,0.0,0.0,14370,11453,23112,32108,27202,2
0.0,0.0,0.0,14414,11453,23067,32108,27202,2
0.0,0.0,0.0,14385,11453,23112,32108,27148,2
0.0,0.0,0.0,14370,11428,23112,32108,27256,2
0.0,0.0,0.0,14370,11478,23112,32108,27175,2
0.0,0.0,0.0,14370,11453,23112,32108,27175,2
0.0,0.0,0.0,14399,11478,23044,32043,27148,2
0.0,0.0,0.0,14385,11490,23135,32108,27202,2
0.0,0.0,0.0,14399,11503,23022,32010,27148,2
0.0,0.0,0.0,14399,11503,23022,32108,27202,2
0.0,0.0,0.0,14385,11478,23044,32108,27148,2
0.0,0.0,0.0,14429,11478,23022,32108,27148,2
0.0,0.0,0.0,14399,11503,23067,32043,27202,2
0.0,0.0,0.0,14444,11490,23067,32108,27202,2
0.0,0.0,0.0,14458,11503,23067,32108,27256,2
0.0,0.0,0.0,14458,11478,23067,32108,27202,2
0.0,0.0,0.0,14488,11503,23067,32043,27175,2
0.0,0.0,0.0,14429,11503,23022,32238,27229,2
0.0,0.0,0.0,14488,11503,23044,32075,27202,2
0.0,0.0,0.0,14458,11515,23022,32108,27256,2
0.0,0.0,0.0,14488,11515,23022,32043,27202,2
0.0,0.0,0.0,14488,11515,23044,32108,27148,2
0.0,0.0,0.0,14488,11503,23044,32108,27148,2
0.0,0.0,0.0,14488,11503,23067,32140,27148,2
0.0,0.0,0.0,14488,11503,23022,32075,27202,2
0.0,0.0,0.0,14503,11515,23022,32043,27202,2
0.0,0.0,0.0,14488,11515,23022,32108,27148,2
0.0,0.0,0.0,14488,11515,22999,32043,27202,2
0.0,0.0,0.0,14518,11503,22977,32043,27202,2
0.0,0.0,0.0,14488,11528,23044,32043,27148,2
0.0,0.0,0.0,14488,11503,23022,32108,27202,2
0.0,0.0,0.0,14458,11515,23022,32075,27202,2
0.0,0.0,0.0,14488,11503,23022,32043,27175,2
0.0,0.0,0.0,14488,11503,23044,32075,27229,2
0.0,0.0,0.0,14488,11503,23022,32075,27202,2
0.0,0.0,0.0,14518,11503,23022,32075,27148,2
0.0,0.0,0.0,14444,11453,23044,32043,27148,2
0.0,0.0,0.0,14488,11478,23022,31978,27202,2
0.0,0.0,0.0,14444,11453,23022,32075,27148,2
0.0,0.0,0.0,14429,11453,23022,32075,27148,2
0.0,0.0,0.0,14429,11465,23022,32010,27148,2
0.0,0.0,0.0,14444,11453,22977,32043,27148,2
0.0,0.0,0.0,14429,11465,23022,32010,27148,2
0.0,0.0,0.0,14429,11465,22999,31978,27148,2
0.0,0.0,0.0,14429,11478,23022,32075,27148,2
0.0,0.0,0.0,14473,11465,22932,32010,27175,2
0.0,0.0,0.0,14473,11490,22955,31978,27068,2
0.0,0.0,0.0,14429,11465,22977,32108,27148,2
0.0,0.0,0.0,14444,11490,22932,32043,27148,2
0.0,0.0,0.0,14429,11490,22955,31978,27148,2
0.0,0.0,0.0,14444,11478,22955,32043,27148,2
0.0,0.0,0.0,14444,11515,22977,32010,27122,2
0.0,0.0,0.0,14444,11503,22977,32043,27122,2
0.0,0.0,0.0,14488,11503,22955,32043,27095,2
0.0,0.0,0.0,14429,11478,22999,32043,27175,2
0.0,0.0,0.0,14458,11478,22932,31978,27202,2
0.0,0.0,0.0,14429,11453,22999,32043,27148,2
0.0,0.0,0.0,14444,11503,22977,31978,27148,2
0.0,0.0,0.0,14429,11465,22977,31978,27256,2
0.0,0.0,0.0,14429,11490,22955,31978,27175,2
0.0,0.0,0.0,14414,11478,22977,31978,27122,2
0.0,0.0,0.0,14429,11490,22977,31978,27095,2
0.0,0.0,0.0,14399,11490,22932,32043,27148,2
0.0,0.0,0.0,14429,11465,22955,31978,27148,2
0.0,0.0,0.0,14429,11503,22955,31978,27122,2
0.0,0.0,0.0,14429,11478,22932,31946,27095,2
0.0,0.0,0.0,14429,11478,22932,32043,27202,2
0.0,0.0,0.0,14399,11465,22955,32043,27148,2
0.0,0.0,0.0,14414,11478,22932,32010,27202,2
0.0,0.0,0.0,14429,11503,22887,31978,27148,2
0.0,0.0,0.0,14429,11503,22932,32010,27148,2
0.0,0.0,0.0,14399,11503,22910,32010,27095,2
0.0,0.0,0.0,14429,11503,22932,31978,27175,2
0.0,0.0,0.0,14414,11503,22932,31978,27068,2
0.0,0.0,0.0,14429,11503,22932,32010,27148,2
0.0,0.0,0.0,14414,11503,22887,32010,27068,2
0.0,0.0,0.0,14399,11503,22932,32010,27095,2
0.0,0.0,0.0,14429,11503,22932,31978,27095,2
0.0,0.0,0.0,14399,11503,22932,32010,27148,2
0.0,0.0,0.0,14429,11490,22932,32043,27175,2
0.0,0.0,0.0,14414,11490,22932,32010,27122,2
0.0,0.0,0.0,14414,11515,22887,31978,27148,2
0.0,0.0,0.0,14429,11503,22932,31978,27148,2
0.0,0.0,0.0,14414,11503,22955,31978,27175,2
0.0,0.0,0.0,14429,11528,22932,32043,27148,2
0.0,0.0,0.0,14444,11528,22932,32010,27175,2
0.0,0.0,0.0,14429,11503,22932,31978,27095,2
0.0,0.0,0.0,14429,11528,22887,31978,27095,2
0.0,0.0,0.0,14399,11528,22932,32043,27148,2
0.0,0.0,0.0,14429,11528,22865,32010,27175,2
0.0,0.0,0.0,14429,11528,22932,31978,27148,2
0.0,0.0,0.0,14429,11503,22932,32043,27095,2
0.0,0.0,0.0,14444,11515,22887,31978,27122,2
0.0,0.0,0.0,14385,11528,22932,31946,27122,2
0.0,0.0,0.0,14370,11528,22955,31978,27095,2
0.0,0.0,0.0,14399,11528,22932,32043,27095,2
0.0,0.0,0.0,14399,11528,22865,31946,27122,2
0.0,0.0,0.0,14429,11553,22932,31913,27095,2
0.0,0.0,0.0,14385,11540,22932,31978,27148,2
0.0,0.0,0.0,14429,11528,22932,31946,27175,2
0.0,0.0,0.0,14444,11528,22932,32043,27095,2
0.0,0.0,0.0,14503,11540,22932,31978,27148,2
0.0,0.0,0.0,14473,11528,22887,31978,27122,2
0.0,0.0,0.0,14488,11553,22887,31978,27095,2
0.0,0.0,0.0,14488,11528,22887,31978,27095,2
0.0,0.0,0.0,14488,11553,22887,31978,27122,2
0.0,0.0,0.0,14458,11565,22887,32010,27122,2
0.0,0.0,0.0,14488,11553,22887,31978,27175,2
0.0,0.0,0.0,14488,11578,22887,31978,27175,2
0.0,0.0,0.0,14444,11603,22843,32043,27175,2
0.0,0.0,0.0,14488,11603,22843,31978,27148,2
0.0,0.0,0.0,14473,11603,22865,31978,27202,2
0.0,0.0,0.0,14458,11590,22887,32075,27148,2
0.0,0.0,0.0,14458,11553,22887,32043,27148,2
0.0,0.0,0.0,14488,11553,22865,31881,27095,2
0.0,0.0,0.0,14503,11478,22865,31978,27068,2
0.0,0.0,0.0,14503,11478,22843,31978,27068,2
0.0,0.0,0.0,14518,11478,22776,31978,27148,2
0.0,0.0,0.0,14532,11503,22776,32043,27148,2
0.0,0.0,0.0,14518,11503,22798,32010,27095,2
0.0,0.0,0.0,14547,11465,22798,31913,27041,2
0.0,0.0,0.0,14547,11490,22776,31913,27041,2
0.0,0.0,0.0,14429,11478,22865,31978,27068,2
0.0,0.0,0.0,14137,11440,22843,31978,27175,2
0.0,0.0,0.0,14137,11465,22820,31978,27148,2
0.0,0.0,0.0,14137,11478,22776,31978,27148,2
0.0,0.0,0.0,13978,11453,22843,31881,27122,2
0.0,0.0,0.0,13764,11453,22932,31913,27202,2
0.0,0.0,0.0,13707,11453,22977,31978,27148,2
0.0,0.0,0.0,13594,11453,22977,31978,27148,2
0.0,0.0,0.0,13552,11428,22932,31978,27175,2
0.0,0.0,0.0,13510,11465,22932,31913,27148,2
0.0,0.0,0.0,13412,11453,22932,32043,27202,2
0.0,0.0,0.0,13412,11478,22865,31881,27202,2
0.0,0.0,0.0,13398,11478,22843,31849,27148,2
0.0,0.0,0.0,13357,11478,22843,31849,27148,2
0.0,0.0,0.0,13454,11478,22798,31849,27122,2
0.0,0.0,0.0,13510,11453,22776,31849,27095,2
0.0,0.0,0.0,13510,11453,22754,31881,27095,2
0.0,0.0,0.0,13510,11453,22754,31849,27148,2
0.0,0.0,0.0,13566,11503,22754,31881,27095,2
0.0,0.0,0.0,13566,11465,22754,31849,27122,2
0.0,0.0,0.0,13580,11453,22754,31817,27122,2
0.0,0.0,0.0,13566,11453,22798,31849,27122,2
0.0,0.0,0.0,13594,11465,22754,31881,27095,2
0.0,0.0,0.0,13679,11465,22776,31881,27122,2
0.0,0.0,0.0,13679,11465,22754,31913,27095,2
0.0,0.0,0.0,13679,11465,22843,31913,27041,2
0.0,0.0,0.0,13707,11478,22754,31913,27148,2
0.0,0.0,0.0,13735,11503,22754,31881,27148,2
0.0,0.0,0.0,13735,11503,22754,31881,27068,2
0.0,0.0,0.0,13707,11478,22776,31881,27095,2
0.0,0.0,0.0,13735,11503,22776,31720,27122,2
0.0,0.0,0.0,13721,11515,22754,31913,27148,2
0.0,0.0,0.0,13707,11528,22776,31849,27148,2
0.0,0.0,0.0,13735,11540,22754,31785,27095,2
0.0,0.0,0.0,13764,11503,22731,31849,27068,2
0.0,0.0,0.0,13764,11528,22731,31849,27175,2
0.0,0.0,0.0,13764,11515,22754,31849,27148,2
0.0,0.0,0.0,13764,11515,22754,31849,27148,2
0.0,0.0,0.0,13792,11528,22731,31849,27095,2
0.0,0.0,0.0,13792,11515,22709,31817,27148,2
0.0,0.0,0.0,13764,11540,22709,31849,27095,2
0.0,0.0,0.0,13792,11553,22687,31849,27068,2
0.0,0.0,0.0,13792,11528,22731,31849,27095,2
0.0,0.0,0.0,13806,11540,22709,31881,27122,2
0.0,0.0,0.0,13821,11528,22709,31849,27148,2
0.0,0.0,0.0,13792,11553,22687,31817,27148,2
0.0,0.0,0.0,13764,11528,22709,31881,27095,2
0.0,0.0,0.0,13721,11503,22731,31785,27148,2
0.0,0.0,0.0,13636,11540,22709,31785,27148,2
0.0,0.0,0.0,13622,11515,22709,31881,27175,2
0.0,0.0,0.0,13622,11528,22709,31849,27175,2
0.0,0.0,0.0,13622,11515,22665,31785,27095,2
0.0,0.0,0.0,13636,11528,22709,31849,27095,2
0.0,0.0,0.0,13650,11528,22709,31849,27148,2
0.0,0.0,0.0,13594,11515,22665,31785,27095,2
0.0,0.0,0.0,13636,11528,22665,31849,27095,2
0.0,0.0,0.0,13622,11528,22709,31817,27122,2
0.0,0.0,0.0,13622,11503,22665,31849,27095,2
0.0,0.0,0.0,13679,11528,22665,31785,27041,2
0.0,0.0,0.0,13650,11528,22665,31785,27095,2
0.0,0.0,0.0,13650,11528,22665,31849,27175,2
0.0,0.0,0.0,13679,11528,22665,31752,27148,2
0.0,0.0,0.0,13679,11515,22621,31849,27122,2
0.0,0.0,0.0,13679,11528,22643,31752,27068,2
0.0,0.0,0.0,13693,11503,22621,31752,27068,2
0.0,0.0,0.0,13679,11528,22665,31785,27148,2
0.0,0.0,0.0,13721,11528,22599,31785,27068,2
0.0,0.0,0.0,13707,11528,22665,31720,27095,2
0.0,0.0,0.0,13679,11553,22665,31785,27068,2
0.0,0.0,0.0,13693,11528,22665,31785,27068,2
0.0,0.0,0.0,13679,11553,22621,31785,27148,2
0.0,0.0,0.0,13679,11553,22621,31752,27095,2
0.0,0.0,0.0,13650,11528,22665,31849,27095,2
0.0,0.0,0.0,13594,11515,22754,31720,27068,2
0.0,0.0,0.0,13566,11515,22709,31752,27095,2
0.0,0.0,0.0,13594,11528,22687,31752,27148,2
0.0,0.0,0.0,13608,11503,22665,31752,27122,2
0.0,0.0,0.0,13566,11528,22665,31785,27095,2
0.0,0.0,0.0,13622,11515,22621,31752,27041,2
0.0,0.0,0.0,13580,11503,22665,31752,27095,2
0.0,0.0,0.0,13580,11515,22621,31720,27068,2
0.0,0.0,0.0,13510,11528,22709,31752,27041,2
0.0,0.0,0.0,13412,11515,22843,31752,27041,2
0.0,0.0,0.0,13287,11503,22865,31720,27041,2
0.0,0.0,0.0,13287,11515,22843,31752,27068,2
0.0,0.0,0.0,13246,11503,22820,31720,27068,2
0.0,0.0,0.0,13246,11528,22754,31720,27095,2
0.0,0.0,0.0,13301,11515,22709,31720,27015,2
0.0,0.0,0.0,13287,11528,22754,31720,27122,2
0.0,0.0,0.0,13287,11528,22754,31720,27095,2
0.0,0.0,0.0,13343,11528,22709,31752,27041,2
0.0,0.0,0.0,13357,11515,22665,31720,27122,2
0.0,0.0,0.0,13371,11515,22665,31688,27041,2
0.0,0.0,0.0,13371,11528,22643,31720,27041,2
0.0,0.0,0.0,13315,11503,22709,31656,27095,2
0.0,0.0,0.0,13287,11515,22709,31720,27041,2
0.0,0.0,0.0,13260,11503,22798,31720,27041,2
0.0,0.0,0.0,13205,11515,22754,31720,27095,2
0.0,0.0,0.0,13191,11515,22754,31688,27041,2
0.0,0.0,0.0,13150,11515,22754,31720,27068,2
0.0,0.0,0.0,13122,11515,22754,31720,27095,2
0.0,0.0,0.0,13068,11603,22754,31720,27068,2
0.0,0.0,0.0,13122,11628,22731,31688,27095,2
0.0,0.0,0.0,13068,11628,22754,31720,27175,2
0.0,0.0,0.0,13205,11628,22843,31849,28022,2
0.0,0.0,0.0,13232,11603,22798,31720,27911,2
0.0,0.0,0.0,13232,11590,22776,31656,27800,2
0.0,0.0,0.0,13315,11615,22754,31720,27745,2
0.0,0.0,0.0,13371,11590,22776,31849,27966,2
0.0,0.0,0.0,13510,11603,23022,32533,28583,2
0.0,0.0,0.0,13636,11603,23112,32966,28955,2
0.0,0.0,0.0,13622,11615,23044,32832,28812,2
0.0,0.0,0.0,13622,11590,22932,32633,28640,2
0.0,0.0,0.0,13650,11590,22932,32500,28470,2
0.0,0.0,0.0,13580,11590,22865,32303,28357,2
0.0,0.0,0.0,13566,11603,22843,32238,28161,2
0.0,0.0,0.0,13524,11603,22776,32205,28133,2
0.0,0.0,0.0,13398,11603,22776,32173,28022,2
0.0,0.0,0.0,13468,11578,22776,32173,27966,2
0.0,0.0,0.0,13566,11615,22754,32108,27911,2
0.0,0.0,0.0,13749,11615,22687,32043,27856,2
0.0,0.0,0.0,13935,11653,22643,32108,27856,2
0.0,0.0,0.0,14079,11678,22621,32075,27691,2
0.0,0.0,0.0,14108,11703,22709,32173,27609,2
0.0,0.0,0.0,13906,11728,22798,32108,27499,2
0.0,0.0,0.0,13665,11754,22955,32238,27966,2
0.0,0.0,0.0,13650,11804,23022,32238,27883,2
0.0,0.0,0.0,13566,11855,23203,32271,27800,2
0.0,0.0,0.0,13398,11830,23431,32369,27828,2
0.0,0.0,0.0,13454,11855,23569,32402,27472,2
0.0,0.0,0.0,13412,11906,23615,32435,27256,2
0.0,0.0,0.0,13496,11932,23800,32500,27175,2
0.0,0.0,0.0,13468,11932,24034,32566,27148,2
0.0,0.0,0.0,13566,11996,24105,32566,27148,2
0.0,0.0,0.0,13679,12009,24271,32765,26988,2
0.0,0.0,0.0,13749,11970,24318,32699,26961,2
0.0,0.0,0.0,13792,11983,24366,32666,26935,2
0.0,0.0,0.0,13749,11983,24342,32699,26935,2
0.0,0.0,0.0,13707,11983,24271,32633,27015,2
0.0,0.0,0.0,13650,11957,24271,32599,26935,2
0.0,0.0,0.0,13622,11957,24294,32699,26855,2
0.0,0.0,0.0,13594,11957,24318,32533,26749,2
0.0,0.0,0.0,13707,11957,24247,32566,26829,2
0.0,0.0,0.0,13806,11983,24318,32566,26723,2
0.0,0.0,0.0,13636,12009,24366,32599,26749,2
0.0,0.0,0.0,13566,11932,24366,32633,26829,2
0.0,0.0,0.0,13566,11957,24366,32633,26723,2
0.0,0.0,0.0,13552,11919,24318,32533,26749,2
0.0,0.0,0.0,13566,11906,24342,32633,26723,2
0.0,0.0,0.0,13566,11932,24318,32533,26776,2
0.0,0.0,0.0,13566,11906,24414,32599,26670,2
0.0,0.0,0.0,13707,11906,24390,32500,26749,2
0.0,0.0,0.0,13735,11881,24366,32566,26776,2
0.0,0.0,0.0,13679,11881,24366,32566,26802,2
0.0,0.0,0.0,13636,11906,24342,32500,26749,2
0.0,0.0,0.0,13594,11906,24366,32500,26829,2
0.0,0.0,0.0,13636,11881,24366,32533,26749,2
0.0,0.0,0.0,13566,11855,24414,32435,26723,2
0.0,0.0,0.0,13707,11868,24438,32500,26802,2
0.0,0.0,0.0,13906,11804,24558,32500,26855,2
0.0,0.0,0.0,14137,11804,24630,32500,26829,2
0.0,0.0,0.0,14195,11804,24534,32500,26829,2
0.0,0.0,0.0,14282,11779,24558,32500,26882,2
0.0,0.0,0.0,14341,11754,24534,32500,26908,2
0.0,0.0,0.0,14399,11754,24534,32500,26882,2
0.0,0.0,0.0,14547,11728,24510,32467,26961,2
0.0,0.0,0.0,14696,11766,24366,32369,26935,2
0.0,0.0,0.0,14726,11754,24390,32369,26882,2
0.0,0.0,0.0,14636,11741,24342,32369,26855,2
0.0,0.0,0.0,14518,11754,24271,32369,26935,2
0.0,0.0,0.0,14414,11741,24247,32369,26935,2
0.0,0.0,0.0,14195,11716,24176,32303,26882,2
0.0,0.0,0.0,13906,11703,23964,32238,26988,2
0.0,0.0,0.0,13806,11703,23940,32173,26935,2
0.0,0.0,0.0,13650,11665,23847,32238,26935,2
0.0,0.0,0.0,13566,11678,23800,32205,26882,2
0.0,0.0,0.0,13580,11678,23754,32108,26829,2
0.0,0.0,0.0,13538,11665,23754,32140,26829,2
0.0,0.0,0.0,13384,11628,23754,32173,26935,2
0.0,0.0,0.0,13246,11678,23615,32140,26935,2
0.0,0.0,0.0,13068,11653,23569,32108,26935,2
0.0,0.0,0.0,13040,11653,23569,32010,26855,2
