GyroX,GyroY,GyroZ,Thumb,Index,Middle,Ring,Pinky,Gesture
0.0,0.0,0.0,12009,21563,21796,28133,15773,5
0.0,0.0,0.0,12047,21627,21796,28133,15757,5
0.0,0.0,0.0,12009,21606,21796,28133,15773,5
0.0,0.0,0.0,12021,21584,21754,28105,15773,5
0.0,0.0,0.0,11983,21584,21818,27800,15837,5
0.0,0.0,0.0,11804,21606,21796,27527,15996,5
0.0,0.0,0.0,11691,21627,21796,27256,15964,5
0.0,0.0,0.0,11640,21627,21775,27283,15932,5
0.0,0.0,0.0,11716,21627,21733,27418,15900,5
0.0,0.0,0.0,11703,21669,21754,27310,15900,5
0.0,0.0,0.0,11653,21627,21775,27391,15884,5
0.0,0.0,0.0,11653,21669,21754,27391,15852,5
0.0,0.0,0.0,11703,21627,21733,27472,15852,5
0.0,0.0,0.0,11716,21648,21733,27499,15837,5
0.0,0.0,0.0,11754,21711,21711,27636,15852,5
0.0,0.0,0.0,11792,21711,21733,27609,15837,5
0.0,0.0,0.0,11817,21711,21733,27636,15837,5
0.0,0.0,0.0,11830,21648,21733,27691,15868,5
0.0,0.0,0.0,11855,21669,21711,27745,15852,5
0.0,0.0,0.0,11906,21754,21754,27691,15837,5
0.0,0.0,0.0,11881,21711,21754,27691,15852,5
0.0,0.0,0.0,11855,21754,21711,27691,15837,5
0.0,0.0,0.0,11754,21648,21754,27718,15868,5
0.0,0.0,0.0,11716,21669,21796,27800,15837,5
0.0,0.0,0.0,11678,21733,21733,27800,15805,5
0.0,0.0,0.0,11678,21711,21754,27828,15852,5
0.0,0.0,0.0,11716,21627,21711,27800,15837,5
0.0,0.0,0.0,11691,21627,21796,27856,15852,5
0.0,0.0,0.0,11703,21754,21754,27828,15837,5
0.0,0.0,0.0,11653,21648,21754,27856,15837,5
0.0,0.0,0.0,11653,21648,21754,27856,15821,5
0.0,0.0,0.0,11603,21648,21796,27911,15821,5
0.0,0.0,0.0,11615,21648,21796,27856,15868,5
0.0,0.0,0.0,11603,21627,21733,27856,15852,5
0.0,0.0,0.0,11603,21584,21733,27828,15852,5
0.0,0.0,0.0,11603,21648,21733,27856,15852,5
0.0,0.0,0.0,11603,21627,21733,27828,15868,5
0.0,0.0,0.0,11603,21584,21754,27911,15852,5
0.0,0.0,0.0,11603,21627,21711,27800,15837,5
0.0,0.0,0.0,11603,21584,21754,27800,15868,5
0.0,0.0,0.0,11603,21627,21733,27800,15868,5
0.0,0.0,0.0,11578,21584,21711,27883,15868,5
0.0,0.0,0.0,11603,21584,21711,27856,15868,5
0.0,0.0,0.0,11615,21563,21711,27828,15900,5
0.0,0.0,0.0,11590,21542,21711,27691,15852,5
0.0,0.0,0.0,11603,21563,21711,27691,15900,5
0.0,0.0,0.0,11603,21584,21796,27994,15932,5
0.0,0.0,0.0,11603,21542,21818,28414,15932,5
0.0,0.0,0.0,11603,21563,21839,28754,15916,5
0.0,0.0,0.0,11628,21606,22010,28697,16028,5
0.0,0.0,0.0,11615,21627,22010,28955,16028,5
0.0,0.0,0.0,11578,21711,22248,29479,16222,5
0.0,0.0,0.0,11553,21711,22510,29984,16352,5
0.0,0.0,0.0,11490,21882,22599,29865,16303,5
0.0,0.0,0.0,11503,21818,22599,29775,16238,5
0.0,0.0,0.0,11453,22010,22599,30165,16319,5
0.0,0.0,0.0,11453,22010,22532,30165,16352,5
0.0,0.0,0.0,11453,21967,22798,30105,16385,5
0.0,0.0,0.0,11403,21882,22731,29925,16319,5
0.0,0.0,0.0,11379,21882,22599,29686,16319,5
0.0,0.0,0.0,11391,21796,22488,29568,16222,5
0.0,0.0,0.0,11428,21754,22488,29509,16254,5
0.0,0.0,0.0,11416,21796,22488,29597,16238,5
0.0,0.0,0.0,11428,21754,22423,29568,16254,5
0.0,0.0,0.0,11428,21796,22423,29568,16254,5
0.0,0.0,0.0,11416,21754,22423,29509,16254,5
0.0,0.0,0.0,11428,21754,22401,29421,16238,5
0.0,0.0,0.0,11416,21754,22357,29304,16254,5
0.0,0.0,0.0,11416,21669,22313,29216,16254,5
0.0,0.0,0.0,11416,21669,22270,29158,16222,5
0.0,0.0,0.0,11428,21648,22226,29216,16222,5
0.0,0.0,0.0,11453,21648,22226,29158,16222,5
0.0,0.0,0.0,11453,21648,22226,29216,16287,5
0.0,0.0,0.0,11428,21648,22226,29274,16222,5
0.0,0.0,0.0,11403,21648,22205,29216,16238,5
0.0,0.0,0.0,11428,21669,22226,29216,16222,5
0.0,0.0,0.0,11453,21648,22248,29187,16222,5
0.0,0.0,0.0,11453,21669,22183,29158,16238,5
0.0,0.0,0.0,11453,21648,22226,29158,16222,5
0.0,0.0,0.0,11416,21606,22226,29100,16222,5
0.0,0.0,0.0,11453,21606,22183,29100,16254,5
0.0,0.0,0.0,11453,21627,22161,29071,16222,5
0.0,0.0,0.0,11453,21584,22140,29042,16222,5
0.0,0.0,0.0,11453,21563,22183,29100,16222,5
0.0,0.0,0.0,11465,21584,22140,29042,16206,5
0.0,0.0,0.0,11453,21627,22161,29071,16222,5
0.0,0.0,0.0,11453,21563,22140,29071,16287,5
0.0,0.0,0.0,11440,21563,22140,29042,16287,5
0.0,0.0,0.0,11453,21563,22140,29042,16319,5
0.0,0.0,0.0,11453,21627,22140,29100,16368,5
0.0,0.0,0.0,11453,21563,22140,29071,16385,5
0.0,0.0,0.0,11465,21584,22140,29042,16417,5
0.0,0.0,0.0,11465,21606,22140,29129,16499,5
0.0,0.0,0.0,11503,21584,22118,29100,16434,5
0.0,0.0,0.0,11478,21563,22096,29042,16417,5
0.0,0.0,0.0,11465,21563,22140,29071,16483,5
0.0,0.0,0.0,11503,21584,22096,29071,16417,5
0.0,0.0,0.0,11465,21563,22096,29042,16417,5
0.0,0.0,0.0,11515,21542,22075,28927,16401,5
0.0,0.0,0.0,11553,21627,22096,28955,16352,5
0.0,0.0,0.0,11578,21627,22096,28927,16352,5
0.0,0.0,0.0,11615,21563,22053,28927,16287,5
0.0,0.0,0.0,11603,21584,22075,28840,16287,5
0.0,0.0,0.0,11578,21563,22053,28927,16287,5
0.0,0.0,0.0,11653,21584,22075,28869,16254,5
0.0,0.0,0.0,11665,21542,22075,28927,16319,5
0.0,0.0,0.0,11754,21584,22053,28898,16287,5
0.0,0.0,0.0,11766,21563,22075,28869,16287,5
0.0,0.0,0.0,11754,21627,22053,28927,16254,5
0.0,0.0,0.0,11703,21563,22053,28840,16287,5
0.0,0.0,0.0,11678,21542,22010,28869,16287,5
0.0,0.0,0.0,11678,21563,22010,28812,16287,5
0.0,0.0,0.0,11665,21542,22010,28927,16254,5
0.0,0.0,0.0,11703,21563,22010,28812,16287,5
0.0,0.0,0.0,11678,21563,22010,28812,16254,5
0.0,0.0,0.0,11678,21542,22010,28812,16287,5
0.0,0.0,0.0,11932,21627,21946,29042,16287,5
0.0,0.0,0.0,12267,21839,21903,28869,16238,5
0.0,0.0,0.0,12864,22053,21648,28697,16206,5
0.0,0.0,0.0,13849,22075,21584,28133,16206,5
0.0,0.0,0.0,14282,22161,21500,27472,16287,5
0.0,0.0,0.0,14311,22183,21416,26461,16434,5
0.0,0.0,0.0,14064,22053,21354,26124,16319,5
0.0,0.0,0.0,14021,22075,21333,25996,16319,5
0.0,0.0,0.0,13978,22032,21291,25996,16254,5
0.0,0.0,0.0,13978,22010,21291,25945,16222,5
0.0,0.0,0.0,14021,22010,21312,25945,16222,5
0.0,0.0,0.0,13964,22010,21312,25996,16157,5
0.0,0.0,0.0,13921,22010,21291,26099,16109,5
0.0,0.0,0.0,13863,21903,21500,26124,16076,5
0.0,0.0,0.0,13764,21882,21458,26331,16060,5
0.0,0.0,0.0,13650,21882,21458,26409,16028,5
0.0,0.0,0.0,13398,21882,21627,27472,15932,5
0.0,0.0,0.0,12864,21711,21711,28927,15948,5
0.0,0.0,0.0,12810,21627,21711,29538,15900,5
0.0,0.0,0.0,14151,21500,21796,30499,16028,5
0.0,0.0,0.0,16765,21542,21711,30962,15900,5
0.0,0.0,0.0,16499,21458,21690,30962,15789,5
0.0,0.0,0.0,16385,21416,21711,30931,15741,5
0.0,0.0,0.0,17933,21395,21627,31370,15964,5
0.0,0.0,0.0,17306,21395,21563,31244,15852,5
0.0,0.0,0.0,17152,21312,21500,31339,15916,5
0.0,0.0,0.0,17426,21291,21458,31497,15837,5
0.0,0.0,0.0,17050,21250,21458,31370,15726,5
0.0,0.0,0.0,16966,21250,21479,31465,15773,5
0.0,0.0,0.0,16898,21270,21458,31434,15741,5
0.0,0.0,0.0,17067,21291,21458,31529,15757,5
0.0,0.0,0.0,17152,21270,21458,31529,15789,5
0.0,0.0,0.0,16882,21291,21416,31402,15710,5
0.0,0.0,0.0,16831,21291,21416,31339,15726,5
0.0,0.0,0.0,16815,21229,21395,31307,15663,5
0.0,0.0,0.0,16798,21250,21395,31402,15678,5
0.0,0.0,0.0,16748,21291,21437,31339,15710,5
0.0,0.0,0.0,16731,21250,21416,31370,15694,5
0.0,0.0,0.0,16748,21291,21375,31276,15678,5
0.0,0.0,0.0,16815,21291,21416,31276,15663,5
0.0,0.0,0.0,16681,21291,21375,31213,15710,5
0.0,0.0,0.0,16632,21291,21395,31276,15710,5
0.0,0.0,0.0,16516,21250,21416,31181,15710,5
0.0,0.0,0.0,16417,21250,21375,31087,15710,5
0.0,0.0,0.0,16352,21146,21375,30962,15710,5
0.0,0.0,0.0,16303,21208,21312,30807,15710,5
0.0,0.0,0.0,16781,21146,21333,30715,15710,5
0.0,0.0,0.0,17495,21167,21312,30715,15678,5
0.0,0.0,0.0,18111,21208,21312,30499,15678,5
0.0,0.0,0.0,18344,21229,21312,30499,15741,5
0.0,0.0,0.0,18147,21250,21146,30377,15868,5
0.0,0.0,0.0,17862,21291,21125,30286,15900,5
0.0,0.0,0.0,17565,21375,21043,30256,15837,5
0.0,0.0,0.0,17513,21229,20899,30226,15710,5
0.0,0.0,0.0,17426,21291,20899,30195,15663,5
0.0,0.0,0.0,17323,21291,20961,30317,15678,5
0.0,0.0,0.0,17289,21208,20879,30347,15663,5
0.0,0.0,0.0,17220,21270,20879,30317,15631,5
0.0,0.0,0.0,17169,21291,20899,30286,15647,5
0.0,0.0,0.0,17050,21312,21002,30499,15647,5
0.0,0.0,0.0,16882,21395,21043,30377,15678,5
0.0,0.0,0.0,16715,21375,21043,30469,15710,5
0.0,0.0,0.0,16615,21375,21146,30469,15726,5
0.0,0.0,0.0,16615,21375,21167,30591,15741,5
0.0,0.0,0.0,16532,21375,21208,30653,15726,5
0.0,0.0,0.0,16516,21333,21187,30530,15726,5
0.0,0.0,0.0,16483,21333,21167,30530,15710,5
0.0,0.0,0.0,16336,21291,21208,30622,15678,5
0.0,0.0,0.0,16287,21291,21208,30591,15710,5
0.0,0.0,0.0,16287,21250,21167,30591,15678,5
0.0,0.0,0.0,16303,21291,21167,30530,15726,5
0.0,0.0,0.0,16222,21250,21146,30499,15726,5
0.0,0.0,0.0,16222,21229,21105,30684,15837,5
0.0,0.0,0.0,16141,21229,21084,30715,15710,5
0.0,0.0,0.0,16125,21208,21043,30622,15726,5
0.0,0.0,0.0,16093,21125,21002,30745,15837,5
0.0,0.0,0.0,16093,21208,20981,30715,15678,5
0.0,0.0,0.0,16093,21146,20940,30715,15678,5
0.0,0.0,0.0,16093,21125,20940,30715,15710,5
0.0,0.0,0.0,15996,21146,20961,30653,15647,5
0.0,0.0,0.0,15900,21125,20879,30653,15741,5
0.0,0.0,0.0,15821,21125,20879,30684,15741,5
0.0,0.0,0.0,15773,21146,20818,30591,15647,5
0.0,0.0,0.0,15710,21125,20838,30715,15694,5
0.0,0.0,0.0,15600,21125,20818,30653,15710,5
0.0,0.0,0.0,15600,21146,20818,30715,15647,5
0.0,0.0,0.0,15490,21125,20838,30715,15615,5
0.0,0.0,0.0,15412,21125,20818,30653,15647,5
0.0,0.0,0.0,15381,21043,20838,30622,15584,5
0.0,0.0,0.0,15335,21084,20818,30653,15615,5
0.0,0.0,0.0,15227,21125,20818,30715,15647,5
0.0,0.0,0.0,15165,21064,20879,30591,15663,5
0.0,0.0,0.0,15150,21084,20920,30591,15678,5
0.0,0.0,0.0,15150,21084,20879,30684,15663,5
0.0,0.0,0.0,15211,21064,20879,30653,15647,5
0.0,0.0,0.0,15089,21043,20879,30653,15710,5
0.0,0.0,0.0,15089,21043,20879,30653,15663,5
0.0,0.0,0.0,15119,21022,20899,30653,15710,5
0.0,0.0,0.0,15074,21043,20879,30591,15694,5
0.0,0.0,0.0,15058,21064,20879,30591,15663,5
0.0,0.0,0.0,15089,21002,20859,30530,15741,5
0.0,0.0,0.0,15058,21043,20879,30530,15726,5
0.0,0.0,0.0,15058,21043,20899,30469,15726,5
0.0,0.0,0.0,15043,21002,20798,30347,15726,5
0.0,0.0,0.0,15013,21064,20798,30347,15741,5
0.0,0.0,0.0,14816,21043,20838,30256,15789,5
0.0,0.0,0.0,14756,20981,20798,30165,15773,5
0.0,0.0,0.0,14666,20981,20757,30165,15805,5
0.0,0.0,0.0,14696,20961,20757,30165,15805,5
0.0,0.0,0.0,14726,20920,20798,30165,15773,5
0.0,0.0,0.0,14651,20920,20757,30045,15773,5
0.0,0.0,0.0,14636,20961,20757,30105,15773,5
0.0,0.0,0.0,14636,20961,20757,30105,15789,5
0.0,0.0,0.0,14607,20961,20757,30045,15789,5
0.0,0.0,0.0,14577,20961,20757,30135,15773,5
0.0,0.0,0.0,14547,20961,20757,30165,15789,5
0.0,0.0,0.0,14547,20961,20777,30165,15773,5
0.0,0.0,0.0,14547,20940,20757,30105,15773,5
0.0,0.0,0.0,14518,20920,20737,30045,15789,5
0.0,0.0,0.0,14547,20899,20737,29984,15757,5
0.0,0.0,0.0,14488,20981,20737,30075,15837,5
0.0,0.0,0.0,14458,20920,20737,30015,15868,5
0.0,0.0,0.0,14444,20899,20757,29984,15916,5
0.0,0.0,0.0,14429,20920,20757,29984,15900,5
0.0,0.0,0.0,14429,20920,20737,29865,15868,5
0.0,0.0,0.0,14399,20940,20737,29925,15852,5
0.0,0.0,0.0,14370,20920,20757,29955,15868,5
0.0,0.0,0.0,14385,20920,20716,29865,15900,5
0.0,0.0,0.0,14370,20859,20716,29865,15900,5
0.0,0.0,0.0,14370,20920,20757,29895,15900,5
0.0,0.0,0.0,14726,20899,20716,29865,15789,5
0.0,0.0,0.0,14831,20879,20716,29835,15773,5
0.0,0.0,0.0,14621,20920,20716,30015,15837,5
0.0,0.0,0.0,14607,20899,20696,30165,15773,5
0.0,0.0,0.0,14726,20879,20555,30135,15663,5
0.0,0.0,0.0,14801,20838,20475,30165,15584,5
0.0,0.0,0.0,15089,20798,20475,29955,15490,5
0.0,0.0,0.0,15350,20798,20315,29984,15490,5
0.0,0.0,0.0,15366,20818,20335,29865,15397,5
0.0,0.0,0.0,15381,20798,20355,29865,15412,5
0.0,0.0,0.0,15288,21043,20636,30530,15537,5
0.0,0.0,0.0,14786,21395,21229,31339,15837,5
0.0,0.0,0.0,14209,22053,22010,32043,16483,5
0.0,0.0,0.0,14137,22226,22096,32108,16549,5
0.0,0.0,0.0,14166,22032,21903,32238,16352,5
0.0,0.0,0.0,14547,22010,21754,32238,16173,5
0.0,0.0,0.0,14592,21818,21818,31881,16028,5
0.0,0.0,0.0,14846,21669,21563,31849,15996,5
0.0,0.0,0.0,15089,21500,21416,31752,15964,5
0.0,0.0,0.0,15211,21395,21270,31370,15868,5
0.0,0.0,0.0,15211,21291,21022,31025,15773,5
0.0,0.0,0.0,15181,21270,20981,30962,15741,5
0.0,0.0,0.0,15181,21250,21022,30962,15757,5
0.0,0.0,0.0,15119,21250,21022,30962,15710,5
0.0,0.0,0.0,15058,21333,21002,31025,15726,5
0.0,0.0,0.0,14997,21229,21043,30962,15710,5
0.0,0.0,0.0,14967,21208,21043,30838,15678,5
0.0,0.0,0.0,14937,21250,21022,30900,15773,5
0.0,0.0,0.0,14907,21250,21064,30962,15741,5
0.0,0.0,0.0,14861,21250,21043,30962,15741,5
0.0,0.0,0.0,14831,21208,21022,30900,15741,5
0.0,0.0,0.0,14786,21229,21022,30838,15710,5
0.0,0.0,0.0,14741,21208,21002,30838,15647,5
0.0,0.0,0.0,14741,21208,21002,30776,15678,5
0.0,0.0,0.0,14726,21208,20981,30776,15663,5
0.0,0.0,0.0,14726,21208,20981,30776,15663,5
0.0,0.0,0.0,14711,21167,20981,30900,15678,5
0.0,0.0,0.0,14681,21187,20981,30838,15678,5
0.0,0.0,0.0,14726,21187,20981,30838,15663,5
0.0,0.0,0.0,14801,21167,20961,30807,15663,5
0.0,0.0,0.0,14786,21208,20981,30653,15726,5
0.0,0.0,0.0,14429,21229,21022,29509,16715,5
0.0,0.0,0.0,13398,21208,21022,28049,16582,5
0.0,0.0,0.0,12530,21250,20981,26723,16781,5
0.0,0.0,0.0,12636,21375,21043,25390,16781,5
0.0,0.0,0.0,12636,21416,20940,24702,16648,5
0.0,0.0,0.0,12770,21500,20940,24462,16565,5
0.0,0.0,0.0,12959,21542,20961,24318,16499,5
0.0,0.0,0.0,12864,21542,20981,24318,16417,5
0.0,0.0,0.0,12918,21584,20961,24247,16368,5
0.0,0.0,0.0,12851,21542,20961,24342,16287,5
0.0,0.0,0.0,12837,21563,20920,24414,16271,5
0.0,0.0,0.0,12797,21563,20920,24510,16238,5
0.0,0.0,0.0,12770,21500,20899,24606,16287,5
0.0,0.0,0.0,12743,21521,20961,24702,16173,5
0.0,0.0,0.0,12703,21458,20879,24702,16206,5
0.0,0.0,0.0,12690,21479,20899,24702,16173,5
0.0,0.0,0.0,12716,21458,20838,24654,16157,5
0.0,0.0,0.0,12690,21458,20899,24630,16189,5
0.0,0.0,0.0,12703,21458,20879,24702,16173,5
0.0,0.0,0.0,12649,21395,20940,24751,16222,5
0.0,0.0,0.0,12649,21458,20879,24702,16173,5
0.0,0.0,0.0,12649,21395,20879,24727,16173,5
0.0,0.0,0.0,12636,21437,20879,24799,16157,5
0.0,0.0,0.0,12649,21375,20899,24848,16157,5
0.0,0.0,0.0,12649,21395,20879,24897,16157,5
0.0,0.0,0.0,12636,21375,20879,24995,16189,5
0.0,0.0,0.0,12663,21437,20879,24946,16189,5
0.0,0.0,0.0,12649,21375,20920,24995,16189,5
0.0,0.0,0.0,12636,21375,20879,24970,16125,5
0.0,0.0,0.0,12636,21375,20879,24946,16157,5
0.0,0.0,0.0,12636,21375,20899,25044,16173,5
0.0,0.0,0.0,12610,21375,20879,25167,16157,5
0.0,0.0,0.0,12610,21375,20859,25118,16093,5
0.0,0.0,0.0,12596,21333,20920,25192,16157,5
0.0,0.0,0.0,12636,21333,20879,25167,16109,5
0.0,0.0,0.0,12596,21312,20879,25142,16173,5
0.0,0.0,0.0,12610,21312,20879,25192,16157,5
0.0,0.0,0.0,12583,21312,20838,25415,16173,5
0.0,0.0,0.0,12583,21208,20879,25591,16125,5
0.0,0.0,0.0,12530,21187,20899,25591,16076,5
0.0,0.0,0.0,12477,21208,20879,25843,16093,5
0.0,0.0,0.0,12663,20961,20798,27745,16093,5
0.0,0.0,0.0,13122,20636,20656,28273,15868,5
0.0,0.0,0.0,13849,20535,20495,28612,15868,5
0.0,0.0,0.0,14137,20475,20435,28470,15773,5
0.0,0.0,0.0,13622,20475,20435,28527,15741,5
0.0,0.0,0.0,13510,20455,20455,28470,15710,5
0.0,0.0,0.0,13454,20575,20435,28329,15710,5
0.0,0.0,0.0,13580,20535,20475,28357,15837,5
0.0,0.0,0.0,13636,20495,20395,28357,15900,5
0.0,0.0,0.0,13566,20535,20435,28245,15900,5
0.0,0.0,0.0,13454,20495,20415,28217,15900,5
0.0,0.0,0.0,13371,20495,20415,28077,15932,5
0.0,0.0,0.0,13287,20515,20435,28133,15996,5
0.0,0.0,0.0,13218,20515,20395,28133,15996,5
0.0,0.0,0.0,13177,20555,20415,28049,16044,5
0.0,0.0,0.0,13136,20575,20395,28133,16028,5
0.0,0.0,0.0,13095,20495,20415,28133,16093,5
0.0,0.0,0.0,13081,20555,20395,28133,16109,5
0.0,0.0,0.0,12972,20475,20395,28049,16125,5
0.0,0.0,0.0,12932,20555,20415,28077,16173,5
0.0,0.0,0.0,12945,20535,20435,28022,16206,5
0.0,0.0,0.0,12905,20555,20395,28022,16173,5
0.0,0.0,0.0,12878,20495,20395,28049,16222,5
0.0,0.0,0.0,12878,20475,20395,28022,16173,5
0.0,0.0,0.0,12905,20535,20415,28022,16222,5
0.0,0.0,0.0,12878,20515,20395,27911,16238,5
0.0,0.0,0.0,12905,20515,20395,27883,16417,5
0.0,0.0,0.0,12864,20515,20395,27856,16417,5
0.0,0.0,0.0,12918,20555,20395,27856,16434,5
0.0,0.0,0.0,12864,20515,20395,27800,16385,5
0.0,0.0,0.0,12905,20515,20415,27856,16401,5
0.0,0.0,0.0,12878,20555,20395,27773,16287,5
0.0,0.0,0.0,12851,20555,20355,27718,16319,5
0.0,0.0,0.0,12864,20535,20435,27745,16287,5
0.0,0.0,0.0,12878,20515,20395,27773,16319,5
0.0,0.0,0.0,12851,20475,20395,27718,16303,5
0.0,0.0,0.0,12878,20515,20355,27718,16319,5
0.0,0.0,0.0,12878,20555,20355,27800,16271,5
0.0,0.0,0.0,12864,20555,20375,27745,16287,5
0.0,0.0,0.0,12851,20475,20395,27800,16238,5
0.0,0.0,0.0,12851,20575,20395,27800,16303,5
0.0,0.0,0.0,12851,20555,20395,27800,16303,5
0.0,0.0,0.0,12851,20515,20395,27800,16319,5
0.0,0.0,0.0,12851,20555,20335,27800,16319,5
0.0,0.0,0.0,12851,20515,20395,27773,16271,5
0.0,0.0,0.0,12837,20475,20395,27745,16352,5
0.0,0.0,0.0,12824,20495,20395,27745,16319,5
0.0,0.0,0.0,12824,20555,20395,27773,16352,5
0.0,0.0,0.0,12851,20475,20375,27800,16352,5
0.0,0.0,0.0,12851,20495,20395,27718,16401,5
0.0,0.0,0.0,12851,20555,20375,27718,16385,5
0.0,0.0,0.0,12810,20555,20375,27691,16385,5
0.0,0.0,0.0,12824,20495,20395,27663,16417,5
0.0,0.0,0.0,12851,20435,20335,27691,16368,5
0.0,0.0,0.0,12851,20495,20395,27691,16352,5
0.0,0.0,0.0,12851,20535,20355,27691,16417,5
0.0,0.0,0.0,12851,20515,20375,27663,16434,5
0.0,0.0,0.0,12851,20495,20375,27636,16417,5
0.0,0.0,0.0,12851,20495,20355,27745,16434,5
0.0,0.0,0.0,12824,20495,20395,27718,16483,5
0.0,0.0,0.0,12810,20475,20395,27691,16417,5
0.0,0.0,0.0,12824,20515,20335,27663,16417,5
0.0,0.0,0.0,12810,20495,20355,27636,16450,5
0.0,0.0,0.0,12797,20475,20335,27581,16368,5
0.0,0.0,0.0,12824,20515,20335,27581,16303,5
0.0,0.0,0.0,12972,20515,20375,27581,16303,5
0.0,0.0,0.0,13315,20495,20355,27472,16206,5
0.0,0.0,0.0,14108,20535,20315,27581,16173,5
0.0,0.0,0.0,15335,20575,20355,27663,16109,5
0.0,0.0,0.0,16222,20595,20355,27828,16060,5
0.0,0.0,0.0,16028,20636,20315,28022,16060,5
0.0,0.0,0.0,15964,20636,20315,28189,15948,5
0.0,0.0,0.0,15694,20515,20295,28133,15852,5
0.0,0.0,0.0,15459,20575,20275,28133,15837,5
0.0,0.0,0.0,15242,20515,20275,28189,15900,5
0.0,0.0,0.0,15181,20555,20256,28133,15852,5
0.0,0.0,0.0,15089,20495,20275,28133,15852,5
0.0,0.0,0.0,15043,20515,20275,28133,15837,5
0.0,0.0,0.0,15104,20495,20275,28077,15805,5
0.0,0.0,0.0,15837,20555,20256,28105,15773,5
0.0,0.0,0.0,16483,20595,20315,28245,15773,5
0.0,0.0,0.0,16254,20575,20275,28161,15710,5
0.0,0.0,0.0,16287,20555,20236,28077,15710,5
0.0,0.0,0.0,16125,20515,20196,28022,15726,5
0.0,0.0,0.0,15964,20636,20236,28077,15710,5
0.0,0.0,0.0,15900,20575,20216,28022,15741,5
0.0,0.0,0.0,15773,20575,20196,27939,15726,5
0.0,0.0,0.0,15726,20555,20236,27911,15805,5
0.0,0.0,0.0,15615,20555,20216,27856,15789,5
0.0,0.0,0.0,15600,20555,20196,27828,15852,5
0.0,0.0,0.0,15490,20555,20176,27800,15868,5
0.0,0.0,0.0,15412,20555,20176,27800,15900,5
0.0,0.0,0.0,15366,20555,20157,27828,15900,5
0.0,0.0,0.0,15273,20555,20196,27911,15964,5
0.0,0.0,0.0,15150,20636,20176,27800,15964,5
0.0,0.0,0.0,15089,20696,20275,27911,16044,5
0.0,0.0,0.0,14982,21002,20636,28470,16254,5
0.0,0.0,0.0,14846,21084,20757,28640,16319,5
0.0,0.0,0.0,14786,21084,20716,28612,16287,5
0.0,0.0,0.0,14681,21064,20838,28812,16303,5
0.0,0.0,0.0,14621,21125,20899,28869,16352,5
0.0,0.0,0.0,14503,21084,20859,28927,16417,5
0.0,0.0,0.0,14399,21125,20961,28927,16483,5
0.0,0.0,0.0,14326,21146,20961,28984,16532,5
0.0,0.0,0.0,14253,21125,20961,28955,16499,5
0.0,0.0,0.0,14224,21105,20961,28869,16516,5
0.0,0.0,0.0,14209,21084,20920,28869,16499,5
0.0,0.0,0.0,14195,21125,20961,28869,16532,5
0.0,0.0,0.0,14166,21250,21125,29187,16698,5
0.0,0.0,0.0,14151,21270,21167,29158,16765,5
0.0,0.0,0.0,14007,21333,21291,29391,16781,5
0.0,0.0,0.0,13735,21458,21416,29450,16949,5
0.0,0.0,0.0,13412,21563,21542,29657,17033,5
0.0,0.0,0.0,13343,21584,21563,29568,17050,5
0.0,0.0,0.0,13287,21648,21627,29716,17050,5
0.0,0.0,0.0,13260,21606,21648,29657,17016,5
0.0,0.0,0.0,13205,21606,21584,29627,17050,5
0.0,0.0,0.0,13191,21584,21542,29538,17050,5
0.0,0.0,0.0,13205,21563,21479,29509,17016,5
0.0,0.0,0.0,13191,21542,21479,29509,17084,5
0.0,0.0,0.0,13177,21500,21479,29391,17016,5
0.0,0.0,0.0,13205,21458,21395,29362,17050,5
0.0,0.0,0.0,13177,21458,21458,29304,17016,5
0.0,0.0,0.0,13150,21458,21375,29274,17033,5
0.0,0.0,0.0,13177,21458,21395,29274,17016,5
0.0,0.0,0.0,13150,21458,21395,29216,17033,5
0.0,0.0,0.0,13150,21416,21375,29274,17016,5
0.0,0.0,0.0,13122,21416,21291,29158,17050,5
0.0,0.0,0.0,13136,21375,21312,29187,17084,5
0.0,0.0,0.0,13136,21354,21291,29100,17101,5
0.0,0.0,0.0,13232,21375,21291,29158,17084,5
0.0,0.0,0.0,13357,21395,21229,29274,16915,5
0.0,0.0,0.0,14282,21333,21125,29538,16125,5
0.0,0.0,0.0,15058,21043,20818,29568,15805,5
0.0,0.0,0.0,15119,20961,20818,29746,15726,5
0.0,0.0,0.0,15058,20879,20676,29479,15615,5
0.0,0.0,0.0,15366,20757,20555,29479,15584,5
0.0,0.0,0.0,15459,20475,20157,29042,15553,5
0.0,0.0,0.0,15475,20375,20117,28927,15553,5
0.0,0.0,0.0,15459,20335,20078,29013,15600,5
0.0,0.0,0.0,15366,20395,20137,29042,15397,5
0.0,0.0,0.0,15273,20415,20098,28955,15459,5
0.0,0.0,0.0,15150,20395,20117,28955,15366,5
0.0,0.0,0.0,15089,20395,20078,28840,15428,5
0.0,0.0,0.0,14952,20435,20078,28869,15366,5
0.0,0.0,0.0,14861,20435,20098,28869,15412,5
0.0,0.0,0.0,14801,20435,20098,28898,15459,5
0.0,0.0,0.0,14726,20415,20117,28869,15521,5
0.0,0.0,0.0,14607,20455,20117,28812,15553,5
0.0,0.0,0.0,14577,20435,20157,28869,15584,5
0.0,0.0,0.0,14532,20475,20176,28812,15584,5
0.0,0.0,0.0,14518,20435,20157,28812,15600,5
0.0,0.0,0.0,14488,20395,20137,28812,15568,5
0.0,0.0,0.0,14503,20395,20117,28754,15553,5
0.0,0.0,0.0,14488,20415,20157,28754,15553,5
0.0,0.0,0.0,14444,20495,20157,28812,15553,5
0.0,0.0,0.0,14458,20455,20157,28812,15521,5
0.0,0.0,0.0,14399,20435,20157,28812,15537,5
0.0,0.0,0.0,14444,20475,20196,28869,15537,5
0.0,0.0,0.0,14429,20515,20236,28955,15584,5
0.0,0.0,0.0,14429,20515,20236,28898,15584,5
0.0,0.0,0.0,14488,20555,20236,29042,15600,5
0.0,0.0,0.0,14666,20555,20275,28927,15600,5
0.0,0.0,0.0,14577,20515,20236,28927,15584,5
0.0,0.0,0.0,14444,20555,20236,29042,15537,5
0.0,0.0,0.0,14414,20515,20256,28955,15584,5
0.0,0.0,0.0,14370,20515,20157,28984,15521,5
0.0,0.0,0.0,14326,20475,20236,28840,15568,5
0.0,0.0,0.0,14282,20535,20236,28898,15568,5
0.0,0.0,0.0,14209,20515,20196,28812,15663,5
0.0,0.0,0.0,14137,20615,20236,28217,16368,5
0.0,0.0,0.0,13921,20818,20355,26566,16352,5
0.0,0.0,0.0,13735,20920,20475,24414,16417,5
0.0,0.0,0.0,13426,20879,20475,22932,16434,5
0.0,0.0,0.0,13371,20838,20295,22313,16483,5
0.0,0.0,0.0,13205,20696,20078,21754,16549,5
0.0,0.0,0.0,12663,20395,19843,21479,16516,5
0.0,0.0,0.0,12060,20275,19843,21375,16516,5
0.0,0.0,0.0,11728,20315,19805,21333,16483,5
0.0,0.0,0.0,11703,20315,19921,21375,16483,5
0.0,0.0,0.0,11792,20395,19941,21500,16434,5
0.0,0.0,0.0,11804,20435,20117,21627,16417,5
0.0,0.0,0.0,11881,20455,20176,21648,16368,5
0.0,0.0,0.0,11957,20415,20256,22010,16222,5
0.0,0.0,0.0,12060,20475,20355,22379,16125,5
0.0,0.0,0.0,11804,20475,20475,22532,16125,5
0.0,0.0,0.0,11754,20475,20395,22665,16125,5
0.0,0.0,0.0,11703,20475,20475,22977,16060,5
0.0,0.0,0.0,11653,20475,20455,23022,16093,5
0.0,0.0,0.0,11628,20475,20475,23112,16093,5
0.0,0.0,0.0,11603,20495,20475,23112,16093,5
0.0,0.0,0.0,11615,20555,20475,23067,16125,5
0.0,0.0,0.0,11590,20475,20475,22843,16157,5
0.0,0.0,0.0,11804,20555,20355,22357,16173,5
0.0,0.0,0.0,12021,20757,20375,22183,16189,5
0.0,0.0,0.0,12073,20838,20395,22053,16173,5
0.0,0.0,0.0,12112,20879,20335,22053,16157,5
0.0,0.0,0.0,12163,20838,20335,22010,16157,5
0.0,0.0,0.0,12346,20838,20335,22053,16125,5
0.0,0.0,0.0,12490,20838,20355,22010,16125,5
0.0,0.0,0.0,12743,20920,20335,22010,16157,5
0.0,0.0,0.0,12743,20920,20395,22053,16109,5
0.0,0.0,0.0,12636,20859,20335,22161,16093,5
0.0,0.0,0.0,12583,20838,20335,22226,16093,5
0.0,0.0,0.0,12504,20818,20395,22488,16093,5
0.0,0.0,0.0,12424,20777,20475,22887,16157,5
0.0,0.0,0.0,12346,20737,20515,23316,16141,5
0.0,0.0,0.0,12346,20737,20475,23203,16125,5
0.0,0.0,0.0,12333,20716,20475,23203,16093,5
0.0,0.0,0.0,12320,20696,20595,24727,16189,5
0.0,0.0,0.0,12372,20595,20798,26618,16319,5
0.0,0.0,0.0,12556,20475,20798,27310,16060,5
0.0,0.0,0.0,13849,20196,20555,27527,15773,5
0.0,0.0,0.0,14937,20039,20395,27609,15663,5
0.0,0.0,0.0,15227,19941,20117,27310,15553,5
0.0,0.0,0.0,15663,19921,20078,27283,15553,5
0.0,0.0,0.0,15553,19999,20039,27337,15663,5
0.0,0.0,0.0,15397,19941,19960,27283,15647,5
0.0,0.0,0.0,15288,19960,20117,27391,15600,5
0.0,0.0,0.0,15104,19999,20098,27364,15647,5
0.0,0.0,0.0,14861,20078,20157,27499,15647,5
0.0,0.0,0.0,14607,20039,20176,27554,15678,5
0.0,0.0,0.0,14282,20117,20196,27554,15726,5
0.0,0.0,0.0,14238,20098,20236,27527,15789,5
0.0,0.0,0.0,14195,20117,20236,27609,15837,5
0.0,0.0,0.0,14180,20157,20236,27636,15852,5
0.0,0.0,0.0,14166,20176,20315,27691,15821,5
0.0,0.0,0.0,14268,20176,20275,27636,15757,5
0.0,0.0,0.0,14253,20196,20275,27691,15789,5
0.0,0.0,0.0,14253,20196,20256,27609,15789,5
0.0,0.0,0.0,14195,20236,20275,27636,15837,5
0.0,0.0,0.0,14166,20236,20315,27581,15916,5
0.0,0.0,0.0,14137,20236,20315,27636,15932,5
0.0,0.0,0.0,14137,20236,20315,27581,15916,5
0.0,0.0,0.0,14108,20236,20275,27581,15964,5
0.0,0.0,0.0,14021,20236,20315,27581,15980,5
0.0,0.0,0.0,13935,20196,20315,27527,15996,5
0.0,0.0,0.0,13906,20236,20315,27527,15980,5
0.0,0.0,0.0,13878,20236,20335,27527,15996,5
0.0,0.0,0.0,13849,20256,20335,27256,15964,5
0.0,0.0,0.0,13863,20256,20315,27148,15900,5
0.0,0.0,0.0,13964,20236,20176,27041,15757,5
0.0,0.0,0.0,13935,20176,20176,27095,15663,5
0.0,0.0,0.0,13949,20176,20176,27068,15584,5
0.0,0.0,0.0,13906,20157,20176,27148,15584,5
0.0,0.0,0.0,13863,20176,20117,27095,15553,5
0.0,0.0,0.0,13863,20157,20157,27202,15553,5
0.0,0.0,0.0,13935,20157,20157,27283,15521,5
0.0,0.0,0.0,14108,20137,20078,27283,15412,5
0.0,0.0,0.0,14079,20098,19999,27095,15397,5
0.0,0.0,0.0,14050,20117,19863,26988,15366,5
0.0,0.0,0.0,13964,20078,19863,26882,15304,5
0.0,0.0,0.0,13964,20117,19863,27095,15335,5
0.0,0.0,0.0,13949,20039,19882,27068,15335,5
0.0,0.0,0.0,13878,20078,19863,27095,15335,5
0.0,0.0,0.0,13863,20078,19843,27175,15304,5
0.0,0.0,0.0,13863,20039,19843,27202,15304,5
0.0,0.0,0.0,13821,20078,19843,27256,15350,5
0.0,0.0,0.0,13849,20216,19921,27581,15366,5
0.0,0.0,0.0,13964,20555,20196,28301,15350,5
0.0,0.0,0.0,13878,20575,20157,28245,15366,5
0.0,0.0,0.0,13863,20515,20117,28133,15381,5
0.0,0.0,0.0,13806,20475,20157,28077,15335,5
0.0,0.0,0.0,13792,20555,20236,28357,15397,5
0.0,0.0,0.0,13792,20515,20176,28133,15397,5
0.0,0.0,0.0,13749,20495,20176,28133,15459,5
0.0,0.0,0.0,13735,20455,20216,28133,15459,5
0.0,0.0,0.0,13735,20435,20176,27994,15475,5
0.0,0.0,0.0,13679,20435,20157,27994,15521,5
0.0,0.0,0.0,13650,20395,20157,27883,15553,5
0.0,0.0,0.0,13580,20335,20157,27856,15647,5
0.0,0.0,0.0,13566,20315,20157,27856,15631,5
0.0,0.0,0.0,13566,20335,20157,27800,15647,5
0.0,0.0,0.0,13538,20335,20117,27800,15584,5
0.0,0.0,0.0,13510,20315,20157,27800,15584,5
0.0,0.0,0.0,13510,20355,20117,27745,15584,5
0.0,0.0,0.0,13482,20335,20117,27718,15615,5
0.0,0.0,0.0,13412,20355,20117,27691,15615,5
0.0,0.0,0.0,13398,20335,20157,27691,15647,5
0.0,0.0,0.0,13371,20315,20157,27718,15584,5
0.0,0.0,0.0,13398,20315,20137,27636,15615,5
0.0,0.0,0.0,13371,20315,20157,27691,15600,5
0.0,0.0,0.0,13384,20315,20117,27691,15647,5
0.0,0.0,0.0,13371,20335,20098,27691,15647,5
0.0,0.0,0.0,13357,20315,20098,27718,15647,5
0.0,0.0,0.0,13357,20315,20098,27636,15663,5
0.0,0.0,0.0,13343,20275,20098,27636,15678,5
0.0,0.0,0.0,13343,20295,20117,27636,15726,5
0.0,0.0,0.0,13343,20275,20098,27609,15789,5
0.0,0.0,0.0,13357,20295,20117,27527,15837,5
0.0,0.0,0.0,13343,20275,20078,27499,15837,5
0.0,0.0,0.0,13343,20236,20058,27418,15837,5
0.0,0.0,0.0,13398,20236,20058,27364,15837,5
0.0,0.0,0.0,13398,20236,19999,27364,15821,5
0.0,0.0,0.0,13398,20236,20039,27364,15741,5
0.0,0.0,0.0,13398,20236,20019,27310,15726,5
0.0,0.0,0.0,13357,20196,20019,27337,15757,5
0.0,0.0,0.0,13357,20236,20039,27310,15741,5
0.0,0.0,0.0,13357,20236,20019,27310,15773,5
0.0,0.0,0.0,13343,20196,20039,27256,15805,5
0.0,0.0,0.0,13357,20196,20039,27337,15773,5
0.0,0.0,0.0,13357,20196,20039,27256,15741,5
0.0,0.0,0.0,13343,20216,20039,27364,15678,5
0.0,0.0,0.0,13343,20236,19999,27283,15678,5
0.0,0.0,0.0,13301,20236,20039,27283,15678,5
0.0,0.0,0.0,13343,20196,19999,27364,15694,5
0.0,0.0,0.0,13301,20157,20039,27283,15647,5
0.0,0.0,0.0,13315,20176,19999,27202,15647,5
0.0,0.0,0.0,13301,20196,19999,27256,15663,5
0.0,0.0,0.0,13329,20157,19999,27256,15694,5
0.0,0.0,0.0,13301,20157,20039,27364,15710,5
0.0,0.0,0.0,13315,20176,19999,27229,15663,5
0.0,0.0,0.0,13287,20236,20039,27472,15710,5
0.0,0.0,0.0,13287,20196,20058,27418,15663,5
0.0,0.0,0.0,13287,20196,20039,27364,15663,5
0.0,0.0,0.0,13287,20196,20039,27391,15663,5
0.0,0.0,0.0,13301,20176,20019,27364,15678,5
0.0,0.0,0.0,13301,20157,20019,27364,15678,5
0.0,0.0,0.0,13301,20176,20078,27391,15694,5
0.0,0.0,0.0,13301,20157,20019,27364,15710,5
0.0,0.0,0.0,13315,20176,20039,27364,15710,5
0.0,0.0,0.0,13315,20176,19999,27364,15710,5
0.0,0.0,0.0,13454,20157,20039,27283,15741,5
0.0,0.0,0.0,13679,20176,19999,27256,15663,5
0.0,0.0,0.0,14108,20216,19999,27256,15710,5
0.0,0.0,0.0,14036,20176,20019,27310,15678,5
0.0,0.0,0.0,14137,20176,19999,27310,15663,5
0.0,0.0,0.0,13935,20157,19960,27256,15663,5
0.0,0.0,0.0,13906,20117,19999,27283,15694,5
0.0,0.0,0.0,13849,20157,19999,27310,15678,5
0.0,0.0,0.0,14036,20256,20039,27256,15678,5
0.0,0.0,0.0,14458,20157,19960,27256,15678,5
0.0,0.0,0.0,14876,20157,19999,27202,15663,5
0.0,0.0,0.0,15553,20176,20019,27283,15678,5
0.0,0.0,0.0,15837,20236,20039,27364,15741,5
0.0,0.0,0.0,15996,20256,20019,27310,15710,5
0.0,0.0,0.0,15932,20236,19999,27095,15647,5
0.0,0.0,0.0,15789,20176,19980,27148,15615,5
0.0,0.0,0.0,15553,20176,19941,27148,15615,5
0.0,0.0,0.0,15335,20157,19941,27148,15615,5
0.0,0.0,0.0,14997,20098,19921,27148,15615,5
0.0,0.0,0.0,14907,20098,19882,27041,15710,5
0.0,0.0,0.0,14741,20098,19921,26988,15710,5
0.0,0.0,0.0,14607,20058,19921,27068,15789,5
0.0,0.0,0.0,14547,20117,19921,26961,15837,5
0.0,0.0,0.0,14399,20078,19921,26961,15852,5
0.0,0.0,0.0,14311,20019,19902,26935,15837,5
0.0,0.0,0.0,14253,20078,19960,26988,15837,5
0.0,0.0,0.0,14282,20058,19921,26961,15837,5
0.0,0.0,0.0,14577,20039,19921,26961,15821,5
0.0,0.0,0.0,15412,20137,19882,26935,15710,5
0.0,0.0,0.0,15397,20157,19843,27095,15900,5
0.0,0.0,0.0,15104,20078,19843,27095,15852,5
0.0,0.0,0.0,14937,20098,19843,27068,15741,5
0.0,0.0,0.0,14756,20078,19843,27041,15678,5
0.0,0.0,0.0,14666,20078,19863,27041,15647,5
0.0,0.0,0.0,14636,20019,19863,26988,15663,5
0.0,0.0,0.0,14607,20078,19843,26988,15678,5
0.0,0.0,0.0,14621,20039,19843,27041,15663,5
0.0,0.0,0.0,14666,20019,19805,26988,15663,5
0.0,0.0,0.0,14636,20039,19843,27041,15663,5
0.0,0.0,0.0,14756,20039,19863,26988,15663,5
0.0,0.0,0.0,15397,20039,19843,27041,15678,5
0.0,0.0,0.0,15584,20078,19882,27041,15647,5
0.0,0.0,0.0,15397,20039,19863,26988,15600,5
0.0,0.0,0.0,15273,19999,19843,26988,15615,5
0.0,0.0,0.0,15150,20078,19843,26908,15631,5
0.0,0.0,0.0,14982,20039,19843,26935,15647,5
0.0,0.0,0.0,14786,20019,19843,26988,15647,5
0.0,0.0,0.0,14681,19999,19863,26935,15678,5
0.0,0.0,0.0,14562,19960,19824,26988,15741,5
0.0,0.0,0.0,14488,19999,19863,26935,15710,5
0.0,0.0,0.0,14399,19941,19843,27041,15773,5
0.0,0.0,0.0,14282,19941,19843,27015,15789,5
0.0,0.0,0.0,14311,19999,19824,26961,15789,5
0.0,0.0,0.0,14253,19980,19843,26961,15837,5
0.0,0.0,0.0,14195,19999,19843,26961,15805,5
0.0,0.0,0.0,14108,19921,19843,26988,15821,5
0.0,0.0,0.0,14108,19960,19843,26988,15837,5
0.0,0.0,0.0,14079,19960,19843,26935,15773,5
0.0,0.0,0.0,14050,19999,19843,26988,15805,5
0.0,0.0,0.0,14238,19941,19843,26988,15741,5
0.0,0.0,0.0,15058,20196,19902,26988,15710,5
0.0,0.0,0.0,15119,20275,19941,27068,15694,5
0.0,0.0,0.0,15211,20275,19999,27095,15663,5
0.0,0.0,0.0,15397,20236,19960,27095,15647,5
0.0,0.0,0.0,15397,20236,19921,27095,15647,5
0.0,0.0,0.0,15428,20216,19902,27148,15584,5
0.0,0.0,0.0,15288,20196,19882,27095,15647,5
0.0,0.0,0.0,15258,20157,19921,27122,15647,5
0.0,0.0,0.0,15584,20157,19863,27068,15600,5
0.0,0.0,0.0,15916,20078,19843,27015,15521,5
0.0,0.0,0.0,16028,19863,19497,26670,15490,5
0.0,0.0,0.0,16060,19612,19043,26409,15366,5
0.0,0.0,0.0,16093,19516,18562,25843,15242,5
0.0,0.0,0.0,15980,19401,18290,25540,15119,5
0.0,0.0,0.0,15868,19249,18111,25266,15058,5
0.0,0.0,0.0,15868,19287,18057,25192,15074,5
0.0,0.0,0.0,15821,19249,18057,25216,15028,5
0.0,0.0,0.0,15710,19268,18129,25341,15058,5
0.0,0.0,0.0,15600,19382,18236,25440,15104,5
0.0,0.0,0.0,15490,19612,18672,26305,15288,5
0.0,0.0,0.0,15397,19999,19099,27256,15553,5
0.0,0.0,0.0,15335,20236,19592,28301,15805,5
0.0,0.0,0.0,15304,20275,19689,28301,15837,5
0.0,0.0,0.0,15242,20615,20078,28812,15964,5
0.0,0.0,0.0,15089,20375,19960,28527,15852,5
0.0,0.0,0.0,15028,20395,19921,28527,15837,5
0.0,0.0,0.0,14982,20615,20039,28640,15868,5
0.0,0.0,0.0,14937,20798,20455,29274,15996,5
0.0,0.0,0.0,14846,21167,21043,29925,16222,5
0.0,0.0,0.0,14786,21250,21105,29925,16254,5
0.0,0.0,0.0,14726,21375,21333,30256,16352,5
0.0,0.0,0.0,14666,21458,21542,30530,16549,5
0.0,0.0,0.0,14518,21395,21563,30499,16765,5
0.0,0.0,0.0,14414,21416,21563,30165,16831,5
0.0,0.0,0.0,14137,21333,21542,30226,16898,5
0.0,0.0,0.0,14021,21375,21375,30075,16831,5
0.0,0.0,0.0,13964,21291,21375,30075,16882,5
0.0,0.0,0.0,14681,21333,21333,29657,16882,5
0.0,0.0,0.0,14282,21291,21312,29538,16882,5
0.0,0.0,0.0,14224,21291,21333,29686,16781,5
0.0,0.0,0.0,13978,21479,21584,29746,17220,5
0.0,0.0,0.0,13906,21542,21648,29450,17704,5
0.0,0.0,0.0,13863,21500,21627,29333,17582,5
0.0,0.0,0.0,13821,21437,21563,29274,17478,5
0.0,0.0,0.0,13849,21395,21458,29362,17323,5
0.0,0.0,0.0,13821,21395,21416,29362,17306,5
0.0,0.0,0.0,13849,21500,21542,29391,17357,5
0.0,0.0,0.0,13849,21627,21796,29835,17461,5
0.0,0.0,0.0,13792,21690,21882,29895,17565,5
0.0,0.0,0.0,13735,21711,22010,29509,17634,5
0.0,0.0,0.0,13679,21669,21903,29865,17652,5
0.0,0.0,0.0,13538,21542,21882,29597,17704,5
0.0,0.0,0.0,13398,21542,21882,29333,17951,5
0.0,0.0,0.0,13301,21542,21882,29158,18129,5
0.0,0.0,0.0,13232,21606,21882,29304,18057,5
0.0,0.0,0.0,13218,21542,21882,29304,17915,5
0.0,0.0,0.0,13246,21542,21882,29421,17809,5
0.0,0.0,0.0,13274,21542,21818,29333,17704,5
0.0,0.0,0.0,13260,21458,21796,29362,17739,5
0.0,0.0,0.0,13287,21479,21775,29333,17774,5
0.0,0.0,0.0,13205,21500,21796,29216,17862,5
0.0,0.0,0.0,13150,21458,21733,28984,17792,5
0.0,0.0,0.0,13150,21437,21711,28840,17880,5
0.0,0.0,0.0,13122,21458,21711,28470,17634,5
0.0,0.0,0.0,13081,21479,22010,27256,17600,5
0.0,0.0,0.0,12504,21711,22096,26150,17565,5
0.0,0.0,0.0,12254,21796,22053,25440,17495,5
0.0,0.0,0.0,12716,21796,22010,25291,17306,5
0.0,0.0,0.0,13232,21818,21818,25515,17237,5
0.0,0.0,0.0,14079,21839,21882,25490,17169,5
0.0,0.0,0.0,14801,21860,21839,25490,17101,5
0.0,0.0,0.0,16093,21882,21839,25440,17084,5
0.0,0.0,0.0,16898,21924,21882,25490,17084,5
0.0,0.0,0.0,16915,21796,22010,26150,16882,5
0.0,0.0,0.0,16632,21818,22075,26592,16831,5
0.0,0.0,0.0,16352,21775,22010,26566,16831,5
0.0,0.0,0.0,15964,21733,21903,26776,16765,5
0.0,0.0,0.0,15773,21733,21903,26723,16831,5
0.0,0.0,0.0,15663,21711,21882,26409,16831,5
0.0,0.0,0.0,15647,21796,21818,26124,16898,5
0.0,0.0,0.0,15584,21754,21796,25894,16915,5
0.0,0.0,0.0,15490,21711,21754,25971,16882,5
0.0,0.0,0.0,15258,21711,21733,26202,16748,5
0.0,0.0,0.0,15135,21627,21648,26124,16715,5
0.0,0.0,0.0,14922,21563,21627,25894,16748,5
0.0,0.0,0.0,14166,21416,21584,28754,16748,5
0.0,0.0,0.0,13849,21333,21563,29657,16681,5
0.0,0.0,0.0,14711,21375,21542,29984,16467,5
0.0,0.0,0.0,14967,21250,21542,30045,16417,5
0.0,0.0,0.0,16222,21312,21584,30165,16450,5
0.0,0.0,0.0,16028,21375,21648,30045,16632,5
0.0,0.0,0.0,16303,21416,21796,30105,16781,5
0.0,0.0,0.0,16093,21375,21669,29925,16681,5
0.0,0.0,0.0,16681,21375,21648,29835,16632,5
0.0,0.0,0.0,17084,21437,21563,29805,16648,5
0.0,0.0,0.0,16715,21291,21479,29746,16565,5
0.0,0.0,0.0,16549,21291,21416,29746,16385,5
0.0,0.0,0.0,16319,21291,21375,29775,16189,5
0.0,0.0,0.0,16222,21229,21250,29805,16060,5
0.0,0.0,0.0,16222,21125,21291,29865,16060,5
0.0,0.0,0.0,16125,21187,21312,29835,16076,5
0.0,0.0,0.0,16093,21146,21250,29746,16173,5
0.0,0.0,0.0,15900,21125,21291,29686,16385,5
0.0,0.0,0.0,15773,21146,21291,29568,16516,5
0.0,0.0,0.0,15600,21187,21375,29627,16698,5
0.0,0.0,0.0,15490,21333,21416,29627,16882,5
0.0,0.0,0.0,15475,21375,21500,29686,17050,5
0.0,0.0,0.0,15584,21542,21733,29895,17289,5
0.0,0.0,0.0,15615,21648,21882,30045,17374,5
0.0,0.0,0.0,15521,21754,21903,30045,17357,5
0.0,0.0,0.0,15335,21711,22010,29597,17340,5
0.0,0.0,0.0,15273,21711,21946,30045,17374,5
0.0,0.0,0.0,15150,21796,22075,29657,17530,5
0.0,0.0,0.0,15028,22010,21903,30135,17652,5
0.0,0.0,0.0,14982,21924,22205,29746,17809,5
0.0,0.0,0.0,14997,21924,22161,29568,17739,5
0.0,0.0,0.0,15043,21860,22140,29450,17687,5
0.0,0.0,0.0,15028,21775,22053,29333,17565,5
0.0,0.0,0.0,15058,21775,21924,29627,17495,5
0.0,0.0,0.0,15058,21669,21882,29509,17461,5
0.0,0.0,0.0,15058,21627,21796,29509,17426,5
0.0,0.0,0.0,15181,21584,21733,29421,17374,5
0.0,0.0,0.0,15089,21563,21711,29333,17357,5
0.0,0.0,0.0,15058,21521,21648,29362,17357,5
0.0,0.0,0.0,15150,21500,21648,29450,17323,5
0.0,0.0,0.0,15074,21479,21627,29333,17323,5
0.0,0.0,0.0,15089,21458,21542,29274,17254,5
0.0,0.0,0.0,15028,21395,21542,29216,17289,5
0.0,0.0,0.0,15028,21395,21479,29158,17254,5
0.0,0.0,0.0,15058,21375,21500,29187,17323,5
0.0,0.0,0.0,15104,21395,21479,29187,17289,5
0.0,0.0,0.0,15119,21375,21500,29158,17254,5
0.0,0.0,0.0,15089,21416,21500,29187,17254,5
0.0,0.0,0.0,15058,21375,21458,29158,17254,5
0.0,0.0,0.0,15028,21375,21458,29100,17289,5
0.0,0.0,0.0,14967,21333,21458,29187,17306,5
0.0,0.0,0.0,14922,21395,21458,29042,17340,5
0.0,0.0,0.0,14861,21375,21458,29158,17357,5
0.0,0.0,0.0,14891,21354,21458,29042,17392,5
0.0,0.0,0.0,14937,21416,21458,29042,17392,5
0.0,0.0,0.0,14997,21375,21458,29042,17323,5
0.0,0.0,0.0,15058,21291,21395,29274,16966,5
0.0,0.0,0.0,15043,21291,21375,29865,16565,5
0.0,0.0,0.0,15013,21208,21333,29865,16483,5
0.0,0.0,0.0,15028,21208,21270,29865,16483,5
0.0,0.0,0.0,14997,21208,21291,29865,16319,5
0.0,0.0,0.0,14967,21125,21291,29955,16352,5
0.0,0.0,0.0,14967,21125,21229,29984,16287,5
0.0,0.0,0.0,14891,21064,21208,29925,16287,5
0.0,0.0,0.0,14846,20981,21167,29775,16254,5
0.0,0.0,0.0,14786,21043,21208,29865,16303,5
0.0,0.0,0.0,14711,20981,21167,29746,16303,5
0.0,0.0,0.0,14547,20961,21125,29716,16303,5
0.0,0.0,0.0,14518,20961,21146,29746,16417,5
0.0,0.0,0.0,14429,21043,21146,29627,16385,5
0.0,0.0,0.0,14385,21043,21105,29627,16483,5
0.0,0.0,0.0,14326,21043,21125,29568,16499,5
0.0,0.0,0.0,14326,20981,21084,29627,16483,5
0.0,0.0,0.0,14326,20981,21084,29627,16483,5
0.0,0.0,0.0,14311,21043,21125,29568,16483,5
0.0,0.0,0.0,14326,20961,21125,29509,16499,5
0.0,0.0,0.0,14311,21002,21125,29568,16565,5
0.0,0.0,0.0,14268,20981,21125,29479,16815,5
0.0,0.0,0.0,14253,21002,21105,29509,16949,5
0.0,0.0,0.0,14253,20961,21084,29391,16815,5
0.0,0.0,0.0,14282,20961,21105,29333,16748,5
0.0,0.0,0.0,14370,20961,21064,29362,16681,5
0.0,0.0,0.0,14311,20961,21064,29274,16715,5
0.0,0.0,0.0,14268,20981,21064,29158,16731,5
0.0,0.0,0.0,14238,20961,21125,29158,16781,5
0.0,0.0,0.0,14238,20961,21084,29100,16815,5
0.0,0.0,0.0,14238,20961,21105,29100,16831,5
0.0,0.0,0.0,14253,20981,21043,29042,16781,5
0.0,0.0,0.0,14224,20981,21043,29042,16865,5
0.0,0.0,0.0,14253,20961,21064,28955,16815,5
0.0,0.0,0.0,14253,20961,21064,29071,16848,5
0.0,0.0,0.0,14209,20961,21043,28955,16831,5
0.0,0.0,0.0,14253,20961,21043,28840,16815,5
0.0,0.0,0.0,14209,20961,21043,28783,16798,5
0.0,0.0,0.0,14209,21043,20920,28133,16549,5
0.0,0.0,0.0,14282,20859,20636,26855,16157,5
0.0,0.0,0.0,14414,20798,20475,26150,16222,5
0.0,0.0,0.0,14756,20818,20475,24848,16385,5
0.0,0.0,0.0,15150,20961,20656,23477,16549,5
0.0,0.0,0.0,15412,21064,20879,22444,16582,5
0.0,0.0,0.0,15397,21064,20879,21967,16815,5
0.0,0.0,0.0,15459,21167,20961,21924,16748,5
0.0,0.0,0.0,15165,21291,20879,21839,16748,5
0.0,0.0,0.0,14846,21250,20879,21818,16632,5
0.0,0.0,0.0,14651,21291,20899,21818,16681,5
0.0,0.0,0.0,14503,21208,20818,21924,16615,5
0.0,0.0,0.0,14429,21146,20879,22183,16450,5
0.0,0.0,0.0,14444,21125,20879,22423,16401,5
0.0,0.0,0.0,14399,21105,20879,22932,16417,5
0.0,0.0,0.0,14370,21208,21043,23316,16450,5
0.0,0.0,0.0,14253,21333,21250,24414,16549,5
0.0,0.0,0.0,14166,21375,21416,25843,16516,5
0.0,0.0,0.0,14108,21354,21375,26099,16434,5
0.0,0.0,0.0,14137,21354,21375,26618,16417,5
0.0,0.0,0.0,14122,21312,21333,26935,16565,5
0.0,0.0,0.0,14137,21312,21291,26513,16549,5
0.0,0.0,0.0,14079,21416,21333,25742,16549,5
0.0,0.0,0.0,13978,21458,21333,25192,16615,5
0.0,0.0,0.0,13964,21416,21250,25118,16549,5
0.0,0.0,0.0,13921,21416,21291,25241,16549,5
0.0,0.0,0.0,13921,21416,21395,25843,16417,5
0.0,0.0,0.0,13863,21354,21458,26935,16499,5
0.0,0.0,0.0,13806,21354,21648,27283,16648,5
0.0,0.0,0.0,13735,21375,21796,27773,16915,5
0.0,0.0,0.0,13693,21458,21818,27745,17084,5
0.0,0.0,0.0,13566,21500,21924,27911,17152,5
0.0,0.0,0.0,13384,21458,22010,27609,17426,5
0.0,0.0,0.0,13232,21500,22010,27636,17495,5
0.0,0.0,0.0,13081,21500,22053,27527,17809,5
0.0,0.0,0.0,12972,21458,22161,27691,18022,5
0.0,0.0,0.0,12797,21458,22270,27718,18236,5
0.0,0.0,0.0,12690,21395,22226,27554,18508,5
0.0,0.0,0.0,12636,21312,22096,27691,18783,5
0.0,0.0,0.0,12477,21312,21860,28077,19155,5
0.0,0.0,0.0,12346,21208,21500,27800,19535,5
0.0,0.0,0.0,12215,21167,21395,27609,19535,5
0.0,0.0,0.0,12163,21084,21312,27472,19477,5
0.0,0.0,0.0,12086,21064,21208,27310,19458,5
0.0,0.0,0.0,12034,20981,21125,27256,19306,5
0.0,0.0,0.0,11983,21002,21043,27148,19231,5
0.0,0.0,0.0,11983,20961,20981,27041,19231,5
0.0,0.0,0.0,11957,20961,20920,27068,19118,5
0.0,0.0,0.0,11957,20920,20920,27095,19080,5
0.0,0.0,0.0,11944,20961,20879,27148,18912,5
0.0,0.0,0.0,11855,20899,20899,27364,18746,5
0.0,0.0,0.0,11932,20879,20920,27911,18362,5
0.0,0.0,0.0,12228,20879,20859,27966,18182,5
0.0,0.0,0.0,12438,20859,20838,28049,17986,5
0.0,0.0,0.0,12690,20818,20838,28022,17951,5
0.0,0.0,0.0,13068,20818,20818,28470,17652,5
0.0,0.0,0.0,13426,20777,20859,28640,17289,5
0.0,0.0,0.0,13906,20818,20899,28869,17016,5
0.0,0.0,0.0,14326,20798,20940,28754,16748,5
0.0,0.0,0.0,14756,20757,20838,28697,16715,5
0.0,0.0,0.0,14607,20757,20879,28612,16615,5
0.0,0.0,0.0,14444,20777,20859,28640,16681,5
0.0,0.0,0.0,14488,20737,20838,28470,16715,5
0.0,0.0,0.0,14503,20737,20818,28357,16681,5
0.0,0.0,0.0,14651,20777,20838,28133,16748,5
0.0,0.0,0.0,14907,20798,20838,27939,16831,5
0.0,0.0,0.0,14636,20798,20798,27856,16882,5
0.0,0.0,0.0,14666,20838,20940,27745,16765,5
0.0,0.0,0.0,14488,21125,21250,27445,17237,5
0.0,0.0,0.0,14429,21208,21416,27800,18236,5
0.0,0.0,0.0,14166,21043,21291,27609,18344,5
0.0,0.0,0.0,13735,21125,21208,27581,18200,5
0.0,0.0,0.0,13454,21002,21125,27745,17933,5
0.0,0.0,0.0,13398,20961,21146,27718,17951,5
0.0,0.0,0.0,13232,20961,21146,27609,17986,5
0.0,0.0,0.0,13081,20920,21167,27581,18147,5
0.0,0.0,0.0,13081,20961,21084,27527,18039,5
0.0,0.0,0.0,13426,21022,21084,28133,17704,5
0.0,0.0,0.0,13693,21022,21043,28583,17392,5
0.0,0.0,0.0,13735,21043,21043,28640,17220,5
0.0,0.0,0.0,13906,21043,21084,28812,17016,5
0.0,0.0,0.0,13978,20981,21125,28812,16898,5
0.0,0.0,0.0,14007,20981,21064,28812,16765,5
0.0,0.0,0.0,14079,21022,21084,28927,16781,5
0.0,0.0,0.0,13992,21002,21064,28927,16681,5
0.0,0.0,0.0,14108,20961,21084,28927,16698,5
0.0,0.0,0.0,14079,20961,21043,28869,16681,5
0.0,0.0,0.0,14021,20961,21043,28927,16715,5
0.0,0.0,0.0,14151,20879,20981,28927,16815,5
0.0,0.0,0.0,14268,20920,20981,28927,16681,5
0.0,0.0,0.0,14036,20838,20920,28955,16698,5
0.0,0.0,0.0,13792,20961,21002,27527,16681,5
0.0,0.0,0.0,13636,21002,21333,25843,16615,5
0.0,0.0,0.0,12959,21043,21312,24342,16665,5
0.0,0.0,0.0,12477,21125,21333,23847,16681,5
0.0,0.0,0.0,12280,21229,21333,23592,16615,5
0.0,0.0,0.0,12398,21229,21250,23477,16615,5
0.0,0.0,0.0,12438,21125,21229,23477,16549,5
0.0,0.0,0.0,12636,21229,21291,23477,16483,5
0.0,0.0,0.0,12636,21167,21250,23638,16549,5
0.0,0.0,0.0,12663,21250,21208,23661,16483,5
0.0,0.0,0.0,12824,21250,21208,23730,16483,5
0.0,0.0,0.0,12649,21167,21208,23661,16582,5
0.0,0.0,0.0,12543,21105,21146,23569,16549,5
0.0,0.0,0.0,12636,21084,21043,23477,16516,5
0.0,0.0,0.0,12583,21064,21022,23477,16499,5
0.0,0.0,0.0,12530,21043,21043,23569,16549,5
0.0,0.0,0.0,12464,21043,21064,23638,16483,5
0.0,0.0,0.0,12398,21002,21105,23730,16434,5
0.0,0.0,0.0,12346,20981,21022,23964,16434,5
0.0,0.0,0.0,12293,20961,20981,23894,16450,5
0.0,0.0,0.0,12346,20961,20961,23569,16499,5
0.0,0.0,0.0,12385,20920,20920,22887,16748,5
0.0,0.0,0.0,12424,20920,20899,22226,16815,5
0.0,0.0,0.0,12477,20920,20981,21711,17033,5
0.0,0.0,0.0,12451,20838,20940,20981,17016,5
0.0,0.0,0.0,12385,20716,21002,20315,16983,5
0.0,0.0,0.0,12280,20737,21084,19516,16949,5
0.0,0.0,0.0,12267,20676,21146,19477,16949,5
0.0,0.0,0.0,12202,20656,21125,19650,16966,5
0.0,0.0,0.0,12124,20615,21146,20058,16966,5
0.0,0.0,0.0,12073,20676,21043,20236,16983,5
0.0,0.0,0.0,12086,20555,20920,20078,16999,5
0.0,0.0,0.0,12009,20395,20961,19999,17016,5
0.0,0.0,0.0,12009,20395,20961,19960,17033,5
0.0,0.0,0.0,12009,20355,20838,19960,16932,5
0.0,0.0,0.0,11957,20375,20879,20256,16915,5
0.0,0.0,0.0,11957,20355,20879,20757,16765,5
0.0,0.0,0.0,12009,20315,20879,21125,16748,5
0.0,0.0,0.0,12021,20335,20879,21333,16698,5
0.0,0.0,0.0,12073,20315,20879,21395,16748,5
0.0,0.0,0.0,12124,20275,20818,21416,16681,5
0.0,0.0,0.0,12086,20275,20879,21375,16698,5
0.0,0.0,0.0,12112,20335,20838,21375,16681,5
0.0,0.0,0.0,12112,20295,20899,21458,16681,5
0.0,0.0,0.0,12112,20236,20920,21946,16681,5
0.0,0.0,0.0,12086,20415,21084,23294,16532,5
0.0,0.0,0.0,11970,20315,21043,24318,16483,5
0.0,0.0,0.0,11830,20275,20961,24751,16532,5
0.0,0.0,0.0,11804,20275,20981,24897,16516,5
0.0,0.0,0.0,11766,20236,20961,25044,16483,5
0.0,0.0,0.0,11779,20236,20920,25093,16434,5
0.0,0.0,0.0,11804,20236,21022,25591,16615,5
0.0,0.0,0.0,11779,20236,20981,25894,16681,5
0.0,0.0,0.0,11804,20236,21064,26776,17152,5
0.0,0.0,0.0,11830,20256,21064,26855,17306,5
0.0,0.0,0.0,11830,20236,21002,27391,17845,5
0.0,0.0,0.0,11716,20196,21043,27472,17933,5
0.0,0.0,0.0,11703,20236,20961,27364,18093,5
0.0,0.0,0.0,11603,20256,21022,27445,18164,5
0.0,0.0,0.0,11553,20196,20879,27148,18004,5
0.0,0.0,0.0,11540,20196,20879,27095,17986,5
0.0,0.0,0.0,11528,20236,20879,27283,18236,5
0.0,0.0,0.0,11528,20176,20859,27202,18272,5
0.0,0.0,0.0,11528,20157,20798,27256,18182,5
0.0,0.0,0.0,11515,20137,20798,27175,18164,5
0.0,0.0,0.0,11503,20157,20757,27095,18182,5
0.0,0.0,0.0,11503,20098,20676,27202,18272,5
0.0,0.0,0.0,11503,20078,20636,27364,18057,5
0.0,0.0,0.0,11553,20039,20636,27636,18236,5
0.0,0.0,0.0,11528,20019,20615,27472,18164,5
0.0,0.0,0.0,11515,20019,20636,27364,18164,5
0.0,0.0,0.0,11515,19999,20595,27256,18272,5
0.0,0.0,0.0,11553,20039,20636,27148,19287,5
0.0,0.0,0.0,11603,20019,20636,27068,19401,5
0.0,0.0,0.0,11615,19999,20656,27041,19174,5
0.0,0.0,0.0,11565,20078,20676,26855,19005,5
0.0,0.0,0.0,11553,20019,20555,26988,18526,5
0.0,0.0,0.0,11528,20058,20555,27041,18417,5
0.0,0.0,0.0,11553,19999,20595,27310,18272,5
0.0,0.0,0.0,11578,19999,20636,27391,18344,5
0.0,0.0,0.0,11628,19999,20636,27364,18362,5
0.0,0.0,0.0,11653,19960,20595,27391,18435,5
0.0,0.0,0.0,11653,19999,20636,27310,18544,5
0.0,0.0,0.0,11665,19999,20595,27310,18635,5
0.0,0.0,0.0,11653,19999,20595,27283,18544,5
0.0,0.0,0.0,11678,20019,20615,27310,18617,5
0.0,0.0,0.0,11665,20039,20575,27310,18727,5
0.0,0.0,0.0,11703,20039,20595,27256,18746,5
0.0,0.0,0.0,11703,20019,20555,27283,18857,5
0.0,0.0,0.0,11728,20039,20575,27148,18801,5
0.0,0.0,0.0,11741,20039,20555,27095,18599,5
0.0,0.0,0.0,11716,19999,20515,27041,18471,5
0.0,0.0,0.0,11716,19941,20535,27148,18435,5
0.0,0.0,0.0,11703,19960,20515,27122,18417,5
0.0,0.0,0.0,11754,19941,20455,26935,18453,5
0.0,0.0,0.0,11766,19941,20475,26908,18544,5
0.0,0.0,0.0,11817,19941,20475,26935,18562,5
0.0,0.0,0.0,12112,19921,20455,26829,18453,5
0.0,0.0,0.0,13468,19999,20475,26829,18489,5
0.0,0.0,0.0,15521,20019,20495,26882,18489,5
0.0,0.0,0.0,15916,20058,20435,26855,18417,5
0.0,0.0,0.0,17084,20117,20495,26855,18453,5
0.0,0.0,0.0,17357,20137,20475,26935,18783,5
0.0,0.0,0.0,17669,20196,20475,26935,19193,5
0.0,0.0,0.0,17461,20157,20435,26988,19325,5
0.0,0.0,0.0,17289,20176,20415,26882,19344,5
0.0,0.0,0.0,17084,20137,20415,26882,19249,5
0.0,0.0,0.0,16815,20098,20435,26882,18949,5
0.0,0.0,0.0,16549,20117,20435,26882,18931,5
0.0,0.0,0.0,16434,20078,20395,26855,18894,5
0.0,0.0,0.0,16352,20078,20415,26882,18857,5
0.0,0.0,0.0,16303,20078,20435,26935,18875,5
0.0,0.0,0.0,16222,20058,20415,26935,18894,5
0.0,0.0,0.0,16189,20039,20395,26961,18857,5
0.0,0.0,0.0,16125,20039,20415,26988,18931,5
0.0,0.0,0.0,16109,20039,20395,26988,18931,5
0.0,0.0,0.0,16076,20019,20395,27041,19043,5
0.0,0.0,0.0,16060,20078,20395,26988,18968,5
0.0,0.0,0.0,16060,19999,20355,26988,18968,5
0.0,0.0,0.0,15964,19999,20335,27095,19005,5
0.0,0.0,0.0,15916,19999,20415,27068,18949,5
0.0,0.0,0.0,15837,19999,20315,27041,18968,5
0.0,0.0,0.0,15773,19960,20315,26961,18949,5
0.0,0.0,0.0,15773,19921,20315,26935,19080,5
0.0,0.0,0.0,15741,19941,20275,26882,19155,5
0.0,0.0,0.0,15710,19902,20256,26829,19174,5
0.0,0.0,0.0,15710,19921,20236,26882,19155,5
0.0,0.0,0.0,15647,19863,20256,26829,19099,5
0.0,0.0,0.0,15647,19863,20196,26776,19118,5
0.0,0.0,0.0,15615,19843,20236,26723,19118,5
0.0,0.0,0.0,15553,19843,20196,26723,19005,5
0.0,0.0,0.0,15521,19863,20157,26566,18968,5
0.0,0.0,0.0,15412,19863,20176,26618,18875,5
0.0,0.0,0.0,15397,19805,20157,26670,18857,5
0.0,0.0,0.0,15350,19843,20157,26618,18857,5
0.0,0.0,0.0,15335,19882,20176,26592,18857,5
0.0,0.0,0.0,15319,19843,20176,26592,18931,5
0.0,0.0,0.0,15319,19843,20157,26618,19005,5
0.0,0.0,0.0,15288,19805,20176,26618,19080,5
0.0,0.0,0.0,15288,19843,20137,26618,19005,5
0.0,0.0,0.0,15273,19843,20157,26644,19344,5
0.0,0.0,0.0,15288,19843,20176,26670,19631,5
0.0,0.0,0.0,15227,19863,20157,26644,19573,5
0.0,0.0,0.0,15242,19843,20137,26618,19535,5
0.0,0.0,0.0,15242,19824,20157,26618,19477,5
0.0,0.0,0.0,15242,19805,20176,26618,19401,5
0.0,0.0,0.0,15227,19805,20098,26618,19344,5
0.0,0.0,0.0,15211,19805,20137,26618,19306,5
0.0,0.0,0.0,15211,19843,20117,26566,19231,5
0.0,0.0,0.0,15211,19843,20137,26618,19080,5
0.0,0.0,0.0,15211,19843,20157,26670,19136,5
0.0,0.0,0.0,15211,19805,20137,26644,19193,5
0.0,0.0,0.0,15211,19805,20157,26670,19268,5
0.0,0.0,0.0,15227,19843,20117,26670,19458,5
0.0,0.0,0.0,15181,19843,20117,26723,19612,5
0.0,0.0,0.0,15211,19843,20117,26670,19960,5
0.0,0.0,0.0,15181,19805,20117,26802,20196,5
0.0,0.0,0.0,15181,19805,20078,26829,20078,5
0.0,0.0,0.0,15196,19785,20137,26749,19921,5
0.0,0.0,0.0,15165,19843,20157,26670,19766,5
0.0,0.0,0.0,15165,19805,20157,26670,19689,5
0.0,0.0,0.0,15150,19843,20117,26618,19708,5
0.0,0.0,0.0,15150,19785,20137,26566,19689,5
0.0,0.0,0.0,15150,19805,20157,26592,19708,5
0.0,0.0,0.0,15181,19824,20137,26566,19766,5
0.0,0.0,0.0,15150,19824,20157,26566,19843,5
0.0,0.0,0.0,15165,19766,20137,26566,19999,5
0.0,0.0,0.0,15135,19824,20098,26513,19902,5
0.0,0.0,0.0,15104,19805,20157,26513,19708,5
0.0,0.0,0.0,15119,19843,20117,26305,19612,5
0.0,0.0,0.0,15089,19746,20157,26305,19592,5
0.0,0.0,0.0,15150,19863,20157,26357,19612,5
0.0,0.0,0.0,15150,19863,20176,26331,19824,5
0.0,0.0,0.0,15119,19921,20236,26305,20058,5
0.0,0.0,0.0,15089,19882,20275,26357,20275,5
0.0,0.0,0.0,15119,19902,20196,26331,20798,5
0.0,0.0,0.0,15119,19863,20157,26305,20981,5
0.0,0.0,0.0,15058,19921,20117,26409,21002,5
0.0,0.0,0.0,15043,19921,20117,26279,20798,5
0.0,0.0,0.0,14982,19902,20078,26124,20716,5
0.0,0.0,0.0,14952,19902,19999,26202,19999,5
0.0,0.0,0.0,14786,19863,19980,26461,19458,5
0.0,0.0,0.0,14282,19921,19999,26776,18672,5
0.0,0.0,0.0,13636,19921,20058,26988,18200,5
0.0,0.0,0.0,13177,19980,20157,27202,17704,5
0.0,0.0,0.0,12932,19999,20236,27310,17135,5
0.0,0.0,0.0,12905,20078,20236,27499,16831,5
0.0,0.0,0.0,13081,20078,20256,27418,16781,5
0.0,0.0,0.0,13524,20117,20236,27527,16532,5
0.0,0.0,0.0,14311,20176,20236,27581,16450,5
0.0,0.0,0.0,14547,20196,20196,27472,16417,5
0.0,0.0,0.0,15058,20157,20078,27418,16303,5
0.0,0.0,0.0,14726,20137,19999,27364,16222,5
0.0,0.0,0.0,14816,20098,19999,27418,16254,5
0.0,0.0,0.0,14681,20157,19999,27364,16222,5
0.0,0.0,0.0,14607,20117,19921,27364,16222,5
0.0,0.0,0.0,14547,20098,19941,27310,16222,5
0.0,0.0,0.0,14429,20117,19921,27364,16189,5
0.0,0.0,0.0,14370,20157,19960,27418,16303,5
0.0,0.0,0.0,14385,20157,19960,27418,16287,5
0.0,0.0,0.0,14370,20117,19999,27310,16303,5
0.0,0.0,0.0,14282,20117,19999,27445,16319,5
0.0,0.0,0.0,14311,20117,19999,27472,16385,5
0.0,0.0,0.0,14166,20137,20117,27364,16615,5
0.0,0.0,0.0,14108,20117,20117,27310,16698,5
0.0,0.0,0.0,14021,20157,20176,27418,17101,5
0.0,0.0,0.0,13906,20157,20236,27418,17084,5
0.0,0.0,0.0,13821,20196,20315,27391,17084,5
0.0,0.0,0.0,13764,20315,20355,27418,17169,5
0.0,0.0,0.0,13622,20435,20495,27418,17426,5
0.0,0.0,0.0,13552,20475,20595,27472,17933,5
0.0,0.0,0.0,13454,20515,20716,27418,18004,5
0.0,0.0,0.0,13371,20455,20636,27391,17845,5
0.0,0.0,0.0,13398,20475,20535,27391,17722,5
0.0,0.0,0.0,13412,20395,20595,27581,17739,5
0.0,0.0,0.0,13468,20455,20636,27418,17704,5
0.0,0.0,0.0,13454,20495,20798,26618,17461,5
0.0,0.0,0.0,13510,20676,21208,25691,17392,5
0.0,0.0,0.0,13482,20777,21458,25044,17289,5
0.0,0.0,0.0,13287,20818,21542,24946,17033,5
0.0,0.0,0.0,13177,20798,21458,25291,17084,5
0.0,0.0,0.0,12999,20757,21395,25490,17084,5
0.0,0.0,0.0,12824,20636,21250,25591,17272,5
0.0,0.0,0.0,12716,20555,21167,25515,17135,5
0.0,0.0,0.0,12636,20475,21064,25894,17101,5
0.0,0.0,0.0,12610,20475,21043,25793,16949,5
0.0,0.0,0.0,12583,20355,21064,26073,16781,5
0.0,0.0,0.0,12583,20395,21064,25490,16882,5
0.0,0.0,0.0,12530,20595,21125,24848,16915,5
0.0,0.0,0.0,12530,20636,21250,24366,16815,5
0.0,0.0,0.0,12543,20595,21375,24129,16698,5
0.0,0.0,0.0,12583,20555,21375,23940,16648,5
0.0,0.0,0.0,12583,20575,21416,23800,16516,5
0.0,0.0,0.0,12530,20636,21375,23777,16499,5
0.0,0.0,0.0,12703,20757,21375,23730,16417,5
0.0,0.0,0.0,12959,20757,21291,23707,16352,5
0.0,0.0,0.0,13068,20757,21291,23661,16303,5
0.0,0.0,0.0,13040,20757,21229,23800,16206,5
0.0,0.0,0.0,13013,20676,21208,23987,16189,5
0.0,0.0,0.0,12959,20676,21167,23964,16189,5
0.0,0.0,0.0,12918,20636,21167,23964,16157,5
0.0,0.0,0.0,12878,20656,21125,23964,16173,5
0.0,0.0,0.0,12891,20615,21146,23987,16189,5
0.0,0.0,0.0,12878,20595,21167,24152,16125,5
0.0,0.0,0.0,12905,20555,21125,24247,16109,5
0.0,0.0,0.0,12837,20555,21125,24390,16109,5
0.0,0.0,0.0,12864,20515,21105,24366,16093,5
0.0,0.0,0.0,12905,20555,21146,24366,16157,5
0.0,0.0,0.0,12824,20475,21125,24342,16109,5
0.0,0.0,0.0,12851,20475,21125,24318,16157,5
0.0,0.0,0.0,12864,20475,21084,24366,16141,5
0.0,0.0,0.0,12864,20535,21084,24366,16157,5
0.0,0.0,0.0,12864,20495,21105,24462,16189,5
0.0,0.0,0.0,12905,20475,21084,24510,16271,5
0.0,0.0,0.0,12918,20415,21084,24510,16287,5
0.0,0.0,0.0,12905,20435,21043,24558,16303,5
0.0,0.0,0.0,12918,20435,21064,24558,16319,5
0.0,0.0,0.0,12932,20395,21043,24654,16319,5
0.0,0.0,0.0,12905,20415,21043,24606,16352,5
0.0,0.0,0.0,12959,20415,21064,24702,16368,5
0.0,0.0,0.0,12972,20335,21043,24654,16417,5
0.0,0.0,0.0,13027,20395,20981,24702,16417,5
0.0,0.0,0.0,13068,20335,20981,24751,16450,5
0.0,0.0,0.0,13095,20335,21002,24799,16450,5
0.0,0.0,0.0,13095,20355,21002,24824,16499,5
0.0,0.0,0.0,13150,20375,21002,24897,16549,5
0.0,0.0,0.0,13232,20315,21002,24848,16615,5
0.0,0.0,0.0,13232,20355,21002,24897,16615,5
0.0,0.0,0.0,13232,20355,20981,24897,16615,5
0.0,0.0,0.0,13246,20315,20981,24921,16615,5
0.0,0.0,0.0,13246,20315,20981,24946,16681,5
0.0,0.0,0.0,13232,20315,20981,24946,16681,5
0.0,0.0,0.0,13232,20315,20961,24970,16815,5
0.0,0.0,0.0,13232,20335,20961,24995,16949,5
0.0,0.0,0.0,13232,20315,20981,24995,16983,5
0.0,0.0,0.0,13246,20275,20940,24946,16949,5
0.0,0.0,0.0,13218,20295,20961,24946,16915,5
0.0,0.0,0.0,13260,20315,20920,24897,16949,5
0.0,0.0,0.0,13274,20295,20961,24946,16932,5
0.0,0.0,0.0,13315,20315,20899,24946,16949,5
0.0,0.0,0.0,13301,20315,20920,24946,16983,5
0.0,0.0,0.0,13301,20315,20920,24946,17016,5
0.0,0.0,0.0,13260,20256,20899,24897,16949,5
0.0,0.0,0.0,13232,20275,20879,24824,16898,5
0.0,0.0,0.0,13232,20256,20879,24824,16898,5
0.0,0.0,0.0,13205,20236,20899,24799,16882,5
0.0,0.0,0.0,13191,20236,20920,24848,16882,5
0.0,0.0,0.0,13287,20236,20838,24799,16915,5
0.0,0.0,0.0,13357,20236,20838,24799,16949,5
0.0,0.0,0.0,13398,20176,20798,24727,16966,5
0.0,0.0,0.0,13412,20196,20757,24799,16983,5
0.0,0.0,0.0,13398,20196,20798,24799,16966,5
0.0,0.0,0.0,13398,20196,20818,24751,16949,5
0.0,0.0,0.0,13398,20236,20757,24751,16983,5
0.0,0.0,0.0,13398,20216,20798,24824,17084,5
0.0,0.0,0.0,13398,20176,20777,24824,17152,5
0.0,0.0,0.0,13412,20176,20798,24799,17169,5
0.0,0.0,0.0,13454,20236,20757,24799,17118,5
0.0,0.0,0.0,13412,20236,20798,24799,17101,5
0.0,0.0,0.0,13412,20236,20798,24751,17084,5
0.0,0.0,0.0,13398,20216,20777,24727,17067,5
0.0,0.0,0.0,13398,20216,20777,24751,17050,5
0.0,0.0,0.0,13398,20157,20798,24775,17084,5
0.0,0.0,0.0,13412,20196,20798,24751,17118,5
0.0,0.0,0.0,13412,20176,20798,24727,17118,5
0.0,0.0,0.0,13398,20157,20757,24799,17101,5
0.0,0.0,0.0,13398,20137,20798,24751,17101,5
0.0,0.0,0.0,13398,20176,20798,24751,17152,5
0.0,0.0,0.0,13398,20176,20798,24751,17118,5
0.0,0.0,0.0,13412,20157,20737,24727,17118,5
0.0,0.0,0.0,13371,20157,20737,24727,17152,5
0.0,0.0,0.0,13384,20157,20757,24702,17084,5
0.0,0.0,0.0,13398,20137,20737,24775,17118,5
0.0,0.0,0.0,13371,20176,20716,24702,17152,5
0.0,0.0,0.0,13371,20157,20757,24702,17084,5
0.0,0.0,0.0,13315,20157,20716,24799,17084,5
0.0,0.0,0.0,13246,20157,20757,24897,16983,5
0.0,0.0,0.0,13027,20176,20879,25291,16781,5
0.0,0.0,0.0,13013,20196,20879,25291,16615,5
0.0,0.0,0.0,12905,20176,20879,25341,16483,5
0.0,0.0,0.0,12959,20176,20879,25291,16385,5
0.0,0.0,0.0,13068,20256,20879,24775,16287,5
0.0,0.0,0.0,13232,20315,20838,24390,16352,5
0.0,0.0,0.0,13496,20395,20798,24199,16434,5
0.0,0.0,0.0,13301,20415,20818,24081,16385,5
0.0,0.0,0.0,13412,20395,20818,24129,16368,5
0.0,0.0,0.0,13260,20335,20859,24223,16254,5
0.0,0.0,0.0,13150,20335,20838,24366,16222,5
0.0,0.0,0.0,13150,20335,20798,24534,16141,5
0.0,0.0,0.0,13191,20355,20798,24510,16093,5
0.0,0.0,0.0,13371,20315,20798,24630,16093,5
0.0,0.0,0.0,13357,20335,20798,24630,16060,5
0.0,0.0,0.0,13412,20315,20798,24678,16093,5
0.0,0.0,0.0,13301,20295,20838,24702,16060,5
0.0,0.0,0.0,13343,20315,20818,24727,16076,5
0.0,0.0,0.0,13371,20295,20818,24848,16060,5
0.0,0.0,0.0,13343,20315,20798,24799,16044,5
0.0,0.0,0.0,13315,20315,20798,24799,16060,5
0.0,0.0,0.0,13315,20315,20818,24775,16028,5
0.0,0.0,0.0,13343,20275,20818,24751,16028,5
0.0,0.0,0.0,13343,20256,20838,24799,15996,5
0.0,0.0,0.0,13287,20295,20798,24824,16060,5
0.0,0.0,0.0,13232,20315,20798,24824,16044,5
0.0,0.0,0.0,13232,20275,20798,24848,16060,5
0.0,0.0,0.0,13150,20275,20818,24897,16125,5
0.0,0.0,0.0,13081,20256,20798,24848,16157,5
0.0,0.0,0.0,13054,20236,20798,24848,16157,5
0.0,0.0,0.0,13013,20256,20798,24897,16125,5
0.0,0.0,0.0,13068,20236,20798,24824,16157,5
0.0,0.0,0.0,13040,20236,20737,24799,16125,5
0.0,0.0,0.0,13040,20236,20798,24799,16157,5
0.0,0.0,0.0,13027,20236,20798,24848,16157,5
0.0,0.0,0.0,13013,20236,20777,24799,16157,5
0.0,0.0,0.0,13054,20236,20757,24799,16222,5
0.0,0.0,0.0,13040,20256,20838,24824,16287,5
0.0,0.0,0.0,13054,20275,20798,24848,16287,5
0.0,0.0,0.0,13040,20256,20798,24824,16254,5
0.0,0.0,0.0,13068,20216,20798,24799,16287,5
0.0,0.0,0.0,13068,20196,20798,24799,16287,5
0.0,0.0,0.0,13054,20256,20818,24848,16352,5
0.0,0.0,0.0,13068,20196,20798,24799,16368,5
0.0,0.0,0.0,13054,20236,20777,24848,16287,5
0.0,0.0,0.0,13081,20216,20737,24848,16287,5
0.0,0.0,0.0,13081,20176,20757,24848,16287,5
0.0,0.0,0.0,13081,20196,20777,24848,16287,5
0.0,0.0,0.0,13068,20236,20757,24897,16352,5
0.0,0.0,0.0,13068,20236,20798,24873,16352,5
0.0,0.0,0.0,13122,20236,20757,24897,16352,5
0.0,0.0,0.0,13122,20216,20716,24897,16450,5
0.0,0.0,0.0,13095,20176,20757,24824,16434,5
0.0,0.0,0.0,13122,20196,20777,24897,16450,5
0.0,0.0,0.0,13095,20176,20737,24897,16450,5
0.0,0.0,0.0,13068,20236,20777,24873,16450,5
0.0,0.0,0.0,13068,20196,20757,24897,16483,5
0.0,0.0,0.0,13095,20216,20757,24897,16434,5
0.0,0.0,0.0,13081,20196,20757,24848,16450,5
0.0,0.0,0.0,13122,20216,20757,24873,16450,5
0.0,0.0,0.0,13122,20176,20757,24848,16434,5
0.0,0.0,0.0,13081,20196,20737,24848,16483,5
0.0,0.0,0.0,13122,20137,20737,24897,16450,5
0.0,0.0,0.0,13122,20196,20757,24897,16483,5
0.0,0.0,0.0,13095,20196,20798,24897,16483,5
0.0,0.0,0.0,13136,20157,20716,24848,16499,5
0.0,0.0,0.0,13136,20176,20737,24897,16516,5
0.0,0.0,0.0,13205,20196,20757,24873,16532,5
0.0,0.0,0.0,13177,20157,20757,24897,16516,5
0.0,0.0,0.0,13150,20157,20737,24824,16516,5
0.0,0.0,0.0,13177,20157,20716,24897,16516,5
0.0,0.0,0.0,13205,20176,20716,24897,16532,5
0.0,0.0,0.0,13177,20176,20716,24848,16532,5
0.0,0.0,0.0,13205,20176,20716,24824,16516,5
0.0,0.0,0.0,13205,20196,20716,24897,16565,5
0.0,0.0,0.0,13177,20176,20696,24848,16549,5
0.0,0.0,0.0,13136,20196,20737,24897,16549,5
0.0,0.0,0.0,13177,20176,20757,24873,16582,5
0.0,0.0,0.0,13177,20117,20676,24897,16615,5
0.0,0.0,0.0,13163,20157,20716,24897,16582,5
0.0,0.0,0.0,13177,20176,20716,24873,16615,5
0.0,0.0,0.0,13150,20117,20696,24921,16582,5
0.0,0.0,0.0,13177,20157,20716,24897,16582,5
0.0,0.0,0.0,13177,20157,20716,24848,16615,5
0.0,0.0,0.0,13177,20117,20716,24897,16582,5
0.0,0.0,0.0,13177,20157,20716,24897,16615,5
0.0,0.0,0.0,13177,20157,20676,24873,16615,5
0.0,0.0,0.0,13177,20137,20676,24897,16549,5
0.0,0.0,0.0,13177,20137,20716,24946,16582,5
0.0,0.0,0.0,13150,20157,20716,24946,16648,5
0.0,0.0,0.0,13205,20157,20716,24873,16615,5
0.0,0.0,0.0,13177,20137,20716,24897,16615,5
0.0,0.0,0.0,13177,20137,20716,24848,16615,5
0.0,0.0,0.0,13177,20157,20676,24799,16582,5
0.0,0.0,0.0,13177,20176,20716,24799,16615,5
0.0,0.0,0.0,13177,20176,20716,24824,16615,5
0.0,0.0,0.0,13177,20137,20676,24848,16615,5
0.0,0.0,0.0,13136,20157,20696,24873,16615,5
0.0,0.0,0.0,13150,20157,20676,24799,16582,5
0.0,0.0,0.0,13122,20137,20696,24824,16615,5
0.0,0.0,0.0,13013,20157,20656,24848,16582,5
0.0,0.0,0.0,12972,20157,20595,24824,16565,5
0.0,0.0,0.0,12932,20176,20615,24946,16615,5
0.0,0.0,0.0,12905,20157,20595,24995,16681,5
0.0,0.0,0.0,12864,20157,20595,25068,16681,5
0.0,0.0,0.0,12851,20176,20575,25019,16698,5
0.0,0.0,0.0,12851,20117,20595,25093,16748,5
0.0,0.0,0.0,12824,20117,20575,25142,16748,5
0.0,0.0,0.0,12797,20098,20555,25241,16815,5
0.0,0.0,0.0,12743,20157,20555,25192,16781,5
0.0,0.0,0.0,12703,20157,20555,25241,16815,5
0.0,0.0,0.0,12716,20157,20575,25341,16831,5
0.0,0.0,0.0,12703,20157,20515,25316,16882,5
0.0,0.0,0.0,12690,20157,20515,25341,16848,5
0.0,0.0,0.0,12690,20157,20515,25465,17016,5
0.0,0.0,0.0,12690,20176,20535,25390,16949,5
0.0,0.0,0.0,12649,20176,20555,25241,16865,5
0.0,0.0,0.0,12743,20176,20495,25291,16831,5
0.0,0.0,0.0,13013,20196,20475,25415,16632,5
0.0,0.0,0.0,13721,20157,20455,25515,16434,5
0.0,0.0,0.0,14786,20137,20355,25742,16385,5
0.0,0.0,0.0,15553,20196,20315,25843,16287,5
0.0,0.0,0.0,15584,20176,20275,26124,16125,5
0.0,0.0,0.0,15119,20196,20256,26202,16173,5
0.0,0.0,0.0,14444,20157,20315,26409,16417,5
0.0,0.0,0.0,14253,20117,20196,26150,16319,5
0.0,0.0,0.0,14385,20078,20176,26202,16352,5
0.0,0.0,0.0,15459,20078,20157,26150,16385,5
0.0,0.0,0.0,16401,20137,20117,26409,16549,5
0.0,0.0,0.0,16483,20157,20078,26409,16483,5
0.0,0.0,0.0,16028,20078,20078,26513,16549,5
0.0,0.0,0.0,15868,20098,20039,26435,16499,5
0.0,0.0,0.0,15710,20098,20098,26513,16549,5
0.0,0.0,0.0,15837,20117,20078,26409,16450,5
0.0,0.0,0.0,15710,20078,20019,26566,16582,5
0.0,0.0,0.0,15647,20117,20019,26513,16565,5
0.0,0.0,0.0,15600,20117,19999,26592,16565,5
0.0,0.0,0.0,15553,20078,19960,26697,16615,5
0.0,0.0,0.0,15584,20117,19941,26618,16565,5
0.0,0.0,0.0,15773,20157,19921,26723,16648,5
0.0,0.0,0.0,16060,20117,19766,26776,16450,5
0.0,0.0,0.0,16157,20078,19689,26566,16303,5
0.0,0.0,0.0,16125,19999,19612,26513,16189,5
0.0,0.0,0.0,15996,19980,19554,26487,16157,5
0.0,0.0,0.0,15932,19941,19497,26513,16189,5
0.0,0.0,0.0,15710,19980,19535,26566,16173,5
0.0,0.0,0.0,15366,20058,19650,26357,16516,5
0.0,0.0,0.0,15288,19999,19689,26202,16698,5
0.0,0.0,0.0,15181,20039,19805,26073,16949,5
0.0,0.0,0.0,14997,20078,19941,26279,16815,5
0.0,0.0,0.0,14726,20098,20039,26383,16715,5
0.0,0.0,0.0,15335,20117,20117,26776,16882,5
0.0,0.0,0.0,14846,20117,20039,26697,16765,5
0.0,0.0,0.0,13906,20117,19960,26513,16681,5
0.0,0.0,0.0,13013,20078,19941,26513,16698,5
0.0,0.0,0.0,12636,20039,19999,26435,16698,5
0.0,0.0,0.0,12636,20078,20039,26435,16848,5
0.0,0.0,0.0,12797,20078,20078,26305,16949,5
0.0,0.0,0.0,13792,20117,20435,25742,17084,5
0.0,0.0,0.0,14050,20176,20575,24462,17169,5
0.0,0.0,0.0,14666,20236,20555,23800,17084,5
0.0,0.0,0.0,14846,20176,20495,23569,16983,5
0.0,0.0,0.0,14786,20157,20475,23615,16815,5
0.0,0.0,0.0,14726,20058,20355,23754,16681,5
0.0,0.0,0.0,14636,19999,20275,23847,16632,5
0.0,0.0,0.0,14488,19960,20275,24081,16632,5
0.0,0.0,0.0,14444,19960,20236,24058,16615,5
0.0,0.0,0.0,14282,19921,20275,24129,16598,5
0.0,0.0,0.0,14195,19921,20236,24176,16632,5
0.0,0.0,0.0,14079,19921,20236,24366,16582,5
0.0,0.0,0.0,13978,19941,20256,24654,16549,5
0.0,0.0,0.0,13906,19960,20275,24606,16516,5
0.0,0.0,0.0,13849,19941,20275,24654,16582,5
0.0,0.0,0.0,13735,19960,20256,24630,16516,5
0.0,0.0,0.0,13622,19960,20275,24654,16565,5
0.0,0.0,0.0,13566,19921,20256,25044,16831,5
0.0,0.0,0.0,13849,19921,20256,25316,17220,5
0.0,0.0,0.0,13735,19921,20236,25118,17220,5
0.0,0.0,0.0,13566,19960,20236,25118,17135,5
0.0,0.0,0.0,13412,19921,20236,25044,17016,5
0.0,0.0,0.0,13287,19921,20157,25044,17033,5
0.0,0.0,0.0,13287,19921,20256,25118,17016,5
0.0,0.0,0.0,13232,19882,20236,25192,17084,5
0.0,0.0,0.0,13246,19882,20157,25291,17186,5
0.0,0.0,0.0,13260,19902,20098,25167,17135,5
0.0,0.0,0.0,13136,19882,20098,25266,17186,5
0.0,0.0,0.0,13040,19882,20098,25167,17067,5
0.0,0.0,0.0,13068,19843,20117,25291,17152,5
0.0,0.0,0.0,13027,19843,20117,25390,17357,5
0.0,0.0,0.0,13054,19863,20078,25415,17392,5
0.0,0.0,0.0,13081,19843,20058,25440,17443,5
0.0,0.0,0.0,13068,19863,20078,25440,17565,5
0.0,0.0,0.0,13027,19843,20039,25591,17739,5
0.0,0.0,0.0,13040,19824,20078,25591,17845,5
0.0,0.0,0.0,13027,19805,19999,25591,18057,5
0.0,0.0,0.0,13013,19766,19999,25591,18129,5
0.0,0.0,0.0,13040,19785,20019,25641,18129,5
0.0,0.0,0.0,13040,19766,20019,25641,18075,5
0.0,0.0,0.0,13013,19766,20078,25591,18075,5
0.0,0.0,0.0,12972,19843,20039,25515,18004,5
0.0,0.0,0.0,13013,19805,20058,25691,18004,5
0.0,0.0,0.0,12972,19766,20019,25591,18057,5
0.0,0.0,0.0,12999,19785,19999,25742,18147,5
0.0,0.0,0.0,12972,19805,19999,25717,18129,5
0.0,0.0,0.0,12959,19805,19999,25767,18290,5
0.0,0.0,0.0,12959,19766,20058,25793,18236,5
0.0,0.0,0.0,12932,19805,20039,25767,18147,5
0.0,0.0,0.0,12959,19766,19999,25641,18022,5
0.0,0.0,0.0,12959,19785,19999,25691,18022,5
0.0,0.0,0.0,12918,19805,20039,25641,17933,5
0.0,0.0,0.0,12959,19785,19999,25641,17968,5
0.0,0.0,0.0,12959,19805,19999,25591,18004,5
0.0,0.0,0.0,12972,19785,19980,25616,17951,5
0.0,0.0,0.0,13013,19746,20019,25641,17915,5
0.0,0.0,0.0,13068,19766,19999,25616,17915,5
0.0,0.0,0.0,13068,19766,19980,25591,17951,5
0.0,0.0,0.0,13095,19746,20039,25691,17986,5
0.0,0.0,0.0,13150,19805,20039,25641,17986,5
0.0,0.0,0.0,13136,19766,20039,25717,18004,5
0.0,0.0,0.0,13136,19785,19999,25691,18236,5
0.0,0.0,0.0,13136,19766,20058,25793,18272,5
0.0,0.0,0.0,13177,19785,20039,25793,18254,5
0.0,0.0,0.0,13150,19766,20039,25767,18272,5
0.0,0.0,0.0,13150,19785,20019,25742,18290,5
0.0,0.0,0.0,13150,19766,20039,25793,18290,5
0.0,0.0,0.0,13177,19805,20078,25767,18344,5
0.0,0.0,0.0,13177,19902,20078,25793,18380,5
0.0,0.0,0.0,13177,19980,20157,25843,18399,5
0.0,0.0,0.0,13177,19960,20157,25793,18344,5
0.0,0.0,0.0,13177,19960,20137,25793,18129,5
0.0,0.0,0.0,13287,19921,20157,25691,17986,5
0.0,0.0,0.0,13315,19921,20157,25691,17951,5
0.0,0.0,0.0,13315,19941,20117,25666,18057,5
0.0,0.0,0.0,13301,19921,20098,25691,18075,5
0.0,0.0,0.0,13287,19921,20117,25641,18129,5
0.0,0.0,0.0,13260,19921,20157,25691,18075,5
0.0,0.0,0.0,13287,19921,20117,25641,18039,5
0.0,0.0,0.0,13343,19882,20157,25616,18057,5
0.0,0.0,0.0,13315,19921,20117,25616,18147,5
0.0,0.0,0.0,13287,20019,20157,25515,17986,5
0.0,0.0,0.0,13081,19999,20157,25490,17915,5
0.0,0.0,0.0,13040,20039,20176,25540,17880,5
0.0,0.0,0.0,12959,19960,20117,25415,17845,5
0.0,0.0,0.0,13081,19960,20176,25365,17792,5
0.0,0.0,0.0,13205,19960,20117,25167,17809,5
0.0,0.0,0.0,13081,19941,20196,25093,17669,5
0.0,0.0,0.0,13027,19921,20157,24848,17495,5
0.0,0.0,0.0,12530,19941,20275,25093,17016,5
0.0,0.0,0.0,12163,19960,20256,25019,16831,5
0.0,0.0,0.0,11804,19980,20256,25192,16532,5
0.0,0.0,0.0,11817,19999,20196,24702,16385,5
0.0,0.0,0.0,12112,20019,19960,24414,16352,5
0.0,0.0,0.0,13260,20117,19921,24342,16238,5
0.0,0.0,0.0,13357,20078,19843,24606,16238,5
0.0,0.0,0.0,13650,20117,19882,24873,16173,5
0.0,0.0,0.0,13343,20078,19843,25192,16093,5
0.0,0.0,0.0,13287,20117,19882,25415,16109,5
0.0,0.0,0.0,13013,20137,19999,25490,16125,5
0.0,0.0,0.0,13013,20157,19960,25540,16093,5
0.0,0.0,0.0,13068,20157,20078,25996,16189,5
0.0,0.0,0.0,12918,20236,20098,26150,16157,5
0.0,0.0,0.0,12293,20216,20176,26150,16157,5
0.0,0.0,0.0,11716,20495,20475,26228,16336,5
0.0,0.0,0.0,11855,20981,20798,27095,16368,5
0.0,0.0,0.0,12346,21395,20940,28077,16417,5
0.0,0.0,0.0,12690,21375,20899,28189,16336,5
0.0,0.0,0.0,12610,21250,20920,28133,16287,5
0.0,0.0,0.0,12424,21250,20818,27939,16222,5
0.0,0.0,0.0,12385,21125,20818,27911,16287,5
0.0,0.0,0.0,12385,21125,20818,27800,16303,5
0.0,0.0,0.0,12346,21043,20777,27800,16352,5
0.0,0.0,0.0,12346,21002,20757,27609,16287,5
0.0,0.0,0.0,12280,21002,20798,27310,16352,5
0.0,0.0,0.0,12556,20899,20798,27148,16287,5
0.0,0.0,0.0,13343,20716,20737,26802,16254,5
0.0,0.0,0.0,12851,20636,20676,26749,16238,5
0.0,0.0,0.0,12905,20636,20676,26618,16222,5
0.0,0.0,0.0,12530,20515,20696,26566,16287,5
0.0,0.0,0.0,12451,20475,20676,26461,16254,5
0.0,0.0,0.0,12690,20475,20636,26461,16254,5
0.0,0.0,0.0,13122,20475,20636,26461,16303,5
0.0,0.0,0.0,13343,20435,20575,26409,16303,5
0.0,0.0,0.0,13650,20475,20555,26383,16287,5
0.0,0.0,0.0,13622,20395,20515,26409,16352,5
0.0,0.0,0.0,13622,20395,20515,26357,16368,5
0.0,0.0,0.0,13849,20415,20515,26331,16352,5
0.0,0.0,0.0,13964,20355,20455,26331,16368,5
0.0,0.0,0.0,14079,20395,20475,26253,16401,5
0.0,0.0,0.0,14195,20315,20455,26305,16368,5
0.0,0.0,0.0,14370,20315,20435,26099,16352,5
0.0,0.0,0.0,14518,20315,20435,25616,16483,5
0.0,0.0,0.0,14577,20355,20355,24582,16632,5
0.0,0.0,0.0,14577,20335,20335,23592,16748,5
0.0,0.0,0.0,14488,20435,20415,22754,16882,5
0.0,0.0,0.0,14385,20395,20435,22075,16882,5
0.0,0.0,0.0,14311,20275,20395,21733,16983,5
0.0,0.0,0.0,14253,20256,20395,21002,16898,5
0.0,0.0,0.0,14253,20256,20475,20196,16848,5
0.0,0.0,0.0,14282,20157,20475,19921,16815,5
0.0,0.0,0.0,14311,20157,20475,19708,16781,5
0.0,0.0,0.0,14326,20196,20435,19766,16748,5
0.0,0.0,0.0,14326,20157,20395,19689,16748,5
0.0,0.0,0.0,14399,20196,20395,19689,16715,5
0.0,0.0,0.0,14488,20176,20335,19843,16748,5
0.0,0.0,0.0,14607,20098,20315,20039,16681,5
0.0,0.0,0.0,14666,20078,20256,20818,16516,5
0.0,0.0,0.0,14726,19960,20176,21208,16483,5
0.0,0.0,0.0,14801,19921,20078,21669,16450,5
0.0,0.0,0.0,14801,19843,19941,22161,16125,5
0.0,0.0,0.0,14846,19727,19805,21903,16303,5
0.0,0.0,0.0,14786,19535,19516,21146,16303,5
0.0,0.0,0.0,14726,19497,19458,20395,16417,5
0.0,0.0,0.0,14666,19535,19631,19999,16450,5
0.0,0.0,0.0,14651,19477,19766,19824,16483,5
0.0,0.0,0.0,14607,19535,19785,19535,16516,5
0.0,0.0,0.0,14577,19516,19785,19382,16549,5
0.0,0.0,0.0,14518,19458,19882,19249,16615,5
0.0,0.0,0.0,14458,19458,19999,19193,16615,5
0.0,0.0,0.0,14414,19612,20039,19325,16582,5
0.0,0.0,0.0,14385,19612,20039,20395,16615,5
0.0,0.0,0.0,14756,19689,20019,24727,16781,5
0.0,0.0,0.0,15150,19554,19843,25894,16287,5
0.0,0.0,0.0,15165,19573,19843,26829,16141,5
0.0,0.0,0.0,15058,19535,19843,26961,16093,5
0.0,0.0,0.0,14801,19458,19766,26670,16012,5
0.0,0.0,0.0,14651,19344,19573,26099,15868,5
0.0,0.0,0.0,14577,19325,19535,25945,15900,5
0.0,0.0,0.0,14488,19287,19477,25793,15900,5
0.0,0.0,0.0,14562,19382,19497,25843,15900,5
