GyroX,GyroY,GyroZ,Thumb,Index,Middle,Ring,Pinky,Gesture
0.0,0.0,0.0,19193,20395,9621,10535,11957,1
0.0,0.0,0.0,19174,20395,9610,10546,11957,1
0.0,0.0,0.0,19174,20395,9621,10546,11970,1
0.0,0.0,0.0,19155,20355,9610,10535,11957,1
0.0,0.0,0.0,19155,20375,9621,10546,11957,1
0.0,0.0,0.0,19174,20335,9588,10535,11983,1
0.0,0.0,0.0,19174,20315,9621,10535,11983,1
0.0,0.0,0.0,19155,20275,9621,10535,11970,1
0.0,0.0,0.0,19099,20295,9599,10535,11970,1
0.0,0.0,0.0,19155,20315,9599,10511,12009,1
0.0,0.0,0.0,19136,20275,9621,10535,11957,1
0.0,0.0,0.0,19099,20275,9621,10523,12009,1
0.0,0.0,0.0,19136,20236,9621,10546,12009,1
0.0,0.0,0.0,19099,20295,9621,10582,12009,1
0.0,0.0,0.0,19080,20236,9621,10582,11983,1
0.0,0.0,0.0,19136,20236,9621,10582,11983,1
0.0,0.0,0.0,19043,20196,9588,10582,12021,1
0.0,0.0,0.0,19024,20157,9621,10582,11983,1
0.0,0.0,0.0,19005,20176,9621,10582,11983,1
0.0,0.0,0.0,19024,20157,9621,10582,11983,1
0.0,0.0,0.0,18931,20157,9588,10570,12009,1
0.0,0.0,0.0,18912,20137,9621,10582,11970,1
0.0,0.0,0.0,18931,20157,9621,10582,11996,1
0.0,0.0,0.0,18912,20098,9621,10582,12009,1
0.0,0.0,0.0,18875,20117,9621,10582,11983,1
0.0,0.0,0.0,18894,20098,9599,10558,12009,1
0.0,0.0,0.0,18635,19999,9621,10582,12009,1
0.0,0.0,0.0,18581,19941,9588,10570,12009,1
0.0,0.0,0.0,18691,19960,9621,10558,12009,1
0.0,0.0,0.0,18746,19960,9621,10582,12021,1
0.0,0.0,0.0,18746,19999,9621,10582,12060,1
0.0,0.0,0.0,18783,19999,9610,10570,12060,1
0.0,0.0,0.0,18727,19980,9610,10594,12060,1
0.0,0.0,0.0,18727,20019,9599,10582,12060,1
0.0,0.0,0.0,18801,20078,9621,10582,12060,1
0.0,0.0,0.0,18783,20019,9621,10582,12060,1
0.0,0.0,0.0,18783,20019,9599,10582,12060,1
0.0,0.0,0.0,18801,20039,9621,10582,12086,1
0.0,0.0,0.0,18746,20019,9588,10582,12112,1
0.0,0.0,0.0,18783,20019,9599,10570,12086,1
0.0,0.0,0.0,18727,19999,9621,10558,12112,1
0.0,0.0,0.0,18783,19999,9621,10582,12112,1
0.0,0.0,0.0,18764,19941,9599,10582,12086,1
0.0,0.0,0.0,18764,19980,9610,10582,12112,1
0.0,0.0,0.0,18727,19999,9610,10582,12112,1
0.0,0.0,0.0,18727,19980,9599,10558,12112,1
0.0,0.0,0.0,18746,19941,9599,10558,12124,1
0.0,0.0,0.0,18727,19999,9588,10558,12099,1
0.0,0.0,0.0,18727,19960,9621,10570,12086,1
0.0,0.0,0.0,18764,19960,9621,10582,12086,1
0.0,0.0,0.0,18801,19960,9621,10558,12099,1
0.0,0.0,0.0,18709,19980,9610,10582,12086,1
0.0,0.0,0.0,18709,20039,9643,10582,12124,1
0.0,0.0,0.0,18709,19960,9599,10558,12112,1
0.0,0.0,0.0,18691,19980,9621,10582,12112,1
0.0,0.0,0.0,18709,19980,9599,10558,12112,1
0.0,0.0,0.0,18727,19999,9599,10582,12124,1
0.0,0.0,0.0,18691,19941,9621,10558,12124,1
0.0,0.0,0.0,18709,19941,9621,10558,12137,1
0.0,0.0,0.0,18709,19921,9599,10582,12137,1
0.0,0.0,0.0,18727,19960,9588,10546,12099,1
0.0,0.0,0.0,18709,19941,9621,10558,12124,1
0.0,0.0,0.0,18727,19960,9621,10558,12086,1
0.0,0.0,0.0,18727,20019,9599,10582,12124,1
0.0,0.0,0.0,18783,20078,9610,10582,12163,1
0.0,0.0,0.0,18857,20078,9621,10582,12215,1
0.0,0.0,0.0,18783,20058,9599,10582,12189,1
0.0,0.0,0.0,18783,20078,9588,10582,12215,1
0.0,0.0,0.0,18783,20078,9599,10582,12215,1
0.0,0.0,0.0,18783,20078,9599,10582,12215,1
0.0,0.0,0.0,18820,20117,9621,10558,12215,1
0.0,0.0,0.0,18783,20117,9599,10558,12215,1
0.0,0.0,0.0,18783,20117,9621,10558,12176,1
0.0,0.0,0.0,18746,20078,9599,10582,12215,1
0.0,0.0,0.0,18727,20058,9621,10546,12176,1
0.0,0.0,0.0,18746,20078,9599,10582,12189,1
0.0,0.0,0.0,18746,20039,9621,10582,12215,1
0.0,0.0,0.0,18727,20078,9599,10582,12189,1
0.0,0.0,0.0,18783,20078,9621,10558,12215,1
0.0,0.0,0.0,18746,20078,9621,10558,12189,1
0.0,0.0,0.0,18727,20019,9610,10582,12215,1
0.0,0.0,0.0,18746,20019,9621,10558,12189,1
0.0,0.0,0.0,18672,20019,9621,10570,12189,1
0.0,0.0,0.0,18672,19980,9621,10558,12215,1
0.0,0.0,0.0,18709,19999,9621,10546,12189,1
0.0,0.0,0.0,18672,20019,9599,10546,12189,1
0.0,0.0,0.0,18654,19999,9621,10546,12189,1
0.0,0.0,0.0,18654,19999,9610,10546,12215,1
0.0,0.0,0.0,18654,20039,9643,10558,12215,1
0.0,0.0,0.0,18672,20078,9621,10523,12215,1
0.0,0.0,0.0,18672,20058,9599,10546,12189,1
0.0,0.0,0.0,18672,20078,9621,10535,12215,1
0.0,0.0,0.0,18654,20078,9599,10511,12189,1
0.0,0.0,0.0,18672,20078,9599,10535,12189,1
0.0,0.0,0.0,18709,20078,9610,10546,12215,1
0.0,0.0,0.0,18801,20117,9599,10546,12215,1
0.0,0.0,0.0,18838,20157,9621,10546,12228,1
0.0,0.0,0.0,18746,20157,9621,10558,12228,1
0.0,0.0,0.0,18783,20176,9621,10546,12241,1
0.0,0.0,0.0,18820,20117,9599,10535,12267,1
0.0,0.0,0.0,18820,20157,9621,10546,12215,1
0.0,0.0,0.0,18820,20176,9621,10535,12267,1
0.0,0.0,0.0,18857,20157,9621,10546,12267,1
0.0,0.0,0.0,18820,20157,9621,10535,12241,1
0.0,0.0,0.0,18820,20117,9599,10558,12254,1
0.0,0.0,0.0,18820,20117,9643,10546,12267,1
0.0,0.0,0.0,18820,20117,9621,10546,12267,1
0.0,0.0,0.0,18801,20117,9599,10546,12254,1
0.0,0.0,0.0,18820,20098,9599,10535,12267,1
0.0,0.0,0.0,18746,20078,9621,10535,12267,1
0.0,0.0,0.0,18783,20098,9621,10535,12280,1
0.0,0.0,0.0,18746,20078,9599,10535,12241,1
0.0,0.0,0.0,18746,20078,9599,10546,12267,1
0.0,0.0,0.0,18709,20078,9621,10523,12293,1
0.0,0.0,0.0,18709,20078,9599,10535,12280,1
0.0,0.0,0.0,18709,20078,9599,10535,12280,1
0.0,0.0,0.0,18709,20039,9621,10535,12280,1
0.0,0.0,0.0,18709,20078,9621,10535,12241,1
0.0,0.0,0.0,18691,20078,9599,10535,12267,1
0.0,0.0,0.0,18654,20039,9599,10535,12241,1
0.0,0.0,0.0,18672,20078,9621,10535,12280,1
0.0,0.0,0.0,18709,19999,9599,10582,12293,1
0.0,0.0,0.0,18727,20019,9599,10558,12267,1
0.0,0.0,0.0,18672,20019,9588,10535,12267,1
0.0,0.0,0.0,18691,20039,9599,10535,12267,1
0.0,0.0,0.0,18654,20039,9588,10558,12280,1
0.0,0.0,0.0,18691,20078,9621,10535,12280,1
0.0,0.0,0.0,18654,20078,9599,10535,12293,1
0.0,0.0,0.0,18672,20019,9599,10558,12280,1
0.0,0.0,0.0,18691,20039,9621,10535,12320,1
0.0,0.0,0.0,18635,20058,9588,10535,12293,1
0.0,0.0,0.0,18654,20078,9621,10535,12280,1
0.0,0.0,0.0,18635,20039,9621,10535,12280,1
0.0,0.0,0.0,18635,20058,9621,10535,12346,1
0.0,0.0,0.0,18672,20078,9621,10570,12293,1
0.0,0.0,0.0,18635,20078,9599,10546,12333,1
0.0,0.0,0.0,18654,20078,9588,10535,12293,1
0.0,0.0,0.0,18654,20078,9621,10535,12320,1
0.0,0.0,0.0,18635,20098,9588,10535,12346,1
0.0,0.0,0.0,18599,20078,9599,10535,12293,1
0.0,0.0,0.0,18635,20058,9621,10546,12280,1
0.0,0.0,0.0,18654,20039,9621,10535,12346,1
0.0,0.0,0.0,18635,20078,9610,10535,12293,1
0.0,0.0,0.0,18635,20078,9621,10546,12333,1
0.0,0.0,0.0,18635,20039,9621,10546,12293,1
0.0,0.0,0.0,18654,20058,9610,10546,12320,1
0.0,0.0,0.0,18672,20078,9621,10546,12320,1
0.0,0.0,0.0,18635,20078,9621,10582,12333,1
0.0,0.0,0.0,18635,20039,9599,10535,12320,1
0.0,0.0,0.0,18635,20078,9610,10558,12346,1
0.0,0.0,0.0,18617,20078,9621,10558,12346,1
0.0,0.0,0.0,18654,20019,9621,10546,12320,1
0.0,0.0,0.0,18581,20019,9610,10546,12346,1
0.0,0.0,0.0,18635,20039,9621,10535,12346,1
0.0,0.0,0.0,18635,20058,9610,10546,12372,1
0.0,0.0,0.0,18617,20039,9610,10546,12346,1
0.0,0.0,0.0,18581,20039,9621,10546,12346,1
0.0,0.0,0.0,18581,20078,9610,10535,12372,1
0.0,0.0,0.0,18581,20039,9599,10546,12372,1
0.0,0.0,0.0,18581,20078,9621,10546,12346,1
0.0,0.0,0.0,18562,20039,9621,10546,12320,1
0.0,0.0,0.0,18581,20039,9599,10546,12372,1
0.0,0.0,0.0,18599,20078,9621,10546,12372,1
0.0,0.0,0.0,18599,20039,9621,10535,12359,1
0.0,0.0,0.0,18581,20039,9621,10558,12372,1
0.0,0.0,0.0,18599,20039,9621,10546,12372,1
0.0,0.0,0.0,18562,20098,9621,10558,12346,1
0.0,0.0,0.0,18562,20117,9621,10558,12372,1
0.0,0.0,0.0,18562,20117,9621,10546,12385,1
0.0,0.0,0.0,18562,20078,9621,10546,12385,1
0.0,0.0,0.0,18581,20078,9599,10546,12372,1
0.0,0.0,0.0,18562,20098,9621,10535,12385,1
0.0,0.0,0.0,18562,20117,9621,10535,12385,1
0.0,0.0,0.0,18599,20098,9599,10558,12398,1
0.0,0.0,0.0,18581,20078,9599,10546,12438,1
0.0,0.0,0.0,18562,20117,9621,10546,12385,1
0.0,0.0,0.0,18562,20157,9588,10535,12424,1
0.0,0.0,0.0,18562,20078,9621,10570,12424,1
0.0,0.0,0.0,18562,20117,9599,10546,12424,1
0.0,0.0,0.0,18581,20157,9621,10546,12424,1
0.0,0.0,0.0,18617,20157,9621,10546,12411,1
0.0,0.0,0.0,18581,20137,9621,10558,12398,1
0.0,0.0,0.0,18599,20117,9621,10535,12424,1
0.0,0.0,0.0,18581,20117,9599,10535,12398,1
0.0,0.0,0.0,18562,20078,9621,10546,12385,1
0.0,0.0,0.0,18562,20078,9599,10546,12424,1
0.0,0.0,0.0,18562,20098,9621,10546,12424,1
0.0,0.0,0.0,18562,20098,9621,10546,12385,1
0.0,0.0,0.0,18562,20117,9621,10570,12398,1
0.0,0.0,0.0,18599,20078,9621,10546,12385,1
0.0,0.0,0.0,18581,20098,9621,10546,12411,1
0.0,0.0,0.0,18562,20078,9621,10570,12424,1
0.0,0.0,0.0,18599,20117,9621,10535,12438,1
0.0,0.0,0.0,18562,20078,9621,10558,12438,1
0.0,0.0,0.0,18562,20039,9621,10535,12438,1
0.0,0.0,0.0,18562,20078,9621,10582,12438,1
0.0,0.0,0.0,18599,20078,9621,10546,12424,1
0.0,0.0,0.0,18562,20078,9621,10546,12451,1
0.0,0.0,0.0,18562,20098,9621,10558,12424,1
0.0,0.0,0.0,18581,20098,9632,10535,12438,1
0.0,0.0,0.0,18562,20117,9621,10558,12438,1
0.0,0.0,0.0,18599,20275,9599,10582,12424,1
0.0,0.0,0.0,18635,20315,9621,10546,12424,1
0.0,0.0,0.0,18654,20236,9610,10535,12385,1
0.0,0.0,0.0,18599,20236,9621,10546,12372,1
0.0,0.0,0.0,18599,20196,9610,10570,12372,1
0.0,0.0,0.0,18599,20176,9599,10546,12424,1
0.0,0.0,0.0,18691,20196,9610,10582,12438,1
0.0,0.0,0.0,18672,20176,9599,10546,12411,1
0.0,0.0,0.0,18654,20176,9621,10535,12385,1
0.0,0.0,0.0,18635,20216,9632,10546,12424,1
0.0,0.0,0.0,18635,20176,9621,10535,12424,1
0.0,0.0,0.0,18654,20157,9599,10558,12424,1
0.0,0.0,0.0,18654,20196,9599,10535,12438,1
0.0,0.0,0.0,18635,20236,9621,10558,12424,1
0.0,0.0,0.0,18635,20236,9621,10546,12424,1
0.0,0.0,0.0,18635,20176,9610,10546,12372,1
0.0,0.0,0.0,18635,20157,9621,10535,12451,1
0.0,0.0,0.0,18635,20196,9621,10535,12424,1
0.0,0.0,0.0,18635,20176,9599,10535,12424,1
0.0,0.0,0.0,18635,20196,9621,10546,12424,1
0.0,0.0,0.0,18654,20176,9610,10535,12411,1
0.0,0.0,0.0,18654,20196,9610,10546,12385,1
0.0,0.0,0.0,18635,20176,9588,10546,12424,1
0.0,0.0,0.0,18635,20176,9599,10535,12451,1
0.0,0.0,0.0,18635,20216,9610,10535,12398,1
0.0,0.0,0.0,18617,20176,9599,10546,12398,1
0.0,0.0,0.0,18635,20196,9621,10546,12424,1
0.0,0.0,0.0,18635,20236,9621,10546,12424,1
0.0,0.0,0.0,18635,20157,9610,10546,12438,1
0.0,0.0,0.0,18599,20157,9621,10570,12424,1
0.0,0.0,0.0,18654,20157,9599,10546,12424,1
0.0,0.0,0.0,18635,20196,9621,10546,12411,1
0.0,0.0,0.0,18617,20157,9610,10535,12385,1
0.0,0.0,0.0,18635,20157,9621,10535,12398,1
0.0,0.0,0.0,18635,20157,9610,10546,12424,1
0.0,0.0,0.0,18635,20157,9621,10535,12424,1
0.0,0.0,0.0,18635,20176,9621,10535,12424,1
0.0,0.0,0.0,18581,20157,9621,10546,12438,1
0.0,0.0,0.0,18599,20157,9610,10535,12398,1
0.0,0.0,0.0,18617,20137,9621,10546,12424,1
0.0,0.0,0.0,18599,20137,9621,10535,12451,1
0.0,0.0,0.0,18599,20098,9599,10546,12451,1
0.0,0.0,0.0,18635,20117,9621,10546,12424,1
0.0,0.0,0.0,18617,20117,9621,10535,12424,1
0.0,0.0,0.0,18617,20078,9621,10535,12424,1
0.0,0.0,0.0,18599,20078,9621,10546,12424,1
0.0,0.0,0.0,18635,20137,9621,10629,12424,1
0.0,0.0,0.0,18635,20078,9610,10641,12424,1
0.0,0.0,0.0,18635,20078,9621,10676,12411,1
0.0,0.0,0.0,18599,20078,9599,10641,12424,1
0.0,0.0,0.0,18599,20078,9621,10641,12398,1
0.0,0.0,0.0,18635,20078,9621,10629,12385,1
0.0,0.0,0.0,18581,20098,9621,10629,12424,1
0.0,0.0,0.0,18581,20078,9588,10629,12424,1
0.0,0.0,0.0,18599,20078,9621,10605,12411,1
0.0,0.0,0.0,18599,20078,9599,10629,12372,1
0.0,0.0,0.0,18599,20078,9621,10605,12385,1
0.0,0.0,0.0,18581,20098,9621,10605,12398,1
0.0,0.0,0.0,18581,20078,9621,10605,12424,1
0.0,0.0,0.0,18635,20039,9599,10605,12424,1
0.0,0.0,0.0,18562,20078,9621,10594,12424,1
0.0,0.0,0.0,18599,20078,9621,10582,12398,1
0.0,0.0,0.0,18599,20078,9599,10582,12424,1
0.0,0.0,0.0,18599,20078,9621,10582,12411,1
0.0,0.0,0.0,18581,20039,9599,10582,12398,1
0.0,0.0,0.0,18562,20078,9599,10582,12424,1
0.0,0.0,0.0,18562,20039,9599,10582,12424,1
0.0,0.0,0.0,18581,20039,9621,10582,12424,1
0.0,0.0,0.0,18562,20078,9621,10582,12424,1
0.0,0.0,0.0,18562,20019,9621,10582,12411,1
0.0,0.0,0.0,18581,20078,9621,10582,12398,1
0.0,0.0,0.0,18562,20078,9610,10582,12424,1
0.0,0.0,0.0,18562,20039,9621,10558,12438,1
0.0,0.0,0.0,18562,20058,9621,10558,12424,1
0.0,0.0,0.0,18562,20058,9588,10546,12424,1
0.0,0.0,0.0,18562,20078,9610,10570,12424,1
0.0,0.0,0.0,18581,20078,9621,10582,12438,1
0.0,0.0,0.0,18562,20078,9610,10582,12424,1
0.0,0.0,0.0,18562,20058,9621,10570,12424,1
0.0,0.0,0.0,18562,20078,9621,10582,12424,1
0.0,0.0,0.0,18581,20019,9566,10558,12464,1
0.0,0.0,0.0,18581,20039,9621,10546,12451,1
0.0,0.0,0.0,18508,20039,9610,10582,12451,1
0.0,0.0,0.0,18526,20078,9621,10582,12424,1
0.0,0.0,0.0,18581,20078,9610,10558,12451,1
0.0,0.0,0.0,18562,20078,9599,10582,12424,1
0.0,0.0,0.0,18526,20039,9621,10570,12451,1
0.0,0.0,0.0,18562,20078,9621,10582,12451,1
0.0,0.0,0.0,18508,20078,9621,10582,12438,1
0.0,0.0,0.0,18562,20039,9621,10582,12477,1
0.0,0.0,0.0,18599,20078,9621,10582,12477,1
0.0,0.0,0.0,18599,20078,9621,10570,12451,1
0.0,0.0,0.0,18562,20039,9610,10570,12451,1
0.0,0.0,0.0,18599,19999,9621,10558,12504,1
0.0,0.0,0.0,18562,20078,9621,10582,12477,1
0.0,0.0,0.0,18562,20019,9599,10558,12477,1
0.0,0.0,0.0,18562,20039,9621,10582,12477,1
0.0,0.0,0.0,18544,20019,9599,10582,12490,1
0.0,0.0,0.0,18581,20078,9621,10582,12477,1
0.0,0.0,0.0,18562,20039,9621,10570,12504,1
0.0,0.0,0.0,18508,20078,9621,10582,12477,1
0.0,0.0,0.0,18562,19999,9621,10558,12504,1
0.0,0.0,0.0,18562,20019,9621,10582,12504,1
0.0,0.0,0.0,18581,20019,9599,10582,12477,1
0.0,0.0,0.0,18526,20058,9621,10546,12477,1
0.0,0.0,0.0,18526,20039,9621,10582,12477,1
0.0,0.0,0.0,18562,20039,9621,10582,12477,1
0.0,0.0,0.0,18581,20019,9610,10582,12504,1
0.0,0.0,0.0,18562,20039,9599,10582,12530,1
0.0,0.0,0.0,18508,20019,9621,10582,12543,1
0.0,0.0,0.0,18562,20039,9621,10558,12530,1
0.0,0.0,0.0,18599,20039,9621,10582,12530,1
0.0,0.0,0.0,18508,19999,9621,10582,12530,1
0.0,0.0,0.0,18562,19999,9621,10582,12530,1
0.0,0.0,0.0,18562,20039,9599,10582,12530,1
0.0,0.0,0.0,18508,20019,9621,10582,12543,1
0.0,0.0,0.0,18508,19999,9643,10558,12517,1
0.0,0.0,0.0,18562,19999,9621,10558,12556,1
0.0,0.0,0.0,18562,20019,9621,10582,12556,1
0.0,0.0,0.0,18562,20019,9621,10582,12543,1
0.0,0.0,0.0,18508,20039,9621,10582,12504,1
0.0,0.0,0.0,18562,20078,9621,10558,12543,1
0.0,0.0,0.0,18562,19999,9621,10582,12556,1
0.0,0.0,0.0,18489,20019,9621,10582,12543,1
0.0,0.0,0.0,18562,20039,9599,10582,12556,1
0.0,0.0,0.0,18453,19999,9621,10582,12583,1
0.0,0.0,0.0,18508,20039,9610,10582,12530,1
0.0,0.0,0.0,18562,20078,9621,10582,12543,1
0.0,0.0,0.0,18489,20039,9621,10582,12530,1
0.0,0.0,0.0,18562,20019,9610,10558,12530,1
0.0,0.0,0.0,18581,20019,9621,10558,12583,1
0.0,0.0,0.0,18562,20019,9621,10582,12530,1
0.0,0.0,0.0,18562,20019,9621,10582,12543,1
0.0,0.0,0.0,18562,20078,9621,10582,12530,1
0.0,0.0,0.0,18562,20039,9621,10582,12543,1
0.0,0.0,0.0,18562,19999,9621,10582,12530,1
0.0,0.0,0.0,18562,20039,9621,10582,12530,1
0.0,0.0,0.0,18562,20019,9610,10582,12583,1
0.0,0.0,0.0,18544,19999,9621,10582,12543,1
0.0,0.0,0.0,18526,19999,9621,10582,12530,1
0.0,0.0,0.0,18581,19999,9610,10582,12543,1
0.0,0.0,0.0,18508,19999,9599,10582,12583,1
0.0,0.0,0.0,18562,19999,9621,10582,12530,1
0.0,0.0,0.0,18562,19980,9621,10582,12530,1
0.0,0.0,0.0,18526,20019,9599,10582,12543,1
0.0,0.0,0.0,18562,20019,9621,10582,12543,1
0.0,0.0,0.0,18508,19999,9599,10582,12583,1
0.0,0.0,0.0,18526,20019,9621,10582,12543,1
0.0,0.0,0.0,18544,19999,9621,10594,12570,1
0.0,0.0,0.0,18562,19999,9599,10582,12543,1
0.0,0.0,0.0,18508,19999,9621,10582,12530,1
0.0,0.0,0.0,18526,19999,9621,10582,12543,1
0.0,0.0,0.0,18526,19999,9621,10582,12583,1
0.0,0.0,0.0,18562,20019,9621,10582,12583,1
0.0,0.0,0.0,18562,19999,9621,10582,12543,1
0.0,0.0,0.0,18508,20019,9610,10582,12583,1
0.0,0.0,0.0,18508,20019,9621,10582,12543,1
0.0,0.0,0.0,18526,20058,9621,10582,12583,1
0.0,0.0,0.0,18508,19999,9621,10582,12583,1
0.0,0.0,0.0,18544,19999,9621,10582,12583,1
0.0,0.0,0.0,18526,19999,9621,10582,12556,1
0.0,0.0,0.0,18489,20019,9621,10582,12583,1
0.0,0.0,0.0,18508,20019,9621,10594,12610,1
0.0,0.0,0.0,18544,19999,9610,10582,12543,1
0.0,0.0,0.0,18544,20019,9632,10582,12583,1
0.0,0.0,0.0,18526,19999,9621,10582,12596,1
0.0,0.0,0.0,18508,19999,9621,10605,12596,1
0.0,0.0,0.0,18526,20019,9621,10594,12583,1
0.0,0.0,0.0,18508,19941,9621,10582,12583,1
0.0,0.0,0.0,18581,19999,9621,10582,12583,1
0.0,0.0,0.0,18508,19999,9621,10594,12583,1
0.0,0.0,0.0,18544,20019,9621,10582,12583,1
0.0,0.0,0.0,18526,19999,9599,10582,12583,1
0.0,0.0,0.0,18562,20039,9621,10535,12583,1
0.0,0.0,0.0,18508,19999,9654,10582,12583,1
0.0,0.0,0.0,18508,20019,9621,10605,12596,1
0.0,0.0,0.0,18508,20019,9610,10582,12583,1
0.0,0.0,0.0,18544,19960,9610,10582,12610,1
0.0,0.0,0.0,18508,19999,9610,10582,12583,1
0.0,0.0,0.0,18508,19980,9610,10594,12610,1
0.0,0.0,0.0,18562,19999,9621,10605,12610,1
0.0,0.0,0.0,18508,19960,9621,10582,12583,1
0.0,0.0,0.0,18508,19999,9621,10582,12556,1
0.0,0.0,0.0,18489,19999,9621,10594,12583,1
0.0,0.0,0.0,18508,19999,9621,10582,12610,1
0.0,0.0,0.0,18489,19999,9621,10582,12596,1
0.0,0.0,0.0,18562,19960,9621,10605,12610,1
0.0,0.0,0.0,18508,19999,9621,10582,12583,1
0.0,0.0,0.0,18562,19999,9621,10582,12596,1
0.0,0.0,0.0,18526,19999,9621,10582,12583,1
0.0,0.0,0.0,18508,20039,9621,10582,12530,1
0.0,0.0,0.0,18562,20078,9632,10582,12504,1
0.0,0.0,0.0,18562,20117,9621,10582,12477,1
0.0,0.0,0.0,18562,20098,9610,10582,12451,1
0.0,0.0,0.0,18508,20078,9610,10558,12451,1
0.0,0.0,0.0,18544,20058,9621,10582,12451,1
0.0,0.0,0.0,18526,20117,9621,10582,12424,1
0.0,0.0,0.0,18526,20078,9621,10582,12424,1
0.0,0.0,0.0,18508,20078,9599,10546,12424,1
0.0,0.0,0.0,18562,20098,9599,10582,12372,1
0.0,0.0,0.0,18562,20078,9621,10546,12372,1
0.0,0.0,0.0,18544,20098,9621,10582,12372,1
0.0,0.0,0.0,18562,20078,9621,10582,12398,1
0.0,0.0,0.0,18508,20058,9621,10570,12424,1
0.0,0.0,0.0,18508,19999,9621,10605,12424,1
0.0,0.0,0.0,18526,20078,9621,10558,12451,1
0.0,0.0,0.0,18489,20078,9621,10558,12543,1
0.0,0.0,0.0,18471,20117,9710,10594,12610,1
0.0,0.0,0.0,18453,20117,9890,10582,12636,1
0.0,0.0,0.0,18489,20157,9935,10594,12690,1
0.0,0.0,0.0,18435,20117,9980,10629,12690,1
0.0,0.0,0.0,18417,20157,10037,10629,12703,1
0.0,0.0,0.0,18380,20176,10083,10653,12783,1
0.0,0.0,0.0,18344,20236,10186,10700,12918,1
0.0,0.0,0.0,18308,20236,10221,10891,13068,1
0.0,0.0,0.0,18308,20256,10209,10963,13122,1
0.0,0.0,0.0,18308,20157,10209,10963,13095,1
0.0,0.0,0.0,18308,20176,10209,10963,13122,1
0.0,0.0,0.0,18272,20176,10209,10915,13027,1
0.0,0.0,0.0,18308,20196,10232,10879,13013,1
0.0,0.0,0.0,18290,20157,10232,10891,12986,1
0.0,0.0,0.0,18290,20157,10209,10879,13013,1
0.0,0.0,0.0,18272,20157,10209,10879,12986,1
0.0,0.0,0.0,18272,20176,10197,10879,13013,1
0.0,0.0,0.0,18290,20176,10209,10891,13027,1
0.0,0.0,0.0,18290,20176,10209,10891,12972,1
0.0,0.0,0.0,18272,20137,10186,10879,13013,1
0.0,0.0,0.0,18254,20098,10209,10879,13013,1
0.0,0.0,0.0,18272,20137,10232,10891,13013,1
0.0,0.0,0.0,18272,20157,10313,11121,13081,1
0.0,0.0,0.0,18272,20157,10348,11268,13081,1
0.0,0.0,0.0,18272,20157,10336,11231,13122,1
0.0,0.0,0.0,18290,20157,10371,11354,13122,1
0.0,0.0,0.0,18290,20157,10359,11379,13136,1
0.0,0.0,0.0,18254,20157,10371,11379,13122,1
0.0,0.0,0.0,18236,20196,10383,11379,13136,1
0.0,0.0,0.0,18272,20196,10582,11817,13205,1
0.0,0.0,0.0,18272,20256,10653,12112,13218,1
0.0,0.0,0.0,18236,20236,10688,12372,13232,1
0.0,0.0,0.0,18236,20196,10724,12451,13232,1
0.0,0.0,0.0,18254,20236,11072,13343,13482,1
0.0,0.0,0.0,18236,20236,11255,13482,13735,1
0.0,0.0,0.0,18200,20275,11231,13426,14079,1
0.0,0.0,0.0,18200,20176,11206,13398,14137,1
0.0,0.0,0.0,18236,20176,11157,13232,14166,1
0.0,0.0,0.0,18182,20256,11133,12972,14108,1
0.0,0.0,0.0,18164,20236,11109,12932,14151,1
0.0,0.0,0.0,18147,20196,11060,12797,14108,1
0.0,0.0,0.0,18182,20216,11072,12583,14050,1
0.0,0.0,0.0,18200,20256,11060,12438,14079,1
0.0,0.0,0.0,18200,20236,11060,12451,14224,1
0.0,0.0,0.0,18200,20157,11012,12424,14195,1
0.0,0.0,0.0,18147,20216,11048,12424,14444,1
0.0,0.0,0.0,18200,20236,11012,12424,14846,1
0.0,0.0,0.0,18147,20256,11012,12411,14982,1
0.0,0.0,0.0,18236,20236,11012,12293,15304,1
0.0,0.0,0.0,18147,20236,10975,12215,15475,1
0.0,0.0,0.0,18200,20236,10963,12124,16434,1
0.0,0.0,0.0,18164,20236,10819,11830,16983,1
0.0,0.0,0.0,18236,20315,10605,11428,16076,1
0.0,0.0,0.0,18272,20335,10605,11354,15459,1
0.0,0.0,0.0,18362,20455,10511,11206,14846,1
0.0,0.0,0.0,18435,20475,10605,11109,14341,1
0.0,0.0,0.0,18508,20435,10582,10987,13964,1
0.0,0.0,0.0,18562,20475,10594,10987,13622,1
0.0,0.0,0.0,18544,20375,10582,10915,13622,1
0.0,0.0,0.0,18562,20375,10546,10867,13524,1
0.0,0.0,0.0,18581,20395,10535,10867,13454,1
0.0,0.0,0.0,18581,20315,10499,10867,13468,1
0.0,0.0,0.0,18562,20315,10488,10867,13454,1
0.0,0.0,0.0,18508,20315,10488,10867,13510,1
0.0,0.0,0.0,18562,20335,10488,10855,13524,1
0.0,0.0,0.0,18562,20275,10464,10843,13510,1
0.0,0.0,0.0,18508,20236,10476,10867,13538,1
0.0,0.0,0.0,18562,20236,10464,10819,13594,1
0.0,0.0,0.0,18581,20275,10476,10867,13566,1
0.0,0.0,0.0,18581,20236,10453,10867,13650,1
0.0,0.0,0.0,18526,20236,10453,10867,13594,1
0.0,0.0,0.0,18508,20236,10453,10855,13622,1
0.0,0.0,0.0,18508,20236,10441,10843,13735,1
0.0,0.0,0.0,18544,20295,10418,10915,13792,1
0.0,0.0,0.0,18508,20196,10418,10975,13749,1
0.0,0.0,0.0,18508,20176,10394,11012,13749,1
0.0,0.0,0.0,18508,20196,10371,11012,13792,1
0.0,0.0,0.0,18489,20236,10394,10939,13566,1
0.0,0.0,0.0,18435,20315,10359,10867,12986,1
0.0,0.0,0.0,18362,20236,10383,10879,12851,1
0.0,0.0,0.0,18380,20236,10371,10927,12810,1
0.0,0.0,0.0,18380,20236,10348,10915,12770,1
0.0,0.0,0.0,18399,20275,10325,10915,12797,1
0.0,0.0,0.0,18344,20256,10325,10879,12756,1
0.0,0.0,0.0,18344,20275,10348,10891,12770,1
0.0,0.0,0.0,18362,20236,10325,10915,12824,1
0.0,0.0,0.0,18380,20256,10301,10867,12945,1
0.0,0.0,0.0,18362,20256,10371,10867,13150,1
0.0,0.0,0.0,18326,20236,10348,10855,13122,1
0.0,0.0,0.0,18344,20315,10359,10867,13232,1
0.0,0.0,0.0,18417,20236,10394,10867,13608,1
0.0,0.0,0.0,18399,20236,10394,10867,13454,1
0.0,0.0,0.0,18380,20275,10418,10819,13426,1
0.0,0.0,0.0,18380,20275,10418,10783,13371,1
0.0,0.0,0.0,18399,20275,10418,10783,13315,1
0.0,0.0,0.0,18417,20236,10406,10771,13301,1
0.0,0.0,0.0,18399,20236,10406,10771,13246,1
0.0,0.0,0.0,18362,20236,10394,10771,13287,1
0.0,0.0,0.0,18380,20256,10394,10771,13287,1
0.0,0.0,0.0,18417,20275,10441,10783,13287,1
0.0,0.0,0.0,18362,20256,10441,10771,13287,1
0.0,0.0,0.0,18417,20236,10441,10771,13315,1
0.0,0.0,0.0,18362,20275,10418,10771,13287,1
0.0,0.0,0.0,18362,20256,10394,10771,13287,1
0.0,0.0,0.0,18362,20236,10394,10771,13274,1
0.0,0.0,0.0,18362,20335,10394,10783,13287,1
0.0,0.0,0.0,18380,20315,10406,10748,13260,1
0.0,0.0,0.0,18417,20335,10394,10748,13205,1
0.0,0.0,0.0,18435,20335,10371,10748,13205,1
0.0,0.0,0.0,18544,20395,10371,10748,13205,1
0.0,0.0,0.0,18435,20315,10359,10748,13177,1
0.0,0.0,0.0,18508,20375,10359,10748,13177,1
0.0,0.0,0.0,18489,20395,10359,10748,13150,1
0.0,0.0,0.0,18562,20395,10371,10724,13150,1
0.0,0.0,0.0,18489,20375,10359,10771,13163,1
0.0,0.0,0.0,18471,20355,10348,10748,13150,1
0.0,0.0,0.0,18417,20395,10313,10724,13136,1
0.0,0.0,0.0,18435,20335,10313,10724,13095,1
0.0,0.0,0.0,18380,20275,10301,10748,13122,1
0.0,0.0,0.0,18417,20335,10221,10724,13068,1
0.0,0.0,0.0,18362,20475,10140,10748,13027,1
0.0,0.0,0.0,18562,20595,10026,10748,13013,1
0.0,0.0,0.0,18489,20575,9980,10724,13013,1
0.0,0.0,0.0,18526,20595,9946,10748,12972,1
0.0,0.0,0.0,18508,20575,9958,10748,13013,1
0.0,0.0,0.0,18489,20515,9946,10748,13013,1
0.0,0.0,0.0,18435,20495,9980,10724,12959,1
0.0,0.0,0.0,18417,20475,9969,10748,13013,1
0.0,0.0,0.0,18417,20435,10003,10748,12986,1
0.0,0.0,0.0,18344,20395,9992,10748,12972,1
0.0,0.0,0.0,18308,20355,9980,10748,12972,1
0.0,0.0,0.0,18308,20315,9980,10748,13013,1
0.0,0.0,0.0,18272,20275,10003,10748,12972,1
0.0,0.0,0.0,18218,20236,10026,10748,13013,1
0.0,0.0,0.0,18236,20236,10014,10748,12986,1
0.0,0.0,0.0,18236,20176,10026,10748,13040,1
0.0,0.0,0.0,18236,20216,10049,10748,13054,1
0.0,0.0,0.0,18182,20176,10049,10771,13027,1
0.0,0.0,0.0,18182,20236,10037,10748,13013,1
0.0,0.0,0.0,18182,20196,10026,10748,13040,1
0.0,0.0,0.0,18200,20176,10003,10748,13013,1
0.0,0.0,0.0,18200,20196,10026,10748,13027,1
0.0,0.0,0.0,18164,20176,10026,10748,12986,1
0.0,0.0,0.0,18164,20157,10026,10748,13013,1
0.0,0.0,0.0,18164,20176,10060,10748,13013,1
0.0,0.0,0.0,18164,20196,10083,10748,13013,1
0.0,0.0,0.0,18147,20117,10071,10748,13013,1
0.0,0.0,0.0,18164,20157,10094,10771,13013,1
0.0,0.0,0.0,18147,20117,10094,10748,13027,1
0.0,0.0,0.0,18111,20117,10071,10748,13013,1
0.0,0.0,0.0,18164,20137,10083,10748,13013,1
0.0,0.0,0.0,18129,20098,10071,10748,13013,1
0.0,0.0,0.0,18129,20078,10071,10748,13027,1
0.0,0.0,0.0,18129,20098,10083,10748,13013,1
0.0,0.0,0.0,18129,20117,10094,10748,13027,1
0.0,0.0,0.0,18164,20098,10071,10748,13027,1
0.0,0.0,0.0,18129,20117,10071,10771,12999,1
0.0,0.0,0.0,18147,20157,10049,10748,13013,1
0.0,0.0,0.0,18147,20157,10026,10771,12972,1
0.0,0.0,0.0,18129,20176,10026,10771,12959,1
0.0,0.0,0.0,18129,20117,10003,10771,12972,1
0.0,0.0,0.0,18129,20117,9980,10748,12972,1
0.0,0.0,0.0,18129,20098,9980,10748,12959,1
0.0,0.0,0.0,18093,20078,10003,10748,12972,1
0.0,0.0,0.0,18075,20039,10003,10748,13013,1
0.0,0.0,0.0,18093,20157,9958,10748,12932,1
0.0,0.0,0.0,18057,20157,9890,10759,12972,1
0.0,0.0,0.0,18111,20236,9845,10748,12959,1
0.0,0.0,0.0,18093,20196,9811,10771,12959,1
0.0,0.0,0.0,18129,20275,9845,10748,12932,1
0.0,0.0,0.0,18129,20196,9800,10771,12905,1
0.0,0.0,0.0,18129,20157,9811,10771,12918,1
0.0,0.0,0.0,18129,20176,9811,10771,12905,1
0.0,0.0,0.0,18129,20236,9800,10771,12905,1
0.0,0.0,0.0,18129,20176,9777,10748,12905,1
0.0,0.0,0.0,18147,20256,9800,10748,12878,1
0.0,0.0,0.0,18182,20275,9777,10759,12864,1
0.0,0.0,0.0,18164,20256,9800,10748,12905,1
0.0,0.0,0.0,18147,20275,9766,10748,12851,1
0.0,0.0,0.0,18164,20275,9777,10748,12891,1
0.0,0.0,0.0,18200,20256,9777,10748,12864,1
0.0,0.0,0.0,18182,20256,9766,10748,12851,1
0.0,0.0,0.0,18182,20256,9766,10748,12851,1
0.0,0.0,0.0,18182,20176,9800,10724,12851,1
0.0,0.0,0.0,18164,20236,9800,10748,12905,1
0.0,0.0,0.0,18200,20176,9777,10748,12905,1
0.0,0.0,0.0,18147,20236,9800,10724,12905,1
0.0,0.0,0.0,18147,20157,9800,10748,12905,1
0.0,0.0,0.0,18164,20157,9811,10748,12905,1
0.0,0.0,0.0,18129,20117,9845,10748,12918,1
0.0,0.0,0.0,18164,20098,9867,10748,12959,1
0.0,0.0,0.0,18129,20117,9890,10748,12932,1
0.0,0.0,0.0,18164,20157,9890,10748,12918,1
0.0,0.0,0.0,18164,20137,9912,10771,12918,1
0.0,0.0,0.0,18147,20117,9912,10771,12959,1
0.0,0.0,0.0,18164,20117,9935,10748,12959,1
0.0,0.0,0.0,18164,20078,9935,10748,12972,1
0.0,0.0,0.0,18164,20098,10003,10748,12959,1
0.0,0.0,0.0,18147,20078,10003,10748,12986,1
0.0,0.0,0.0,18129,20117,10026,10748,12959,1
0.0,0.0,0.0,18147,20058,10026,10748,13013,1
0.0,0.0,0.0,18147,20078,10026,10748,12972,1
0.0,0.0,0.0,18129,20078,10049,10748,12999,1
0.0,0.0,0.0,18129,20058,10060,10771,13013,1
0.0,0.0,0.0,18129,20078,10083,10724,12986,1
0.0,0.0,0.0,18129,20078,10094,10748,13013,1
0.0,0.0,0.0,18093,20019,10117,10771,12986,1
0.0,0.0,0.0,18129,20039,10117,10771,13013,1
0.0,0.0,0.0,18129,20019,10083,10771,13027,1
0.0,0.0,0.0,18111,20039,10094,10771,12986,1
0.0,0.0,0.0,18129,20058,10106,10748,13013,1
0.0,0.0,0.0,18093,20019,10071,10771,12972,1
0.0,0.0,0.0,18129,20039,10049,10771,12972,1
0.0,0.0,0.0,18111,20019,10037,10759,12972,1
0.0,0.0,0.0,18075,20019,10026,10771,13013,1
0.0,0.0,0.0,18093,19999,10049,10771,13013,1
0.0,0.0,0.0,18093,19999,10049,10748,12972,1
0.0,0.0,0.0,18111,20039,10071,10759,13013,1
0.0,0.0,0.0,18093,19999,10049,10748,13013,1
0.0,0.0,0.0,18111,20019,10060,10748,13040,1
0.0,0.0,0.0,18147,20039,10094,10771,13013,1
0.0,0.0,0.0,18075,20039,10071,10759,13013,1
0.0,0.0,0.0,18093,20039,10094,10771,13027,1
0.0,0.0,0.0,18129,19999,10117,10771,13013,1
0.0,0.0,0.0,18147,20078,10117,10771,13040,1
0.0,0.0,0.0,18164,20098,10071,10771,13013,1
0.0,0.0,0.0,18129,20098,10071,10759,13054,1
0.0,0.0,0.0,18147,20098,10049,10748,13013,1
0.0,0.0,0.0,18164,20117,10026,10771,13027,1
0.0,0.0,0.0,18093,20078,10026,10771,13068,1
0.0,0.0,0.0,18129,20078,10049,10748,13013,1
0.0,0.0,0.0,18164,20117,10049,10771,13040,1
0.0,0.0,0.0,18129,20078,10049,10748,13068,1
0.0,0.0,0.0,18129,20058,10026,10771,13013,1
0.0,0.0,0.0,18129,20039,10049,10748,13040,1
0.0,0.0,0.0,18129,20039,10060,10748,13027,1
0.0,0.0,0.0,18147,20019,10049,10748,13013,1
0.0,0.0,0.0,18129,20039,10049,10748,13013,1
0.0,0.0,0.0,18129,20039,10026,10771,13027,1
0.0,0.0,0.0,18129,20039,10060,10748,13013,1
0.0,0.0,0.0,18093,20078,10071,10771,13013,1
0.0,0.0,0.0,18129,20039,10071,10771,13040,1
0.0,0.0,0.0,18093,20039,10049,10748,13013,1
0.0,0.0,0.0,18075,20039,10049,10748,13040,1
0.0,0.0,0.0,18093,20039,10049,10771,13013,1
0.0,0.0,0.0,18111,19999,10071,10748,13013,1
0.0,0.0,0.0,18129,20019,10049,10748,13013,1
0.0,0.0,0.0,18129,19999,10060,10748,13068,1
0.0,0.0,0.0,18093,20019,10071,10771,13013,1
0.0,0.0,0.0,18111,19999,10083,10771,13040,1
0.0,0.0,0.0,18075,20039,10071,10771,13013,1
0.0,0.0,0.0,18093,19999,10071,10748,13013,1
0.0,0.0,0.0,18075,19999,10071,10771,13027,1
0.0,0.0,0.0,18093,20039,10071,10748,13040,1
0.0,0.0,0.0,18129,19999,10071,10771,13013,1
0.0,0.0,0.0,18075,19999,10071,10748,13027,1
0.0,0.0,0.0,18075,19999,10117,10771,13013,1
0.0,0.0,0.0,18075,19999,10071,10771,13068,1
0.0,0.0,0.0,18129,19960,10083,10771,13054,1
0.0,0.0,0.0,18075,19999,10083,10748,13040,1
0.0,0.0,0.0,18075,19960,10094,10771,13040,1
0.0,0.0,0.0,18075,19999,10094,10771,13040,1
0.0,0.0,0.0,18057,19999,10094,10759,13027,1
0.0,0.0,0.0,18093,19999,10094,10771,13013,1
0.0,0.0,0.0,18075,19999,10094,10771,13068,1
0.0,0.0,0.0,18093,19960,10094,10748,13013,1
0.0,0.0,0.0,18093,19921,10094,10771,13013,1
0.0,0.0,0.0,18057,19960,10117,10771,13068,1
0.0,0.0,0.0,18093,19999,10117,10748,13040,1
0.0,0.0,0.0,18075,19960,10117,10771,13027,1
0.0,0.0,0.0,18129,19999,10117,10771,13040,1
0.0,0.0,0.0,18057,19999,10129,10771,13054,1
0.0,0.0,0.0,18057,19960,10117,10748,13040,1
0.0,0.0,0.0,18075,19960,10163,10771,13013,1
0.0,0.0,0.0,18129,19960,10117,10748,13040,1
0.0,0.0,0.0,18093,19999,10129,10748,13040,1
0.0,0.0,0.0,18129,20019,10140,10783,13040,1
0.0,0.0,0.0,18057,19999,10117,10771,13068,1
0.0,0.0,0.0,18093,19980,10129,10771,13081,1
0.0,0.0,0.0,18093,19980,10129,10771,13068,1
0.0,0.0,0.0,18075,19941,10117,10771,13068,1
0.0,0.0,0.0,18093,19999,10117,10771,13081,1
0.0,0.0,0.0,18093,19941,10117,10783,13040,1
0.0,0.0,0.0,18075,19960,10140,10771,13040,1
0.0,0.0,0.0,18057,19960,10140,10771,13068,1
0.0,0.0,0.0,18129,19960,10129,10771,13068,1
0.0,0.0,0.0,18075,19999,10129,10748,13068,1
0.0,0.0,0.0,18093,19960,10117,10771,13054,1
0.0,0.0,0.0,18075,20019,10037,10771,13027,1
0.0,0.0,0.0,18093,20019,10037,10771,13068,1
0.0,0.0,0.0,18129,20039,10026,10771,13013,1
0.0,0.0,0.0,18075,20039,10026,10771,13013,1
0.0,0.0,0.0,18057,20019,10003,10771,13054,1
0.0,0.0,0.0,18075,20039,10026,10771,13013,1
0.0,0.0,0.0,18093,20019,10026,10771,13040,1
0.0,0.0,0.0,18093,19999,10071,10771,13027,1
0.0,0.0,0.0,18075,20039,10071,10771,13013,1
0.0,0.0,0.0,18075,20039,10071,10759,13027,1
0.0,0.0,0.0,18039,20078,10071,10759,13013,1
0.0,0.0,0.0,18075,20078,10083,10748,13013,1
0.0,0.0,0.0,18022,20019,10094,10771,13027,1
0.0,0.0,0.0,18075,19999,10117,10771,13040,1
0.0,0.0,0.0,18022,19999,10071,10771,13013,1
0.0,0.0,0.0,18022,19960,10117,10771,13027,1
0.0,0.0,0.0,18057,19999,10117,10771,13013,1
0.0,0.0,0.0,17986,19980,10117,10771,13013,1
0.0,0.0,0.0,18022,19999,10117,10771,13027,1
0.0,0.0,0.0,18057,19980,10140,10771,13040,1
0.0,0.0,0.0,18022,19960,10129,10771,13068,1
0.0,0.0,0.0,18057,19960,10140,10771,13068,1
0.0,0.0,0.0,18057,19960,10163,10771,13013,1
0.0,0.0,0.0,18075,19960,10163,10748,13013,1
0.0,0.0,0.0,18057,19960,10163,10771,13027,1
0.0,0.0,0.0,18057,19941,10163,10771,13027,1
0.0,0.0,0.0,18057,19960,10140,10771,13040,1
0.0,0.0,0.0,18057,19999,10071,10771,13054,1
0.0,0.0,0.0,18057,20019,10071,10771,13040,1
0.0,0.0,0.0,18057,19960,10071,10771,13068,1
0.0,0.0,0.0,18039,20019,10014,10759,13013,1
0.0,0.0,0.0,18022,19999,10026,10771,13040,1
0.0,0.0,0.0,18057,20117,9980,10748,13013,1
0.0,0.0,0.0,17986,20078,10014,10771,13068,1
0.0,0.0,0.0,17986,20039,10003,10759,13040,1
0.0,0.0,0.0,17986,19999,10003,10771,13081,1
0.0,0.0,0.0,17915,19980,10003,10771,13040,1
0.0,0.0,0.0,17933,19980,9992,10771,13068,1
0.0,0.0,0.0,17933,19941,10003,10771,13068,1
0.0,0.0,0.0,17933,19941,10003,10771,13027,1
0.0,0.0,0.0,17951,19863,10026,10748,13040,1
0.0,0.0,0.0,17951,19882,10026,10759,13027,1
0.0,0.0,0.0,17933,19902,10026,10783,13040,1
0.0,0.0,0.0,17968,19882,10026,10748,13040,1
0.0,0.0,0.0,17915,19843,10026,10771,13068,1
0.0,0.0,0.0,17915,19921,10026,10748,13068,1
0.0,0.0,0.0,17968,19921,10037,10771,13068,1
0.0,0.0,0.0,17933,19863,10026,10771,13068,1
0.0,0.0,0.0,17933,19882,10060,10771,13068,1
0.0,0.0,0.0,17933,19824,10037,10771,13040,1
0.0,0.0,0.0,17933,19882,10049,10795,13081,1
0.0,0.0,0.0,17986,19863,10071,10771,13068,1
0.0,0.0,0.0,17933,19882,10071,10771,13068,1
0.0,0.0,0.0,17951,19863,10083,10783,13095,1
0.0,0.0,0.0,17986,19863,10083,10783,13068,1
0.0,0.0,0.0,17933,19863,10083,10783,13068,1
0.0,0.0,0.0,17933,19843,10071,10771,13095,1
0.0,0.0,0.0,17915,19843,10071,10771,13068,1
0.0,0.0,0.0,17933,19843,10003,10795,13040,1
0.0,0.0,0.0,17915,19843,9958,10771,13054,1
0.0,0.0,0.0,17915,19882,9935,10748,13068,1
0.0,0.0,0.0,17933,19882,9901,10771,13068,1
0.0,0.0,0.0,17933,19921,9867,10771,13040,1
0.0,0.0,0.0,17933,19921,9867,10771,13054,1
0.0,0.0,0.0,17915,19902,9800,10771,13054,1
0.0,0.0,0.0,17915,19882,9777,10771,13068,1
0.0,0.0,0.0,17915,19863,9755,10759,13027,1
0.0,0.0,0.0,17915,19863,9766,10748,13040,1
0.0,0.0,0.0,17933,19882,9755,10771,13054,1
0.0,0.0,0.0,17915,19902,9766,10771,13054,1
0.0,0.0,0.0,17915,19999,9800,10771,13040,1
0.0,0.0,0.0,17915,19941,9800,10771,13040,1
0.0,0.0,0.0,17915,19941,9811,10748,13068,1
0.0,0.0,0.0,17845,19921,9811,10771,13040,1
0.0,0.0,0.0,17933,19921,9811,10771,13040,1
0.0,0.0,0.0,17933,19921,9811,10748,13040,1
0.0,0.0,0.0,17898,19843,9800,10771,13068,1
0.0,0.0,0.0,17862,19882,9766,10771,13013,1
0.0,0.0,0.0,17915,19863,9755,10771,13068,1
0.0,0.0,0.0,17898,19843,9755,10771,13054,1
0.0,0.0,0.0,17845,20157,9643,10771,13013,1
0.0,0.0,0.0,17845,20216,9621,10771,13013,1
0.0,0.0,0.0,17845,20196,9621,10771,13040,1
0.0,0.0,0.0,17845,20295,9621,10771,12986,1
0.0,0.0,0.0,17774,20236,9621,10771,12972,1
0.0,0.0,0.0,17704,20196,9599,10748,12959,1
0.0,0.0,0.0,17774,19999,9621,10724,12878,1
0.0,0.0,0.0,17792,19766,9621,10700,12649,1
0.0,0.0,0.0,17845,19650,9599,10641,12477,1
0.0,0.0,0.0,17722,19420,9599,10605,12372,1
0.0,0.0,0.0,17426,19306,9621,10582,12267,1
0.0,0.0,0.0,17357,19268,9621,10582,12267,1
0.0,0.0,0.0,17203,19174,9621,10582,12254,1
0.0,0.0,0.0,17186,19155,9621,10582,12280,1
0.0,0.0,0.0,17186,19155,9621,10582,12280,1
0.0,0.0,0.0,17169,19099,9621,10582,12267,1
0.0,0.0,0.0,17152,19080,9599,10558,12241,1
0.0,0.0,0.0,17152,19080,9610,10582,12215,1
0.0,0.0,0.0,17152,19005,9610,10570,12163,1
0.0,0.0,0.0,17101,19005,9599,10582,12163,1
0.0,0.0,0.0,17101,18968,9621,10582,12163,1
0.0,0.0,0.0,17067,19005,9610,10582,12215,1
0.0,0.0,0.0,17084,19005,9621,10582,12215,1
0.0,0.0,0.0,17067,19005,9588,10617,12267,1
0.0,0.0,0.0,17050,19080,9621,10605,12293,1
0.0,0.0,0.0,17067,19080,9599,10617,12267,1
0.0,0.0,0.0,17152,19155,9599,10629,12267,1
0.0,0.0,0.0,17118,19155,9610,10605,12241,1
0.0,0.0,0.0,17084,19155,9599,10617,12228,1
0.0,0.0,0.0,17118,19155,9599,10605,12267,1
0.0,0.0,0.0,17101,19174,9621,10594,12267,1
0.0,0.0,0.0,17118,19174,9621,10617,12228,1
0.0,0.0,0.0,17152,19231,9610,10594,12215,1
0.0,0.0,0.0,17135,19193,9599,10629,12267,1
0.0,0.0,0.0,17152,19231,9621,10605,12254,1
0.0,0.0,0.0,17152,19249,9621,10605,12241,1
0.0,0.0,0.0,17152,19231,9621,10605,12241,1
0.0,0.0,0.0,17152,19193,9621,10594,12228,1
0.0,0.0,0.0,17152,19268,9621,10605,12241,1
0.0,0.0,0.0,17152,19231,9621,10605,12228,1
0.0,0.0,0.0,17152,19249,9621,10605,12267,1
0.0,0.0,0.0,17101,19231,9621,10605,12241,1
0.0,0.0,0.0,17152,19136,9599,10605,12267,1
0.0,0.0,0.0,17118,19268,9621,10594,12267,1
0.0,0.0,0.0,17152,19193,9621,10594,12267,1
0.0,0.0,0.0,17118,19249,9621,10605,12267,1
0.0,0.0,0.0,17152,19249,9621,10605,12267,1
0.0,0.0,0.0,17152,19306,9588,10594,12267,1
0.0,0.0,0.0,17169,19325,9621,10605,12293,1
0.0,0.0,0.0,17152,19325,9621,10594,12267,1
0.0,0.0,0.0,17152,19306,9621,10594,12293,1
0.0,0.0,0.0,17152,19363,9599,10629,12346,1
0.0,0.0,0.0,17186,19382,9621,10605,12346,1
0.0,0.0,0.0,17118,19306,9599,10617,12306,1
0.0,0.0,0.0,17152,19382,9621,10594,12320,1
0.0,0.0,0.0,17118,19401,9621,10629,12320,1
0.0,0.0,0.0,17152,19382,9621,10605,12346,1
0.0,0.0,0.0,17152,19382,9621,10629,12346,1
0.0,0.0,0.0,17135,19382,9610,10594,12372,1
0.0,0.0,0.0,17152,19306,9621,10605,12346,1
0.0,0.0,0.0,17152,19382,9621,10605,12385,1
0.0,0.0,0.0,17152,19382,9588,10594,12372,1
0.0,0.0,0.0,17169,19458,9599,10605,12372,1
0.0,0.0,0.0,17203,19420,9621,10605,12372,1
0.0,0.0,0.0,17186,19439,9621,10605,12398,1
0.0,0.0,0.0,17203,19401,9621,10605,12385,1
0.0,0.0,0.0,17237,19420,9621,10629,12424,1
0.0,0.0,0.0,17220,19382,9621,10594,12424,1
0.0,0.0,0.0,17203,19382,9621,10629,12398,1
0.0,0.0,0.0,17254,19420,9599,10605,12372,1
0.0,0.0,0.0,17220,19439,9599,10629,12398,1
0.0,0.0,0.0,17203,19401,9610,10605,12424,1
0.0,0.0,0.0,17237,19401,9599,10629,12385,1
0.0,0.0,0.0,17237,19401,9621,10605,12398,1
0.0,0.0,0.0,17186,19439,9599,10594,12424,1
0.0,0.0,0.0,17220,19420,9610,10617,12372,1
0.0,0.0,0.0,17220,19439,9599,10629,12424,1
0.0,0.0,0.0,17254,19401,9599,10629,12424,1
0.0,0.0,0.0,17220,19420,9632,10605,12424,1
0.0,0.0,0.0,17220,19382,9599,10629,12424,1
0.0,0.0,0.0,17186,19401,9621,10594,12372,1
0.0,0.0,0.0,17220,19382,9588,10594,12424,1
0.0,0.0,0.0,17220,19401,9621,10605,12424,1
0.0,0.0,0.0,17220,19420,9599,10605,12372,1
0.0,0.0,0.0,17254,19363,9621,10605,12438,1
0.0,0.0,0.0,17220,19344,9621,10605,12424,1
0.0,0.0,0.0,17220,19382,9621,10605,12424,1
0.0,0.0,0.0,17237,19382,9599,10605,12398,1
0.0,0.0,0.0,17237,19382,9599,10629,12372,1
0.0,0.0,0.0,17220,19382,9610,10629,12372,1
0.0,0.0,0.0,17186,19344,9621,10605,12424,1
0.0,0.0,0.0,17169,19344,9621,10617,12385,1
0.0,0.0,0.0,17220,19306,9599,10605,12398,1
0.0,0.0,0.0,17237,19325,9621,10605,12398,1
0.0,0.0,0.0,17203,19401,9599,10605,12411,1
0.0,0.0,0.0,17220,19344,9621,10594,12385,1
0.0,0.0,0.0,17186,19382,9599,10629,12424,1
0.0,0.0,0.0,17186,19325,9588,10594,12411,1
0.0,0.0,0.0,17220,19344,9621,10605,12398,1
0.0,0.0,0.0,17220,19344,9621,10605,12372,1
0.0,0.0,0.0,17220,19382,9621,10605,12411,1
0.0,0.0,0.0,17289,19363,9621,10629,12398,1
0.0,0.0,0.0,17254,19306,9621,10605,12385,1
0.0,0.0,0.0,17237,19306,9621,10605,12372,1
0.0,0.0,0.0,17220,19306,9599,10605,12398,1
0.0,0.0,0.0,17220,19325,9621,10605,12385,1
0.0,0.0,0.0,17254,19306,9621,10605,12398,1
0.0,0.0,0.0,17254,19306,9610,10605,12398,1
0.0,0.0,0.0,17220,19306,9588,10605,12424,1
0.0,0.0,0.0,17220,19344,9610,10605,12424,1
0.0,0.0,0.0,17237,19382,9621,10605,12411,1
0.0,0.0,0.0,17237,19382,9621,10629,12424,1
0.0,0.0,0.0,17220,19382,9621,10605,12424,1
0.0,0.0,0.0,17220,19344,9621,10605,12424,1
0.0,0.0,0.0,17203,19382,9599,10605,12398,1
0.0,0.0,0.0,17220,19382,9621,10594,12398,1
0.0,0.0,0.0,17237,19420,9599,10605,12424,1
0.0,0.0,0.0,17220,19401,9610,10629,12424,1
0.0,0.0,0.0,17220,19458,9621,10605,12398,1
0.0,0.0,0.0,17186,19458,9599,10617,12451,1
0.0,0.0,0.0,17237,19458,9599,10605,12424,1
0.0,0.0,0.0,17220,19497,9621,10605,12424,1
0.0,0.0,0.0,17220,19458,9610,10594,12451,1
0.0,0.0,0.0,17220,19458,9588,10594,12424,1
0.0,0.0,0.0,17220,19477,9599,10594,12438,1
0.0,0.0,0.0,17220,19458,9599,10629,12451,1
0.0,0.0,0.0,17186,19497,9599,10629,12438,1
0.0,0.0,0.0,17186,19458,9599,10605,12477,1
0.0,0.0,0.0,17186,19516,9610,10594,12424,1
0.0,0.0,0.0,17186,19535,9621,10605,12477,1
0.0,0.0,0.0,17186,19477,9599,10629,12477,1
0.0,0.0,0.0,17186,19497,9621,10594,12424,1
0.0,0.0,0.0,17186,19477,9588,10617,12451,1
0.0,0.0,0.0,17152,19458,9621,10605,12477,1
0.0,0.0,0.0,17186,19458,9621,10605,12477,1
0.0,0.0,0.0,17186,19535,9610,10594,12424,1
0.0,0.0,0.0,17152,19458,9599,10605,12477,1
0.0,0.0,0.0,17186,19458,9621,10594,12451,1
0.0,0.0,0.0,17152,19477,9621,10617,12451,1
0.0,0.0,0.0,17186,19458,9621,10605,12477,1
0.0,0.0,0.0,17186,19458,9599,10605,12451,1
0.0,0.0,0.0,17169,19477,9621,10617,12477,1
0.0,0.0,0.0,17220,19458,9621,10605,12504,1
0.0,0.0,0.0,17169,19458,9610,10605,12477,1
0.0,0.0,0.0,17152,19516,9621,10629,12504,1
0.0,0.0,0.0,17203,19497,9621,10629,12490,1
0.0,0.0,0.0,17203,19477,9621,10629,12530,1
0.0,0.0,0.0,17152,19497,9599,10629,12504,1
0.0,0.0,0.0,17169,19458,9621,10629,12543,1
0.0,0.0,0.0,17186,19497,9621,10629,12530,1
0.0,0.0,0.0,17169,19497,9643,10629,12556,1
0.0,0.0,0.0,17220,19458,9610,10629,12530,1
0.0,0.0,0.0,17220,19497,9621,10629,12556,1
0.0,0.0,0.0,17186,19477,9588,10605,12543,1
0.0,0.0,0.0,17220,19477,9599,10629,12570,1
0.0,0.0,0.0,17186,19458,9621,10629,12583,1
0.0,0.0,0.0,17203,19477,9599,10629,12530,1
0.0,0.0,0.0,17186,19535,9610,10629,12596,1
0.0,0.0,0.0,17203,19458,9610,10629,12543,1
0.0,0.0,0.0,17203,19497,9621,10629,12583,1
0.0,0.0,0.0,17220,19477,9621,10617,12583,1
0.0,0.0,0.0,17220,19497,9599,10629,12583,1
0.0,0.0,0.0,17186,19458,9610,10629,12570,1
0.0,0.0,0.0,17152,19458,9610,10629,12583,1
0.0,0.0,0.0,17152,19458,9621,10629,12583,1
0.0,0.0,0.0,17152,19458,9577,10629,12583,1
0.0,0.0,0.0,17186,19458,9621,10629,12583,1
0.0,0.0,0.0,17186,19439,9599,10629,12556,1
0.0,0.0,0.0,17186,19420,9599,10605,12556,1
0.0,0.0,0.0,17169,19458,9621,10629,12583,1
0.0,0.0,0.0,17152,19401,9621,10629,12556,1
0.0,0.0,0.0,17152,19401,9621,10629,12556,1
0.0,0.0,0.0,17152,19458,9621,10629,12583,1
0.0,0.0,0.0,17220,19420,9588,10629,12556,1
0.0,0.0,0.0,17152,19497,9621,10629,12543,1
0.0,0.0,0.0,17152,19458,9666,10629,12543,1
0.0,0.0,0.0,17186,19497,9621,10605,12556,1
0.0,0.0,0.0,17169,19573,9621,10629,12556,1
0.0,0.0,0.0,17101,19573,9610,10605,12583,1
0.0,0.0,0.0,17101,19554,9621,10605,12556,1
0.0,0.0,0.0,17118,19573,9621,10629,12530,1
0.0,0.0,0.0,17118,19573,9610,10617,12530,1
0.0,0.0,0.0,17152,19554,9621,10629,12583,1
0.0,0.0,0.0,17118,19573,9599,10629,12570,1
0.0,0.0,0.0,17118,19573,9599,10629,12596,1
0.0,0.0,0.0,17101,19554,9599,10629,12583,1
0.0,0.0,0.0,17118,19554,9621,10629,12583,1
0.0,0.0,0.0,17118,19535,9621,10629,12596,1
0.0,0.0,0.0,17118,19554,9588,10676,12570,1
0.0,0.0,0.0,17169,19516,9599,10629,12610,1
0.0,0.0,0.0,17152,19497,9621,10676,12583,1
0.0,0.0,0.0,17135,19535,9599,10629,12610,1
0.0,0.0,0.0,17135,19497,9621,10629,12636,1
0.0,0.0,0.0,17118,19516,9621,10629,12583,1
0.0,0.0,0.0,17118,19477,9610,10629,12596,1
0.0,0.0,0.0,17186,19458,9599,10629,12543,1
0.0,0.0,0.0,17169,19477,9621,10629,12583,1
0.0,0.0,0.0,17152,19497,9588,10629,12583,1
0.0,0.0,0.0,17152,19458,9621,10605,12583,1
0.0,0.0,0.0,17101,19458,9621,10617,12543,1
0.0,0.0,0.0,17118,19458,9621,10629,12583,1
0.0,0.0,0.0,17152,19439,9599,10605,12583,1
0.0,0.0,0.0,17152,19458,9599,10629,12556,1
0.0,0.0,0.0,17152,19458,9610,10617,12570,1
0.0,0.0,0.0,17101,19420,9621,10629,12583,1
0.0,0.0,0.0,17118,19420,9621,10629,12583,1
0.0,0.0,0.0,17152,19458,9621,10617,12596,1
0.0,0.0,0.0,17101,19439,9621,10629,12556,1
0.0,0.0,0.0,17152,19458,9621,10605,12583,1
0.0,0.0,0.0,17169,19477,9621,10629,12543,1
0.0,0.0,0.0,17118,19458,9610,10617,12583,1
0.0,0.0,0.0,17118,19458,9599,10605,12583,1
0.0,0.0,0.0,17118,19458,9621,10629,12583,1
0.0,0.0,0.0,17152,19439,9610,10546,12596,1
0.0,0.0,0.0,17152,19458,9621,10629,12610,1
0.0,0.0,0.0,17152,19420,9599,10629,12610,1
0.0,0.0,0.0,17152,19458,9621,10629,12583,1
0.0,0.0,0.0,17118,19477,9610,10653,12610,1
0.0,0.0,0.0,17118,19477,9599,10605,12596,1
0.0,0.0,0.0,17152,19458,9610,10629,12583,1
0.0,0.0,0.0,17152,19382,9610,10605,12583,1
0.0,0.0,0.0,17118,19401,9621,10629,12610,1
0.0,0.0,0.0,17118,19420,9599,10605,12583,1
0.0,0.0,0.0,17152,19458,9599,10629,12583,1
