GyroX,GyroY,GyroZ,Thumb,Index,Middle,Ring,Pinky,Gesture
0.0,0.0,0.0,12783,10558,35345,49104,47034,2
0.0,0.0,0.0,12783,10558,35418,49104,47034,2
0.0,0.0,0.0,12797,10546,35418,49104,46928,2
0.0,0.0,0.0,12797,10582,35345,48992,46928,2
0.0,0.0,0.0,12783,10582,35345,48992,46928,2
0.0,0.0,0.0,12797,10582,35272,48992,46876,2
0.0,0.0,0.0,12770,10558,35199,48992,46666,2
0.0,0.0,0.0,12797,10582,35272,48992,46928,2
0.0,0.0,0.0,12797,10558,35199,48881,46928,2
0.0,0.0,0.0,12797,10582,35199,48769,46928,2
0.0,0.0,0.0,12797,10582,35127,48881,46823,2
0.0,0.0,0.0,12770,10582,35091,48658,46823,2
0.0,0.0,0.0,12824,10594,34910,48548,46876,2
0.0,0.0,0.0,13013,10629,34874,48548,46718,2
0.0,0.0,0.0,13095,10676,34874,48327,46613,2
0.0,0.0,0.0,13232,10736,34767,48437,46718,2
0.0,0.0,0.0,13287,10748,34803,48437,46613,2
0.0,0.0,0.0,13232,10783,34696,48437,46509,2
0.0,0.0,0.0,13232,10795,34731,48327,46405,2
0.0,0.0,0.0,13260,10783,34731,48273,46457,2
0.0,0.0,0.0,13232,10819,34731,48108,46509,2
0.0,0.0,0.0,13205,10819,34731,48163,46301,2
0.0,0.0,0.0,13232,10819,34696,48108,46457,2
0.0,0.0,0.0,13218,10807,34696,48108,46405,2
0.0,0.0,0.0,13205,10819,34660,48054,46405,2
0.0,0.0,0.0,13136,10748,34553,48108,46405,2
0.0,0.0,0.0,13136,10795,34589,48054,46353,2
0.0,0.0,0.0,13095,10795,34553,48054,46405,2
0.0,0.0,0.0,13122,10819,34624,48000,46301,2
0.0,0.0,0.0,13095,10783,34553,48054,46198,2
0.0,0.0,0.0,13095,10771,34482,47945,46198,2
0.0,0.0,0.0,13068,10795,34553,47945,46249,2
0.0,0.0,0.0,13068,10795,34518,47945,45992,2
0.0,0.0,0.0,13040,10819,34553,47945,46095,2
0.0,0.0,0.0,13068,10783,34482,48000,46198,2
0.0,0.0,0.0,13013,10819,34553,47891,46095,2
0.0,0.0,0.0,13013,10795,34447,47891,45992,2
0.0,0.0,0.0,13040,10795,34482,47891,46198,2
0.0,0.0,0.0,13013,10819,34447,47945,45992,2
0.0,0.0,0.0,12972,10819,34447,47783,45992,2
0.0,0.0,0.0,12972,10819,34447,47783,46198,2
0.0,0.0,0.0,13040,10795,34447,47783,46043,2
0.0,0.0,0.0,12972,10819,34412,47783,45992,2
0.0,0.0,0.0,13013,10819,34341,47783,45838,2
0.0,0.0,0.0,13027,10819,34376,47783,45992,2
0.0,0.0,0.0,13013,10795,34341,47837,45889,2
0.0,0.0,0.0,12972,10819,34341,47729,45889,2
0.0,0.0,0.0,13013,10795,34341,47783,45992,2
0.0,0.0,0.0,12972,10807,34412,47675,45889,2
0.0,0.0,0.0,13013,10819,34412,47621,45838,2
0.0,0.0,0.0,12999,10831,34341,47567,45889,2
0.0,0.0,0.0,12932,10819,34341,47675,45941,2
0.0,0.0,0.0,12959,10819,34306,47513,45838,2
0.0,0.0,0.0,12972,10819,34271,47675,45685,2
0.0,0.0,0.0,12959,10819,34271,47460,45685,2
0.0,0.0,0.0,12972,10819,34341,47513,45736,2
0.0,0.0,0.0,12959,10819,34271,47513,45685,2
0.0,0.0,0.0,12959,10819,34200,47513,45736,2
0.0,0.0,0.0,12959,10831,34165,47460,45736,2
0.0,0.0,0.0,12932,10843,34165,47406,45635,2
0.0,0.0,0.0,12959,10831,34200,47299,45685,2
0.0,0.0,0.0,12972,10831,34060,47353,45533,2
0.0,0.0,0.0,12972,10843,34060,47246,45584,2
0.0,0.0,0.0,12972,10867,34060,47246,45382,2
0.0,0.0,0.0,13122,10843,33887,47140,45533,2
0.0,0.0,0.0,13136,10867,33852,47087,45483,2
0.0,0.0,0.0,13122,10843,33714,47140,45281,2
0.0,0.0,0.0,13205,10915,33748,46981,45432,2
0.0,0.0,0.0,13287,11060,33714,47246,45432,2
0.0,0.0,0.0,13315,11157,33748,47193,45483,2
0.0,0.0,0.0,13274,11157,33576,47299,45685,2
0.0,0.0,0.0,13246,11133,33202,47299,45787,2
0.0,0.0,0.0,13122,11109,33100,47246,45838,2
0.0,0.0,0.0,13040,11157,33100,47513,45787,2
0.0,0.0,0.0,13027,11182,33033,47246,45838,2
0.0,0.0,0.0,13068,11206,33337,47729,46043,2
0.0,0.0,0.0,13068,11317,33576,48437,46301,2
0.0,0.0,0.0,13040,11503,34341,49330,46509,2
0.0,0.0,0.0,13081,11932,35418,50477,46613,2
0.0,0.0,0.0,13068,12267,35824,51184,46613,2
0.0,0.0,0.0,13027,12424,35935,51422,46353,2
0.0,0.0,0.0,13013,12636,36160,51602,46405,2
0.0,0.0,0.0,13040,12864,36348,51844,46509,2
0.0,0.0,0.0,13068,12837,36310,52026,46249,2
0.0,0.0,0.0,13068,12851,36310,51783,45992,2
0.0,0.0,0.0,13081,12878,36386,51844,45787,2
0.0,0.0,0.0,13191,12851,36424,51602,45584,2
0.0,0.0,0.0,13287,12783,36348,51663,45382,2
0.0,0.0,0.0,13412,12451,36614,51542,45331,2
0.0,0.0,0.0,13566,12163,36882,51542,44931,2
0.0,0.0,0.0,13636,11855,36767,51422,44585,2
0.0,0.0,0.0,13749,11603,36767,51303,44193,2
0.0,0.0,0.0,13821,11379,36843,51006,43807,2
0.0,0.0,0.0,13849,11243,36843,50594,43519,2
0.0,0.0,0.0,13863,11084,36920,50245,43329,2
0.0,0.0,0.0,13849,10867,36882,49499,42859,2
0.0,0.0,0.0,13835,10700,36805,48992,42349,2
0.0,0.0,0.0,13835,10441,36728,48658,42166,2
0.0,0.0,0.0,13764,10267,36998,48000,41848,2
0.0,0.0,0.0,13650,10209,36920,47513,41667,2
0.0,0.0,0.0,13552,10163,36843,47299,41443,2
0.0,0.0,0.0,13454,10117,36805,47034,41309,2
0.0,0.0,0.0,13343,10117,36690,46823,41132,2
0.0,0.0,0.0,13398,10117,36614,46718,41132,2
0.0,0.0,0.0,13315,10117,36462,46353,41088,2
0.0,0.0,0.0,13287,10117,36235,46301,40780,2
0.0,0.0,0.0,13315,10140,36160,46198,40216,2
0.0,0.0,0.0,13343,10129,35898,45838,39917,2
0.0,0.0,0.0,13454,10232,35861,45635,40173,2
0.0,0.0,0.0,13622,10278,35935,46043,40088,2
0.0,0.0,0.0,13594,10371,36160,46613,40088,2
0.0,0.0,0.0,13538,10499,36160,46718,39832,2
0.0,0.0,0.0,13580,10843,36047,46770,39244,2
0.0,0.0,0.0,13665,11036,35861,46718,39160,2
0.0,0.0,0.0,13287,11157,35565,46509,38912,2
0.0,0.0,0.0,13081,11231,35382,46718,38666,2
0.0,0.0,0.0,13013,11255,35345,46666,38830,2
0.0,0.0,0.0,13013,11366,35272,46823,38666,2
0.0,0.0,0.0,12905,11403,35055,46353,38503,2
0.0,0.0,0.0,12783,11366,35418,46249,38585,2
0.0,0.0,0.0,12905,11304,35712,45992,38341,2
0.0,0.0,0.0,13136,11255,35787,45685,38260,2
0.0,0.0,0.0,13510,11145,35565,45584,38019,2
0.0,0.0,0.0,13992,11060,35418,45231,38100,2
0.0,0.0,0.0,14861,11060,35455,44981,38707,2
0.0,0.0,0.0,15678,11036,35418,44981,38748,2
0.0,0.0,0.0,16254,11024,35492,44881,38503,2
0.0,0.0,0.0,16483,11072,35492,44782,38260,2
0.0,0.0,0.0,15852,11157,35935,45231,38100,2
0.0,0.0,0.0,14681,11255,36462,45685,38382,2
0.0,0.0,0.0,13764,11219,36690,45787,38260,2
0.0,0.0,0.0,13566,11206,36499,45533,38019,2
0.0,0.0,0.0,13398,11182,36462,45382,38260,2
0.0,0.0,0.0,13371,11219,36462,45382,38341,2
0.0,0.0,0.0,13343,11255,36235,44981,38019,2
0.0,0.0,0.0,13329,11255,36235,44881,37860,2
0.0,0.0,0.0,13301,11255,36235,44782,37860,2
0.0,0.0,0.0,13246,11255,36386,44634,38100,2
0.0,0.0,0.0,13205,11219,36310,44733,38585,2
0.0,0.0,0.0,13177,11157,35787,44585,38789,2
0.0,0.0,0.0,13122,11084,35272,44536,38585,2
0.0,0.0,0.0,13150,11060,35055,44000,38585,2
0.0,0.0,0.0,13122,10915,34271,43424,38503,2
0.0,0.0,0.0,13109,10903,34165,43046,38789,2
0.0,0.0,0.0,13040,10819,33714,42442,39036,2
0.0,0.0,0.0,12972,10807,33439,42120,39160,2
0.0,0.0,0.0,12945,10795,33371,41984,39285,2
0.0,0.0,0.0,12945,10807,33236,41848,39244,2
0.0,0.0,0.0,12959,10783,32966,41577,39244,2
0.0,0.0,0.0,12959,10807,32799,41309,39285,2
0.0,0.0,0.0,12959,10819,32699,41309,39244,2
0.0,0.0,0.0,12959,10795,32566,41265,39244,2
0.0,0.0,0.0,12959,10795,32533,41221,39244,2
0.0,0.0,0.0,12972,10819,32566,41221,39244,2
0.0,0.0,0.0,12972,10819,32500,41265,39327,2
0.0,0.0,0.0,13013,10819,32566,41399,39244,2
0.0,0.0,0.0,12959,10819,32533,41399,39411,2
0.0,0.0,0.0,13013,10843,32666,41757,39705,2
0.0,0.0,0.0,13068,10999,33303,43235,40736,2
0.0,0.0,0.0,13081,11109,33576,44585,41221,2
0.0,0.0,0.0,13122,11280,34482,46249,41622,2
0.0,0.0,0.0,13150,11453,34982,47513,43046,2
0.0,0.0,0.0,13150,11615,35199,48108,43093,2
0.0,0.0,0.0,13122,11817,35639,48437,43093,2
0.0,0.0,0.0,13095,12073,35639,48881,43140,2
0.0,0.0,0.0,13191,12280,35749,49048,42766,2
0.0,0.0,0.0,13122,12372,35712,49217,42488,2
0.0,0.0,0.0,13054,12477,35602,48769,42120,2
0.0,0.0,0.0,13027,12504,35565,48437,41712,2
0.0,0.0,0.0,12905,12477,35455,48000,41132,2
0.0,0.0,0.0,12690,12451,35055,47675,40780,2
0.0,0.0,0.0,12254,12530,34982,47193,39960,2
0.0,0.0,0.0,12021,12636,34839,46876,39578,2
0.0,0.0,0.0,12009,12663,34624,46509,39244,2
0.0,0.0,0.0,12112,12663,34482,46146,39077,2
0.0,0.0,0.0,12530,12490,34482,46198,39160,2
0.0,0.0,0.0,12690,12163,34412,46043,38995,2
0.0,0.0,0.0,12905,11553,34412,45838,38830,2
0.0,0.0,0.0,13343,11182,34482,45635,38666,2
0.0,0.0,0.0,13412,10987,34341,45432,38463,2
0.0,0.0,0.0,13468,10831,34412,45081,38544,2
0.0,0.0,0.0,13622,10641,34341,45081,38260,2
0.0,0.0,0.0,13749,10406,34341,44683,38100,2
0.0,0.0,0.0,13679,10255,34271,44242,38748,2
0.0,0.0,0.0,13566,10174,34130,44048,38666,2
0.0,0.0,0.0,13510,10163,34130,43759,38544,2
0.0,0.0,0.0,13468,10094,34060,43663,38422,2
0.0,0.0,0.0,13357,10094,34060,43377,38382,2
0.0,0.0,0.0,13163,10094,33991,43235,38180,2
0.0,0.0,0.0,12918,10071,33852,43093,38341,2
0.0,0.0,0.0,12703,10083,33714,43046,38180,2
0.0,0.0,0.0,12756,10117,33474,43046,38019,2
0.0,0.0,0.0,13027,10117,33371,42859,38100,2
0.0,0.0,0.0,13027,10129,33236,42859,37940,2
0.0,0.0,0.0,13232,10117,33100,42859,37781,2
0.0,0.0,0.0,13343,10129,33303,42859,37701,2
0.0,0.0,0.0,13849,10129,33371,42673,37701,2
0.0,0.0,0.0,13863,10117,34060,42766,37504,2
0.0,0.0,0.0,13992,10106,34271,42766,37465,2
0.0,0.0,0.0,14021,10083,34306,42626,37308,2
0.0,0.0,0.0,13935,10117,34165,42580,37308,2
0.0,0.0,0.0,13849,10117,34165,42534,37386,2
0.0,0.0,0.0,13749,10129,34060,42580,37347,2
0.0,0.0,0.0,13679,10163,33991,42673,37308,2
0.0,0.0,0.0,13622,10163,33852,42626,37308,2
0.0,0.0,0.0,13566,10163,33748,42395,37426,2
0.0,0.0,0.0,13398,10186,33303,41984,37269,2
0.0,0.0,0.0,13510,10163,32533,41488,37386,2
0.0,0.0,0.0,13707,10163,31624,41265,37583,2
0.0,0.0,0.0,13935,10163,30715,40780,38180,2
0.0,0.0,0.0,13964,10163,30105,40045,38463,2
0.0,0.0,0.0,13921,10163,29805,39832,38422,2
0.0,0.0,0.0,13935,10163,29538,39663,38260,2
0.0,0.0,0.0,13978,10186,29391,39536,38140,2
0.0,0.0,0.0,13935,10209,29274,39411,38180,2
0.0,0.0,0.0,13863,10232,29304,39369,38180,2
0.0,0.0,0.0,13921,10232,29274,39244,38100,2
0.0,0.0,0.0,13849,10232,29245,39244,38100,2
0.0,0.0,0.0,13849,10232,29216,39244,38301,2
0.0,0.0,0.0,13863,10255,29158,39244,38180,2
0.0,0.0,0.0,13935,10255,29100,39077,38180,2
0.0,0.0,0.0,13921,10255,29158,39036,38140,2
0.0,0.0,0.0,13906,10255,29100,39036,38140,2
0.0,0.0,0.0,13849,10301,29071,38995,38180,2
0.0,0.0,0.0,13849,10301,29100,39077,38059,2
0.0,0.0,0.0,13849,10313,29100,39077,38100,2
0.0,0.0,0.0,13849,10348,29042,38912,38180,2
0.0,0.0,0.0,13821,10348,29042,38995,38180,2
0.0,0.0,0.0,13821,10371,29071,39036,38059,2
0.0,0.0,0.0,13806,10371,29042,39077,38100,2
0.0,0.0,0.0,13835,10394,29042,39077,38019,2
0.0,0.0,0.0,13835,10394,29100,38995,38100,2
0.0,0.0,0.0,13849,10394,29100,38995,38059,2
0.0,0.0,0.0,13849,10394,29071,39036,38059,2
0.0,0.0,0.0,13821,10406,29042,39202,38019,2
0.0,0.0,0.0,13849,10394,29071,38912,37940,2
0.0,0.0,0.0,13821,10418,29042,38953,38019,2
0.0,0.0,0.0,13849,10418,29042,38953,38019,2
0.0,0.0,0.0,13806,10418,29042,39119,37860,2
0.0,0.0,0.0,13806,10418,28984,38953,37940,2
0.0,0.0,0.0,13792,10441,28955,38912,37940,2
0.0,0.0,0.0,13792,10418,29042,39036,37860,2
0.0,0.0,0.0,13792,10441,28955,38871,37900,2
0.0,0.0,0.0,13849,10441,28984,38953,37940,2
0.0,0.0,0.0,13806,10441,28927,38995,37860,2
0.0,0.0,0.0,13835,10441,28984,38995,37900,2
0.0,0.0,0.0,13806,10464,28984,38953,37900,2
0.0,0.0,0.0,13792,10441,28984,38995,37860,2
0.0,0.0,0.0,13792,10488,28955,38912,37820,2
0.0,0.0,0.0,13849,10464,28955,38995,37940,2
0.0,0.0,0.0,13792,10464,28955,38953,37860,2
0.0,0.0,0.0,13778,10464,29042,38871,37860,2
0.0,0.0,0.0,13792,10453,28984,38953,37820,2
0.0,0.0,0.0,13792,10488,28955,38953,37940,2
0.0,0.0,0.0,13749,10464,28955,38871,37781,2
0.0,0.0,0.0,13792,10476,28927,38995,37781,2
0.0,0.0,0.0,13764,10453,28955,38912,37860,2
0.0,0.0,0.0,13764,10464,28840,38912,37860,2
0.0,0.0,0.0,13792,10488,28927,38871,37741,2
0.0,0.0,0.0,13792,10476,28927,38953,37860,2
0.0,0.0,0.0,13792,10488,28984,38953,37701,2
0.0,0.0,0.0,13792,10464,28927,38871,37701,2
0.0,0.0,0.0,13764,10464,28955,38912,37781,2
0.0,0.0,0.0,13806,10488,28898,38748,37860,2
0.0,0.0,0.0,13821,10488,28898,38830,37741,2
0.0,0.0,0.0,13806,10488,28927,38871,37701,2
0.0,0.0,0.0,13792,10488,28927,38830,37701,2
0.0,0.0,0.0,13821,10488,28898,38830,37781,2
0.0,0.0,0.0,13935,10488,28812,38666,37701,2
0.0,0.0,0.0,14326,10488,28583,38707,37820,2
0.0,0.0,0.0,14399,10511,28301,38422,38019,2
0.0,0.0,0.0,14268,10511,28245,38260,38220,2
0.0,0.0,0.0,14036,10511,28077,38180,38180,2
0.0,0.0,0.0,14021,10511,28022,38140,38301,2
0.0,0.0,0.0,13949,10535,28105,38100,38382,2
0.0,0.0,0.0,13863,10570,28161,38100,38341,2
0.0,0.0,0.0,13906,10546,28133,38180,38341,2
0.0,0.0,0.0,13992,10546,28161,38100,38341,2
0.0,0.0,0.0,14137,10546,28161,38140,38220,2
0.0,0.0,0.0,14195,10546,28133,38059,38180,2
0.0,0.0,0.0,14195,10546,28189,38100,38140,2
0.0,0.0,0.0,14209,10546,28301,38180,38100,2
0.0,0.0,0.0,14253,10582,28217,38059,38100,2
0.0,0.0,0.0,14282,10582,28357,38260,38019,2
0.0,0.0,0.0,14444,10488,28301,38180,38140,2
0.0,0.0,0.0,14488,10348,28414,38260,38059,2
0.0,0.0,0.0,14503,10117,28189,37820,37860,2
0.0,0.0,0.0,14341,10049,28301,37701,37781,2
0.0,0.0,0.0,14079,10026,28357,37701,37701,2
0.0,0.0,0.0,13906,10026,28357,37543,37701,2
0.0,0.0,0.0,13849,10026,28385,37701,37781,2
0.0,0.0,0.0,13792,10026,28301,37622,37741,2
0.0,0.0,0.0,13749,10026,28329,37543,37583,2
0.0,0.0,0.0,13749,10037,28329,37386,37543,2
0.0,0.0,0.0,13707,10071,28357,37543,37543,2
0.0,0.0,0.0,13679,10117,28301,37504,37504,2
0.0,0.0,0.0,13622,10094,28301,37465,37504,2
0.0,0.0,0.0,13538,10117,28329,37465,37543,2
0.0,0.0,0.0,13454,10140,28498,37662,37583,2
0.0,0.0,0.0,13398,10163,28498,37662,37543,2
0.0,0.0,0.0,13301,10278,28612,37860,37701,2
0.0,0.0,0.0,13315,10488,28697,37980,37781,2
0.0,0.0,0.0,13398,10831,28869,38503,37820,2
0.0,0.0,0.0,13398,11109,28955,38585,37940,2
0.0,0.0,0.0,13426,11060,28955,38463,37900,2
0.0,0.0,0.0,13398,10819,28927,38503,37900,2
0.0,0.0,0.0,13412,10712,28927,38585,37860,2
0.0,0.0,0.0,13412,10594,28869,38503,37622,2
0.0,0.0,0.0,13622,10629,28697,38422,37662,2
0.0,0.0,0.0,13849,10676,28783,38422,37741,2
0.0,0.0,0.0,13608,10771,28812,38422,37701,2
0.0,0.0,0.0,13552,11072,29158,38748,38180,2
0.0,0.0,0.0,14922,11678,30622,40780,38871,2
0.0,0.0,0.0,16303,11779,31087,41938,39578,2
0.0,0.0,0.0,15631,11830,31593,42442,40002,2
0.0,0.0,0.0,14726,11817,31978,43093,40346,2
0.0,0.0,0.0,14429,11716,32108,43188,40173,2
0.0,0.0,0.0,14282,11603,32173,43424,40173,2
0.0,0.0,0.0,14166,11503,32140,43615,39874,2
0.0,0.0,0.0,14021,11453,32369,44000,39244,2
0.0,0.0,0.0,13935,11416,32500,44193,38830,2
0.0,0.0,0.0,13764,11428,32765,44487,38830,2
0.0,0.0,0.0,13679,11553,33371,45992,40088,2
0.0,0.0,0.0,13454,11553,33542,46353,40562,2
0.0,0.0,0.0,13343,11515,33611,46405,40693,2
0.0,0.0,0.0,13343,11528,33921,46666,40605,2
0.0,0.0,0.0,13524,11615,33439,47246,40346,2
0.0,0.0,0.0,13496,11553,32732,46405,39832,2
0.0,0.0,0.0,13538,11565,32303,45584,39536,2
0.0,0.0,0.0,13622,11515,32043,44487,39160,2
0.0,0.0,0.0,13964,11528,31465,43759,39494,2
0.0,0.0,0.0,14444,11528,30776,43282,39663,2
0.0,0.0,0.0,14311,11565,30469,43046,39790,2
0.0,0.0,0.0,14370,11603,30226,42766,40002,2
0.0,0.0,0.0,14399,11653,30256,42488,40173,2
0.0,0.0,0.0,14741,11716,30226,42349,40346,2
0.0,0.0,0.0,15304,11766,30256,42304,40389,2
0.0,0.0,0.0,15868,11678,30256,42212,40389,2
0.0,0.0,0.0,16028,11528,30226,42029,40045,2
0.0,0.0,0.0,16125,11403,30165,41848,39747,2
0.0,0.0,0.0,16157,11403,30105,41577,39663,2
0.0,0.0,0.0,15964,11403,30075,41667,39578,2
0.0,0.0,0.0,15584,11366,30165,41622,39663,2
0.0,0.0,0.0,15459,11403,30317,41757,39536,2
0.0,0.0,0.0,15335,11366,30347,41848,39578,2
0.0,0.0,0.0,15335,11379,30347,41757,39452,2
0.0,0.0,0.0,15412,11366,30347,41893,39494,2
0.0,0.0,0.0,15584,11379,30469,42075,39536,2
0.0,0.0,0.0,15964,11403,30499,42212,39832,2
0.0,0.0,0.0,16287,11453,30591,42395,39832,2
0.0,0.0,0.0,16434,11453,30653,42673,39917,2
0.0,0.0,0.0,16483,11403,30715,42673,39832,2
0.0,0.0,0.0,16549,11428,30653,42488,39747,2
0.0,0.0,0.0,16715,11416,30530,42304,39874,2
0.0,0.0,0.0,16831,11503,30530,42349,39536,2
0.0,0.0,0.0,17495,11603,30469,42304,39285,2
0.0,0.0,0.0,17722,11615,30499,42395,39244,2
0.0,0.0,0.0,17845,11578,30715,42304,39244,2
0.0,0.0,0.0,17357,11503,31434,42534,38912,2
0.0,0.0,0.0,17220,11453,31276,42395,38666,2
0.0,0.0,0.0,17495,11503,30869,42029,38707,2
0.0,0.0,0.0,17933,11578,30591,41938,38503,2
0.0,0.0,0.0,18272,11665,30469,41893,38544,2
0.0,0.0,0.0,18562,11754,30469,41757,38341,2
0.0,0.0,0.0,18783,11754,30530,41712,38422,2
0.0,0.0,0.0,18783,11703,30530,41712,38503,2
0.0,0.0,0.0,18672,11653,30591,41533,38544,2
0.0,0.0,0.0,18508,11540,30530,41577,38503,2
0.0,0.0,0.0,18344,11403,30561,41577,38585,2
0.0,0.0,0.0,18200,11317,30530,41488,38503,2
0.0,0.0,0.0,17915,11109,30591,41488,38341,2
0.0,0.0,0.0,17634,10819,30684,41354,38180,2
0.0,0.0,0.0,17237,10546,30900,41221,37860,2
0.0,0.0,0.0,16882,10429,30962,40868,37701,2
0.0,0.0,0.0,16615,10348,30994,40693,37701,2
0.0,0.0,0.0,16549,10301,30962,40693,37386,2
0.0,0.0,0.0,16450,10301,30869,40346,37347,2
0.0,0.0,0.0,16483,10313,30776,40259,37386,2
0.0,0.0,0.0,16450,10348,30745,40346,37269,2
0.0,0.0,0.0,16483,10406,30745,40346,37230,2
0.0,0.0,0.0,16516,10441,30776,40432,37152,2
0.0,0.0,0.0,16549,10464,30715,40432,37152,2
0.0,0.0,0.0,16549,10488,30715,40346,37152,2
0.0,0.0,0.0,16549,10476,30684,40432,37230,2
0.0,0.0,0.0,16582,10488,30776,40432,37152,2
0.0,0.0,0.0,16632,10535,30838,40346,37152,2
0.0,0.0,0.0,16665,10582,30838,40259,37308,2
0.0,0.0,0.0,16615,10617,30962,40346,37308,2
0.0,0.0,0.0,16516,10700,30900,40389,37386,2
0.0,0.0,0.0,16434,10700,30838,40346,37386,2
0.0,0.0,0.0,16368,10724,30994,40432,37308,2
0.0,0.0,0.0,16303,10748,30994,40432,37465,2
0.0,0.0,0.0,16287,10724,30962,40432,37347,2
0.0,0.0,0.0,16271,10748,30900,40389,37308,2
0.0,0.0,0.0,16222,10748,31087,40475,37308,2
0.0,0.0,0.0,16173,10783,31025,40432,37386,2
0.0,0.0,0.0,16222,10783,30994,40519,37308,2
0.0,0.0,0.0,16157,10783,30962,40519,37308,2
0.0,0.0,0.0,16189,10783,30962,40519,37347,2
0.0,0.0,0.0,16222,10736,30900,40432,37230,2
0.0,0.0,0.0,16352,10783,30994,40432,37152,2
0.0,0.0,0.0,16303,10819,30962,40389,37075,2
0.0,0.0,0.0,16352,10819,30962,40389,37036,2
0.0,0.0,0.0,16287,10748,30869,40259,37075,2
0.0,0.0,0.0,16254,10664,31119,40519,37075,2
0.0,0.0,0.0,16157,10558,31150,40519,37308,2
0.0,0.0,0.0,16060,10488,31025,40693,37386,2
0.0,0.0,0.0,15884,10453,30962,40519,37386,2
0.0,0.0,0.0,15726,10394,30900,40475,37386,2
0.0,0.0,0.0,15521,10371,30838,40519,37075,2
0.0,0.0,0.0,15412,10348,30869,40475,37114,2
0.0,0.0,0.0,15089,10325,31119,40432,36920,2
0.0,0.0,0.0,14876,10371,31370,40302,36805,2
0.0,0.0,0.0,14801,10313,31307,40088,36805,2
0.0,0.0,0.0,14741,10313,31339,40088,36690,2
0.0,0.0,0.0,14786,10418,31213,40002,36690,2
0.0,0.0,0.0,14846,10831,31339,40045,36690,2
0.0,0.0,0.0,15028,11109,31465,40389,36728,2
0.0,0.0,0.0,15242,11503,31529,40605,36767,2
0.0,0.0,0.0,15273,11716,31624,40780,36805,2
0.0,0.0,0.0,15165,11354,31720,40693,36767,2
0.0,0.0,0.0,14907,10724,31817,40693,36767,2
0.0,0.0,0.0,14636,10499,31720,40389,36538,2
0.0,0.0,0.0,14636,10605,31593,40173,36728,2
0.0,0.0,0.0,14801,11072,31593,40389,36690,2
0.0,0.0,0.0,15028,11268,31561,40432,36728,2
0.0,0.0,0.0,15242,11354,31593,40605,36728,2
0.0,0.0,0.0,15553,11603,31497,40605,36767,2
0.0,0.0,0.0,15726,11932,31720,41088,36690,2
0.0,0.0,0.0,15773,11983,31849,41176,36767,2
0.0,0.0,0.0,15741,11754,31817,41221,36614,2
0.0,0.0,0.0,15678,11615,31593,41088,36652,2
0.0,0.0,0.0,15710,11416,31465,41088,36614,2
0.0,0.0,0.0,15710,11403,31465,41044,36614,2
0.0,0.0,0.0,15663,11366,31465,40955,36576,2
0.0,0.0,0.0,15647,11317,31402,40912,36310,2
0.0,0.0,0.0,15584,11206,31307,40868,36348,2
0.0,0.0,0.0,15521,10915,31339,40868,36499,2
0.0,0.0,0.0,15521,10558,31150,40736,36462,2
0.0,0.0,0.0,15521,10394,31150,40432,36538,2
0.0,0.0,0.0,15490,10348,31150,40302,36614,2
0.0,0.0,0.0,15521,10325,31056,40302,36690,2
0.0,0.0,0.0,15459,10313,31119,40259,36576,2
0.0,0.0,0.0,15428,10301,31087,40131,36690,2
0.0,0.0,0.0,15273,10255,30962,40173,36614,2
0.0,0.0,0.0,15028,10174,30994,40002,36386,2
0.0,0.0,0.0,14696,10140,31307,39832,36462,2
0.0,0.0,0.0,14282,10267,31529,39874,36235,2
0.0,0.0,0.0,14151,10371,31785,39832,36160,2
0.0,0.0,0.0,14108,10371,31785,39874,36197,2
0.0,0.0,0.0,14064,10301,31849,39832,36085,2
0.0,0.0,0.0,13964,10278,31752,39832,35898,2
0.0,0.0,0.0,14050,10255,31688,39832,35935,2
0.0,0.0,0.0,14007,10209,31593,39705,36010,2
0.0,0.0,0.0,13992,10209,31593,39705,36010,2
0.0,0.0,0.0,14036,10129,31593,39494,36010,2
0.0,0.0,0.0,14137,10071,31529,39327,36310,2
0.0,0.0,0.0,14209,10083,31339,39244,36348,2
0.0,0.0,0.0,14311,10129,31181,39327,36310,2
0.0,0.0,0.0,14547,10174,31025,39411,36310,2
0.0,0.0,0.0,14488,10209,31025,39663,36348,2
0.0,0.0,0.0,14801,10267,30931,39663,36767,2
0.0,0.0,0.0,15366,10359,30653,39578,36767,2
0.0,0.0,0.0,15242,10464,30469,39536,36767,2
0.0,0.0,0.0,15028,10629,30561,39832,36843,2
0.0,0.0,0.0,14607,10963,30962,40693,37465,2
0.0,0.0,0.0,13792,10987,31025,41221,37386,2
0.0,0.0,0.0,12905,10975,30838,41221,36920,2
0.0,0.0,0.0,12756,11084,30715,40868,36310,2
0.0,0.0,0.0,12864,11157,30653,40780,35565,2
0.0,0.0,0.0,12851,11157,30745,40780,35749,2
0.0,0.0,0.0,12398,11157,30869,41132,35861,2
0.0,0.0,0.0,12320,11109,31087,41399,36122,2
0.0,0.0,0.0,12346,11060,31370,41757,35712,2
0.0,0.0,0.0,12320,11072,31720,42166,35787,2
0.0,0.0,0.0,12280,11060,31978,42580,36160,2
0.0,0.0,0.0,12215,11060,32303,43188,36386,2
0.0,0.0,0.0,12320,11084,32566,43615,36538,2
0.0,0.0,0.0,12372,11036,32533,43807,36538,2
0.0,0.0,0.0,12398,11024,32666,43807,37465,2
0.0,0.0,0.0,12372,10927,32832,43903,37036,2
0.0,0.0,0.0,12346,10771,32832,43711,37230,2
0.0,0.0,0.0,12320,10641,32966,43377,37386,2
0.0,0.0,0.0,12320,10558,33134,43046,37386,2
0.0,0.0,0.0,12372,10488,33576,42120,37741,2
0.0,0.0,0.0,12438,10453,33371,41309,37701,2
0.0,0.0,0.0,12398,10418,33168,40824,37583,2
0.0,0.0,0.0,12372,10441,33067,40605,37465,2
0.0,0.0,0.0,12451,10406,32732,40259,37114,2
0.0,0.0,0.0,12530,10418,32533,39874,36614,2
0.0,0.0,0.0,12716,10394,32402,39917,36235,2
0.0,0.0,0.0,12824,10394,32369,39536,35824,2
0.0,0.0,0.0,12851,10325,32140,39077,35272,2
0.0,0.0,0.0,12851,10301,31785,38830,35127,2
0.0,0.0,0.0,12851,10267,31529,38260,34839,2
0.0,0.0,0.0,12851,10267,31339,37781,34412,2
0.0,0.0,0.0,12797,10336,31150,37386,34130,2
0.0,0.0,0.0,12743,10418,30994,36920,33921,2
0.0,0.0,0.0,12636,10348,30838,36805,33714,2
0.0,0.0,0.0,12583,10394,30715,36728,33611,2
0.0,0.0,0.0,12543,10255,30469,36538,33439,2
0.0,0.0,0.0,12490,10267,30256,36462,33439,2
0.0,0.0,0.0,12451,10267,30286,36348,33371,2
0.0,0.0,0.0,12385,10255,30286,36160,33236,2
0.0,0.0,0.0,12346,10255,30469,36386,33168,2
0.0,0.0,0.0,12346,10255,30408,36462,33236,2
0.0,0.0,0.0,12320,10209,30256,36272,33236,2
0.0,0.0,0.0,12320,10106,30165,36010,33168,2
0.0,0.0,0.0,12346,10117,30165,35861,33168,2
0.0,0.0,0.0,12424,10117,30256,35455,33236,2
0.0,0.0,0.0,12398,10071,30530,35418,33303,2
0.0,0.0,0.0,12372,10026,30900,35712,33576,2
0.0,0.0,0.0,12372,10003,30962,35787,33714,2
0.0,0.0,0.0,12372,10003,31087,35935,33783,2
0.0,0.0,0.0,12320,10003,31087,36197,33921,2
0.0,0.0,0.0,12320,10003,31497,36424,34060,2
0.0,0.0,0.0,12267,9980,31339,36310,34165,2
0.0,0.0,0.0,12254,10003,31339,36348,33991,2
0.0,0.0,0.0,12228,10003,31307,36348,34060,2
0.0,0.0,0.0,12228,10026,31087,36310,33852,2
0.0,0.0,0.0,12189,10026,30962,36235,34060,2
0.0,0.0,0.0,12215,10037,30900,36310,34130,2
0.0,0.0,0.0,12189,10049,31119,36310,34095,2
0.0,0.0,0.0,12346,10094,31087,36805,34482,2
0.0,0.0,0.0,13177,10244,31656,37940,34946,2
0.0,0.0,0.0,13552,10301,31213,37940,35055,2
0.0,0.0,0.0,13921,10359,30900,38019,35309,2
0.0,0.0,0.0,14253,10394,30561,38180,35345,2
0.0,0.0,0.0,14577,10535,30317,38301,35455,2
0.0,0.0,0.0,15181,10629,30165,38463,35935,2
0.0,0.0,0.0,15584,10724,29895,38341,35824,2
0.0,0.0,0.0,15694,10748,29805,38180,35565,2
0.0,0.0,0.0,15678,10771,29627,38019,35602,2
0.0,0.0,0.0,15647,10783,29597,37980,35455,2
0.0,0.0,0.0,15584,10795,29597,37940,35528,2
0.0,0.0,0.0,15412,10771,29509,37781,35492,2
0.0,0.0,0.0,15181,10783,29509,37781,35528,2
0.0,0.0,0.0,14666,10724,29509,37860,35565,2
0.0,0.0,0.0,14079,10700,29538,37622,35565,2
0.0,0.0,0.0,13863,10664,29568,37701,35455,2
0.0,0.0,0.0,13935,10664,29627,37622,35455,2
0.0,0.0,0.0,14253,10653,29568,37543,35418,2
0.0,0.0,0.0,14801,10629,29627,37622,35309,2
0.0,0.0,0.0,15181,10605,29775,37543,35163,2
0.0,0.0,0.0,15181,10594,29805,37465,35127,2
0.0,0.0,0.0,15150,10558,29746,37426,34982,2
0.0,0.0,0.0,15150,10558,29746,37426,34982,2
0.0,0.0,0.0,15135,10582,29686,37308,34982,2
0.0,0.0,0.0,15165,10546,29627,37347,34982,2
0.0,0.0,0.0,15150,10558,29746,37426,34946,2
0.0,0.0,0.0,15181,10582,29627,37347,34946,2
0.0,0.0,0.0,15089,10582,29627,37308,34839,2
0.0,0.0,0.0,15104,10582,29627,37269,34874,2
0.0,0.0,0.0,15119,10582,29627,37269,34839,2
0.0,0.0,0.0,15089,10582,29509,37152,34910,2
0.0,0.0,0.0,15119,10558,29479,37191,34874,2
0.0,0.0,0.0,15211,10605,29362,37191,34910,2
0.0,0.0,0.0,15028,10629,29274,37269,34839,2
0.0,0.0,0.0,14726,10748,29100,37152,34803,2
0.0,0.0,0.0,14607,10915,29013,37036,34767,2
0.0,0.0,0.0,16028,11219,29187,37308,34696,2
0.0,0.0,0.0,16632,11304,29333,37583,34946,2
0.0,0.0,0.0,16109,11329,29509,38019,35055,2
0.0,0.0,0.0,15412,11478,29835,38260,35309,2
0.0,0.0,0.0,14907,11628,30226,38585,35455,2
0.0,0.0,0.0,14696,11754,30408,38748,35492,2
0.0,0.0,0.0,14488,11703,30591,39077,35565,2
0.0,0.0,0.0,14282,11553,30776,39244,35749,2
0.0,0.0,0.0,14021,11255,30931,39705,36160,2
0.0,0.0,0.0,13721,10676,30807,39494,36197,2
0.0,0.0,0.0,13482,10394,30900,39244,36085,2
0.0,0.0,0.0,13232,10278,30900,39036,36085,2
0.0,0.0,0.0,13013,10232,30931,38995,36160,2
0.0,0.0,0.0,12824,10221,30869,38995,36499,2
0.0,0.0,0.0,12649,10255,31244,39369,36767,2
0.0,0.0,0.0,12543,10221,31465,39494,36843,2
0.0,0.0,0.0,12477,10255,31656,39578,36920,2
0.0,0.0,0.0,12477,10255,31946,39536,36959,2
0.0,0.0,0.0,12477,10255,32043,39578,36959,2
0.0,0.0,0.0,12451,10267,32303,39663,36920,2
0.0,0.0,0.0,12477,10255,32303,39578,36805,2
0.0,0.0,0.0,12504,10301,32500,39369,36272,2
0.0,0.0,0.0,12490,10267,32533,39119,36197,2
0.0,0.0,0.0,12504,10301,32500,38666,36010,2
0.0,0.0,0.0,12477,10313,32435,38382,35345,2
0.0,0.0,0.0,12504,10313,32435,38059,34767,2
0.0,0.0,0.0,12543,10336,32500,37900,34518,2
0.0,0.0,0.0,12596,10348,32435,37583,34376,2
0.0,0.0,0.0,12649,10371,32533,37622,34341,2
0.0,0.0,0.0,12743,10441,32566,37583,34235,2
0.0,0.0,0.0,12878,10535,32566,37622,34271,2
0.0,0.0,0.0,13054,10653,32633,37701,34341,2
0.0,0.0,0.0,13287,10724,32633,37860,34271,2
0.0,0.0,0.0,13482,10795,32500,37860,34165,2
0.0,0.0,0.0,13679,10819,32336,37741,34165,2
0.0,0.0,0.0,14195,10963,32043,37781,33991,2
0.0,0.0,0.0,14726,11255,31881,38100,34130,2
0.0,0.0,0.0,15013,11428,31978,38100,34130,2
0.0,0.0,0.0,14997,11478,31849,38059,34026,2
0.0,0.0,0.0,14997,11503,31881,38100,34165,2
0.0,0.0,0.0,14967,11578,31849,38180,33991,2
0.0,0.0,0.0,14967,11553,31913,38180,34060,2
0.0,0.0,0.0,14952,11565,31849,38140,33956,2
0.0,0.0,0.0,14907,11515,31881,38100,33921,2
0.0,0.0,0.0,14577,11329,31849,38059,34026,2
0.0,0.0,0.0,14253,11072,31881,38019,33991,2
0.0,0.0,0.0,14050,10963,31881,37940,33921,2
0.0,0.0,0.0,13906,10939,32010,37860,33887,2
0.0,0.0,0.0,13863,10927,31978,37781,33852,2
0.0,0.0,0.0,13806,10915,31913,37860,33714,2
0.0,0.0,0.0,13792,10771,31881,37622,33748,2
0.0,0.0,0.0,13792,10641,31656,37543,33748,2
0.0,0.0,0.0,13735,10582,31529,37426,33748,2
0.0,0.0,0.0,13580,10453,31465,37308,33714,2
0.0,0.0,0.0,13440,10499,31529,37308,33645,2
0.0,0.0,0.0,13343,10748,31529,37308,33508,2
0.0,0.0,0.0,13301,11012,31624,37269,33474,2
0.0,0.0,0.0,13287,10867,31465,37230,33439,2
0.0,0.0,0.0,13287,10301,31276,36920,33576,2
0.0,0.0,0.0,13260,10313,31213,36959,33611,2
0.0,0.0,0.0,13287,10313,31276,37075,33645,2
0.0,0.0,0.0,13246,10394,31307,37152,33645,2
0.0,0.0,0.0,13232,10394,31276,37075,33714,2
0.0,0.0,0.0,13232,10441,31339,37114,33611,2
0.0,0.0,0.0,13260,10441,31339,37152,33645,2
0.0,0.0,0.0,13260,10511,31370,37114,33714,2
0.0,0.0,0.0,13246,10570,31465,37230,33679,2
0.0,0.0,0.0,13232,10605,31465,37152,33714,2
0.0,0.0,0.0,13232,10629,31465,37152,33748,2
0.0,0.0,0.0,13232,10653,31402,37152,33748,2
0.0,0.0,0.0,13287,10771,31402,37114,33748,2
0.0,0.0,0.0,13315,10819,31465,37075,33714,2
0.0,0.0,0.0,13287,10843,31402,37114,33748,2
0.0,0.0,0.0,13315,10843,31402,37114,33714,2
0.0,0.0,0.0,13315,10843,31465,37075,33748,2
0.0,0.0,0.0,13315,10783,31402,37152,33645,2
0.0,0.0,0.0,13329,10748,31339,37114,33645,2
0.0,0.0,0.0,13315,10771,31402,37075,33576,2
0.0,0.0,0.0,13343,10771,31402,37075,33748,2
0.0,0.0,0.0,13343,10795,31370,37114,33611,2
0.0,0.0,0.0,13343,10819,31370,37075,33679,2
0.0,0.0,0.0,13315,10819,31370,37075,33611,2
0.0,0.0,0.0,13343,10795,31339,37075,33645,2
0.0,0.0,0.0,13343,10831,31339,37075,33714,2
0.0,0.0,0.0,13343,10867,31307,37075,33645,2
0.0,0.0,0.0,13343,10927,31339,37075,33576,2
0.0,0.0,0.0,13398,10987,31339,37152,33611,2
0.0,0.0,0.0,13398,11060,31339,36998,33645,2
0.0,0.0,0.0,13398,11109,31339,37075,33611,2
0.0,0.0,0.0,13398,11157,31307,37075,33611,2
0.0,0.0,0.0,13454,11206,31339,36998,33576,2
0.0,0.0,0.0,13468,11304,31402,37075,33611,2
0.0,0.0,0.0,13482,11354,31339,37114,33679,2
0.0,0.0,0.0,13496,11403,31339,37152,33714,2
0.0,0.0,0.0,13538,11416,31370,37075,33611,2
0.0,0.0,0.0,13524,11440,31339,37036,33645,2
0.0,0.0,0.0,13524,11428,31370,37075,33611,2
0.0,0.0,0.0,13524,11453,31339,37075,33645,2
0.0,0.0,0.0,13538,11515,31370,36998,33645,2
0.0,0.0,0.0,13566,11528,31339,37075,33714,2
0.0,0.0,0.0,13538,11528,31276,36998,33611,2
0.0,0.0,0.0,13510,11565,31339,36959,33679,2
0.0,0.0,0.0,13510,11565,31276,37075,33645,2
0.0,0.0,0.0,13482,11578,31339,37075,33645,2
0.0,0.0,0.0,13496,11603,31370,36998,33714,2
0.0,0.0,0.0,13468,11653,31370,37075,33611,2
0.0,0.0,0.0,13510,11653,31307,37075,33645,2
0.0,0.0,0.0,13552,11665,31276,37036,33576,2
0.0,0.0,0.0,13524,11678,31370,37075,33748,2
0.0,0.0,0.0,13538,11703,31339,37075,33645,2
0.0,0.0,0.0,13510,11716,31276,37114,33542,2
0.0,0.0,0.0,13482,11703,31244,37036,33714,2
0.0,0.0,0.0,13510,11741,31276,37075,33611,2
0.0,0.0,0.0,13510,11754,31213,37075,33576,2
0.0,0.0,0.0,13468,11754,31213,36998,33645,2
0.0,0.0,0.0,13510,11754,31213,36920,33645,2
0.0,0.0,0.0,13496,11754,31213,36998,33576,2
0.0,0.0,0.0,13468,11754,31213,36959,33576,2
0.0,0.0,0.0,13496,11766,31213,37075,33576,2
0.0,0.0,0.0,13510,11779,31181,36998,33645,2
0.0,0.0,0.0,13468,11830,31213,36998,33576,2
0.0,0.0,0.0,13468,11830,31213,36959,33542,2
0.0,0.0,0.0,13524,11855,31213,36998,33576,2
0.0,0.0,0.0,13622,12060,31150,36998,33576,2
0.0,0.0,0.0,13622,12021,31213,37075,33611,2
0.0,0.0,0.0,13622,11983,31213,36959,33576,2
0.0,0.0,0.0,13622,11919,31087,36998,33576,2
0.0,0.0,0.0,13608,11893,31213,36998,33645,2
0.0,0.0,0.0,13650,11817,31119,36882,33474,2
0.0,0.0,0.0,13622,11766,31150,36920,33576,2
0.0,0.0,0.0,13622,11804,31056,36920,33576,2
0.0,0.0,0.0,13650,11779,31087,36805,33576,2
0.0,0.0,0.0,13636,11779,31025,36882,33576,2
0.0,0.0,0.0,13650,11728,31087,36882,33474,2
0.0,0.0,0.0,13906,11754,31119,36920,33576,2
0.0,0.0,0.0,14756,11817,30931,37036,33576,2
0.0,0.0,0.0,15273,11957,30745,36959,33439,2
0.0,0.0,0.0,15663,12009,30469,37152,33371,2
0.0,0.0,0.0,15647,11932,30591,37114,33303,2
0.0,0.0,0.0,15412,11754,30530,37230,33303,2
0.0,0.0,0.0,15089,11403,30591,37230,33439,2
0.0,0.0,0.0,14518,11170,30499,37308,33783,2
0.0,0.0,0.0,14079,11024,30561,37230,34130,2
0.0,0.0,0.0,13863,11012,30653,37465,34482,2
0.0,0.0,0.0,13749,10987,30715,37465,34412,2
0.0,0.0,0.0,13707,11036,30653,37386,34341,2
0.0,0.0,0.0,13735,11060,30499,37386,34341,2
0.0,0.0,0.0,13679,11194,30591,37622,34553,2
0.0,0.0,0.0,13707,11170,30715,37900,34946,2
0.0,0.0,0.0,13622,11206,30900,38220,35565,2
0.0,0.0,0.0,13566,11206,30962,38220,36010,2
0.0,0.0,0.0,13510,11206,31025,38382,36085,2
0.0,0.0,0.0,13454,11219,31276,38789,36462,2
0.0,0.0,0.0,13343,11231,31624,39160,36424,2
0.0,0.0,0.0,13287,11304,32043,39494,36767,2
0.0,0.0,0.0,13260,11292,32173,39452,36690,2
0.0,0.0,0.0,13454,11354,32435,39621,36920,2
0.0,0.0,0.0,13454,11304,32866,39160,36538,2
0.0,0.0,0.0,13398,11157,32999,38260,36047,2
0.0,0.0,0.0,13343,10891,32435,37583,35712,2
0.0,0.0,0.0,13287,10664,31978,37075,35565,2
0.0,0.0,0.0,13191,10464,31593,36614,35236,2
0.0,0.0,0.0,13040,10301,31276,36386,35163,2
0.0,0.0,0.0,12824,10174,31150,35972,34910,2
0.0,0.0,0.0,12583,10117,30900,35824,34731,2
0.0,0.0,0.0,12424,10083,30900,35639,34696,2
0.0,0.0,0.0,12267,10094,31119,35565,34839,2
0.0,0.0,0.0,12241,10071,31087,35602,34624,2
0.0,0.0,0.0,12124,10117,31150,35639,34696,2
0.0,0.0,0.0,12021,10117,30962,35528,34767,2
0.0,0.0,0.0,12009,10117,30900,35492,34696,2
0.0,0.0,0.0,12009,10140,30838,35455,34624,2
0.0,0.0,0.0,12009,10152,30900,35418,34589,2
0.0,0.0,0.0,12060,10163,30962,35565,34731,2
0.0,0.0,0.0,12021,10197,31465,35824,34553,2
0.0,0.0,0.0,12060,10209,31881,36010,34095,2
0.0,0.0,0.0,12021,10209,31881,36010,33921,2
0.0,0.0,0.0,12009,10197,31752,36047,33852,2
0.0,0.0,0.0,12021,10186,31624,35749,33611,2
0.0,0.0,0.0,12073,10174,31434,35565,33508,2
0.0,0.0,0.0,11957,10221,31529,35528,33303,2
0.0,0.0,0.0,11957,10221,31213,35309,33067,2
0.0,0.0,0.0,11919,10209,31150,35272,33303,2
0.0,0.0,0.0,11855,10186,31087,35127,33100,2
0.0,0.0,0.0,11855,10174,31025,35091,32966,2
0.0,0.0,0.0,11804,10152,30962,35163,32899,2
0.0,0.0,0.0,11779,10186,30869,35163,32932,2
0.0,0.0,0.0,11779,10209,30900,35163,32966,2
0.0,0.0,0.0,11766,10209,30931,35163,32932,2
0.0,0.0,0.0,11766,10232,30962,35055,33033,2
0.0,0.0,0.0,11779,10232,30900,35091,32899,2
0.0,0.0,0.0,11779,10255,30962,35091,32899,2
0.0,0.0,0.0,11804,10267,30962,35163,32966,2
0.0,0.0,0.0,11804,10255,31025,35272,32932,2
0.0,0.0,0.0,11779,10301,30994,35199,32932,2
0.0,0.0,0.0,11754,10267,31025,35272,32999,2
0.0,0.0,0.0,11766,10301,31087,35163,32932,2
0.0,0.0,0.0,11754,10325,30994,35199,33067,2
0.0,0.0,0.0,11792,10325,31056,35163,33033,2
0.0,0.0,0.0,11754,10301,30931,35345,33033,2
0.0,0.0,0.0,11754,10301,30962,35199,33033,2
0.0,0.0,0.0,11728,10301,30962,35272,32899,2
0.0,0.0,0.0,11754,10313,30962,35236,32999,2
0.0,0.0,0.0,11728,10313,30962,35199,32966,2
0.0,0.0,0.0,11754,10313,30962,35163,32899,2
0.0,0.0,0.0,11754,10313,30900,35272,32932,2
0.0,0.0,0.0,11754,10301,30715,35055,33033,2
0.0,0.0,0.0,11804,10163,30530,34803,33033,2
0.0,0.0,0.0,11855,10083,30286,34482,33100,2
0.0,0.0,0.0,11932,10049,30286,34447,33134,2
0.0,0.0,0.0,11932,10049,30165,34412,33236,2
0.0,0.0,0.0,11906,10049,30165,34518,33134,2
0.0,0.0,0.0,11906,10037,30045,34447,33236,2
0.0,0.0,0.0,11804,10071,30105,34412,33100,2
0.0,0.0,0.0,11855,10255,30622,34482,32966,2
0.0,0.0,0.0,11779,10255,30900,34553,32932,2
0.0,0.0,0.0,11817,10255,30931,34553,32832,2
0.0,0.0,0.0,11804,10232,30869,34518,32732,2
0.0,0.0,0.0,11817,10186,30715,34482,32765,2
0.0,0.0,0.0,11804,10174,30622,34341,32765,2
0.0,0.0,0.0,11754,10163,30776,34376,32765,2
0.0,0.0,0.0,11779,10174,30622,34412,32666,2
0.0,0.0,0.0,11754,10186,30622,34412,32699,2
0.0,0.0,0.0,11779,10163,30591,34412,32666,2
0.0,0.0,0.0,11754,10071,30438,34341,32799,2
0.0,0.0,0.0,11716,10071,30165,34412,32899,2
0.0,0.0,0.0,11754,10026,30015,34235,33033,2
0.0,0.0,0.0,11754,10026,29984,34341,32966,2
0.0,0.0,0.0,11716,10003,29984,34341,32932,2
0.0,0.0,0.0,11678,10003,29984,34341,32932,2
0.0,0.0,0.0,11653,10094,30286,34447,32866,2
0.0,0.0,0.0,11640,10232,30408,34412,32832,2
0.0,0.0,0.0,11628,10267,30622,34447,32832,2
0.0,0.0,0.0,11628,10255,30469,34553,32732,2
0.0,0.0,0.0,11628,10267,30499,34447,32699,2
0.0,0.0,0.0,11615,10267,30469,34447,32765,2
0.0,0.0,0.0,11615,10209,30469,34482,32765,2
0.0,0.0,0.0,11603,10221,30408,34482,32765,2
0.0,0.0,0.0,11615,10209,30438,34482,32832,2
0.0,0.0,0.0,11615,10232,30499,34624,32832,2
0.0,0.0,0.0,11603,10221,30469,34589,32799,2
0.0,0.0,0.0,11603,10221,30591,34660,32899,2
0.0,0.0,0.0,11603,10255,30591,34696,33100,2
0.0,0.0,0.0,11578,10301,30653,34839,33168,2
0.0,0.0,0.0,11553,10348,30776,34839,33303,2
0.0,0.0,0.0,11565,10348,30838,34839,33337,2
0.0,0.0,0.0,11578,10371,30838,34910,33337,2
0.0,0.0,0.0,11628,10418,30776,35345,33611,2
0.0,0.0,0.0,11906,10499,30530,35861,34095,2
0.0,0.0,0.0,12112,10629,30286,36010,34095,2
0.0,0.0,0.0,12320,10783,29450,36462,33991,2
0.0,0.0,0.0,12663,10963,29538,36805,34271,2
0.0,0.0,0.0,13232,11121,29686,37075,34376,2
0.0,0.0,0.0,13964,11268,29627,36843,34341,2
0.0,0.0,0.0,14238,11255,29421,36959,33921,2
0.0,0.0,0.0,14137,11194,28984,36386,33991,2
0.0,0.0,0.0,14050,10927,28414,35712,33576,2
0.0,0.0,0.0,13921,10617,27966,35163,33576,2
0.0,0.0,0.0,13835,10488,27691,34839,33748,2
0.0,0.0,0.0,13622,10453,27364,34553,33645,2
0.0,0.0,0.0,13440,10441,27283,34482,33508,2
0.0,0.0,0.0,13440,10464,27310,34482,33439,2
0.0,0.0,0.0,13426,10476,27337,34412,33405,2
0.0,0.0,0.0,13510,10464,27283,34341,33439,2
0.0,0.0,0.0,13580,10476,27364,34412,33439,2
0.0,0.0,0.0,13806,10488,27283,34482,33371,2
0.0,0.0,0.0,13921,10499,27418,34341,33337,2
0.0,0.0,0.0,13964,10535,27364,34412,33303,2
0.0,0.0,0.0,14151,10535,27364,34341,33303,2
0.0,0.0,0.0,14036,10582,27418,34482,33202,2
0.0,0.0,0.0,14050,10641,27418,34412,33202,2
0.0,0.0,0.0,14021,10676,27472,34376,33337,2
0.0,0.0,0.0,14021,10724,27554,34447,33303,2
0.0,0.0,0.0,14021,10748,27527,34482,33303,2
0.0,0.0,0.0,14108,10736,27581,34447,33303,2
0.0,0.0,0.0,14108,10748,27527,34482,33202,2
0.0,0.0,0.0,14137,10748,27499,34447,33236,2
0.0,0.0,0.0,14137,10748,27581,34412,33303,2
0.0,0.0,0.0,14137,10748,27581,34412,33303,2
0.0,0.0,0.0,14253,10771,27581,34412,33168,2
0.0,0.0,0.0,14385,10771,27581,34482,33236,2
0.0,0.0,0.0,14341,10759,27663,34447,33134,2
0.0,0.0,0.0,14326,10771,27636,34376,33168,2
0.0,0.0,0.0,14311,10807,27609,34447,33168,2
0.0,0.0,0.0,14311,10819,27691,34412,33100,2
0.0,0.0,0.0,14253,10819,27636,34412,33134,2
0.0,0.0,0.0,14311,10831,27718,34518,33168,2
0.0,0.0,0.0,14311,10819,27718,34412,33033,2
0.0,0.0,0.0,14297,10819,27691,34447,33236,2
0.0,0.0,0.0,14282,10819,27663,34412,33100,2
0.0,0.0,0.0,14282,10795,27691,34341,33100,2
0.0,0.0,0.0,14297,10795,27663,34341,33100,2
0.0,0.0,0.0,14268,10819,27691,34376,33168,2
0.0,0.0,0.0,14268,10819,27691,34447,33033,2
0.0,0.0,0.0,14341,10915,27800,34412,33033,2
0.0,0.0,0.0,14311,10939,27745,34482,33033,2
0.0,0.0,0.0,14326,10939,27691,34447,33067,2
0.0,0.0,0.0,14326,10987,27800,34447,32932,2
0.0,0.0,0.0,14268,11036,27911,34482,33100,2
0.0,0.0,0.0,14399,11072,27966,34447,33100,2
0.0,0.0,0.0,14562,11121,27966,34518,33100,2
0.0,0.0,0.0,14607,11182,28022,34553,32999,2
0.0,0.0,0.0,14681,11170,28133,34553,33033,2
0.0,0.0,0.0,14681,11170,28329,34624,33033,2
0.0,0.0,0.0,14607,11157,28385,34660,33100,2
0.0,0.0,0.0,14577,11170,28385,34624,33168,2
0.0,0.0,0.0,14607,11157,28414,34589,33033,2
0.0,0.0,0.0,14607,11182,28414,34589,33033,2
0.0,0.0,0.0,14577,11182,28442,34553,33033,2
0.0,0.0,0.0,14547,11206,28245,34482,33033,2
0.0,0.0,0.0,14547,11243,28133,34412,33033,2
0.0,0.0,0.0,14636,11206,28077,34412,32899,2
0.0,0.0,0.0,14756,11231,28022,34412,32966,2
0.0,0.0,0.0,14846,11231,28022,34341,32866,2
0.0,0.0,0.0,14801,11231,27966,34412,32932,2
0.0,0.0,0.0,14861,11231,28022,34341,32932,2
0.0,0.0,0.0,14846,11231,27994,34341,32932,2
0.0,0.0,0.0,14861,11255,28022,34271,32932,2
0.0,0.0,0.0,14801,11255,27939,34412,32899,2
0.0,0.0,0.0,14846,11268,27966,34376,32932,2
0.0,0.0,0.0,14801,11329,27939,34412,32966,2
0.0,0.0,0.0,14726,11453,27800,34447,33067,2
0.0,0.0,0.0,14982,11515,27691,34589,32866,2
0.0,0.0,0.0,15852,11678,27911,34696,32799,2
0.0,0.0,0.0,16815,11996,28189,34839,32932,2
0.0,0.0,0.0,17289,12073,28414,35163,32866,2
0.0,0.0,0.0,17426,12215,28583,35199,33033,2
0.0,0.0,0.0,16898,12293,28726,35492,33067,2
0.0,0.0,0.0,16401,12372,28812,35602,33033,2
0.0,0.0,0.0,16044,12451,28927,35787,33067,2
0.0,0.0,0.0,15837,12623,28927,35861,33168,2
0.0,0.0,0.0,15615,12636,28984,36047,33168,2
0.0,0.0,0.0,15521,12703,28927,36047,33439,2
0.0,0.0,0.0,15381,12716,29042,36160,33645,2
0.0,0.0,0.0,15181,12743,29042,36272,33783,2
0.0,0.0,0.0,15058,12649,29100,36462,33748,2
0.0,0.0,0.0,14967,12517,29042,36690,33852,2
0.0,0.0,0.0,14876,12346,29042,36805,34271,2
0.0,0.0,0.0,14786,12346,29187,37075,34095,2
0.0,0.0,0.0,14741,12293,29304,37230,34130,2
0.0,0.0,0.0,14696,12333,29274,37191,34026,2
0.0,0.0,0.0,14681,12320,29216,37075,33852,2
0.0,0.0,0.0,14771,12372,29274,37230,33956,2
0.0,0.0,0.0,15089,12530,29450,37347,34130,2
0.0,0.0,0.0,15335,12596,29479,37308,34130,2
0.0,0.0,0.0,15428,12663,29538,37152,34130,2
0.0,0.0,0.0,15366,12690,29538,37230,34060,2
0.0,0.0,0.0,15335,12676,29479,37191,34165,2
0.0,0.0,0.0,15273,12636,29450,37075,33991,2
0.0,0.0,0.0,15227,12530,29391,36843,33748,2
0.0,0.0,0.0,15319,12398,29333,36805,33783,2
0.0,0.0,0.0,15397,12372,29245,36576,33303,2
0.0,0.0,0.0,15335,12346,29100,36462,33168,2
0.0,0.0,0.0,15227,12372,29071,36424,33168,2
0.0,0.0,0.0,15211,12451,29158,36462,33134,2
0.0,0.0,0.0,15181,12504,29362,36767,33371,2
0.0,0.0,0.0,15028,12636,29509,36920,33645,2
0.0,0.0,0.0,14907,12676,29746,37152,33748,2
0.0,0.0,0.0,14952,12716,29835,37465,33645,2
0.0,0.0,0.0,14937,12770,29895,37741,33921,2
0.0,0.0,0.0,14876,12756,30045,37860,34271,2
0.0,0.0,0.0,14846,12663,30045,37860,34235,2
0.0,0.0,0.0,14681,12293,30045,37781,34767,2
0.0,0.0,0.0,14607,12060,30105,37622,34589,2
0.0,0.0,0.0,14488,11855,30015,37426,34200,2
0.0,0.0,0.0,14399,11728,30165,37426,34095,2
0.0,0.0,0.0,14253,11503,30165,37114,33991,2
0.0,0.0,0.0,14079,11231,30226,37036,33783,2
0.0,0.0,0.0,13764,10819,30377,36805,33576,2
0.0,0.0,0.0,13524,10535,30653,36499,33134,2
0.0,0.0,0.0,13260,10394,30900,36197,32899,2
0.0,0.0,0.0,13027,10348,30994,35935,32765,2
0.0,0.0,0.0,12918,10325,31087,35712,32799,2
0.0,0.0,0.0,12810,10301,31119,35565,32566,2
0.0,0.0,0.0,12770,10278,31213,35565,32633,2
0.0,0.0,0.0,12743,10301,31339,35602,32500,2
0.0,0.0,0.0,12770,10313,31307,35824,32966,2
0.0,0.0,0.0,12864,10348,31276,35712,32899,2
0.0,0.0,0.0,12905,10359,31276,35639,33033,2
0.0,0.0,0.0,12972,10371,31213,35272,32832,2
0.0,0.0,0.0,12959,10313,31087,35127,32765,2
0.0,0.0,0.0,12959,10301,30994,34982,32599,2
0.0,0.0,0.0,12878,10221,30838,34874,32633,2
0.0,0.0,0.0,12797,10232,30715,34767,32566,2
0.0,0.0,0.0,12770,10209,30622,34696,32369,2
0.0,0.0,0.0,12716,10209,30591,34589,32402,2
0.0,0.0,0.0,12690,10209,30469,34696,32435,2
0.0,0.0,0.0,12649,10209,30408,34624,32435,2
0.0,0.0,0.0,12649,10221,30408,34696,32435,2
0.0,0.0,0.0,12649,10232,30499,34803,32500,2
0.0,0.0,0.0,12636,10232,30469,34839,32435,2
0.0,0.0,0.0,12663,10255,30408,34839,32435,2
0.0,0.0,0.0,12797,10278,30408,34874,32435,2
0.0,0.0,0.0,12663,10301,30408,34696,32533,2
0.0,0.0,0.0,12690,10301,30438,34767,32500,2
0.0,0.0,0.0,12636,10325,30408,34982,32435,2
0.0,0.0,0.0,12636,10325,30469,34982,32500,2
0.0,0.0,0.0,12610,10325,30408,34839,32500,2
0.0,0.0,0.0,12636,10371,30499,34874,32533,2
0.0,0.0,0.0,12649,10394,30622,34910,32500,2
0.0,0.0,0.0,12690,10394,30561,34982,32599,2
0.0,0.0,0.0,12716,10394,30591,34946,32566,2
0.0,0.0,0.0,12716,10418,30653,35127,32633,2
0.0,0.0,0.0,12730,10418,30653,35055,32599,2
0.0,0.0,0.0,12716,10429,30591,35127,32566,2
0.0,0.0,0.0,12743,10441,30715,35127,32566,2
0.0,0.0,0.0,12716,10511,30653,35163,32500,2
0.0,0.0,0.0,12743,10511,30653,35199,32566,2
0.0,0.0,0.0,12703,10511,30591,35236,32599,2
0.0,0.0,0.0,12716,10511,30591,35163,32500,2
0.0,0.0,0.0,12716,10535,30622,35127,32533,2
0.0,0.0,0.0,12743,10546,30591,35199,32500,2
0.0,0.0,0.0,12690,10582,30622,35163,32500,2
0.0,0.0,0.0,12703,10582,30622,35127,32500,2
0.0,0.0,0.0,12703,10582,30499,35055,32533,2
0.0,0.0,0.0,12716,10594,30591,35127,32533,2
0.0,0.0,0.0,12756,10605,30561,35055,32500,2
0.0,0.0,0.0,12743,10605,30561,35055,32500,2
0.0,0.0,0.0,12783,10605,30530,35055,32467,2
0.0,0.0,0.0,12770,10605,30499,35127,32533,2
0.0,0.0,0.0,12824,10629,30591,35127,32500,2
0.0,0.0,0.0,12851,10629,30591,35018,32566,2
0.0,0.0,0.0,12824,10653,30499,35055,32533,2
0.0,0.0,0.0,12851,10688,30499,35127,32533,2
0.0,0.0,0.0,12851,10724,30499,35163,32633,2
0.0,0.0,0.0,12810,10724,30499,35055,32699,2
0.0,0.0,0.0,12837,10748,30530,35163,32765,2
0.0,0.0,0.0,12824,10724,30469,35055,32765,2
0.0,0.0,0.0,12810,10748,30469,35127,32765,2
0.0,0.0,0.0,12837,10748,30469,35163,32799,2
0.0,0.0,0.0,12851,10771,30499,35018,32699,2
0.0,0.0,0.0,12864,10771,30499,35163,32666,2
0.0,0.0,0.0,12851,10795,30469,35091,32666,2
0.0,0.0,0.0,12824,10771,30469,35127,32666,2
0.0,0.0,0.0,12797,10783,30469,35127,32566,2
0.0,0.0,0.0,12797,10795,30499,35127,32633,2
0.0,0.0,0.0,12810,10819,30530,35127,32633,2
0.0,0.0,0.0,12810,10831,30499,35055,32633,2
0.0,0.0,0.0,12797,10867,30438,35055,32533,2
0.0,0.0,0.0,12851,10855,30469,35127,32566,2
0.0,0.0,0.0,12824,10867,30469,35163,32666,2
0.0,0.0,0.0,12837,10867,30469,35127,32699,2
0.0,0.0,0.0,12797,10867,30469,35163,32666,2
0.0,0.0,0.0,12824,10867,30469,35272,32566,2
0.0,0.0,0.0,12824,10867,30530,35163,32566,2
0.0,0.0,0.0,12797,10867,30499,35127,32599,2
0.0,0.0,0.0,12824,10867,30469,35199,32599,2
0.0,0.0,0.0,12905,10879,30530,35163,32699,2
0.0,0.0,0.0,13122,10867,30530,35199,32599,2
0.0,0.0,0.0,13013,10915,30653,35199,32633,2
0.0,0.0,0.0,12959,10915,30469,35199,32566,2
0.0,0.0,0.0,12932,10963,30469,35199,32533,2
0.0,0.0,0.0,12918,10975,30530,35272,32666,2
0.0,0.0,0.0,12959,11012,30499,35127,32666,2
0.0,0.0,0.0,12959,11012,30530,35199,32566,2
0.0,0.0,0.0,12945,11012,30499,35272,32599,2
0.0,0.0,0.0,12959,11072,30591,35127,32633,2
0.0,0.0,0.0,13013,11109,30622,35272,32765,2
0.0,0.0,0.0,13027,11109,30591,35272,32699,2
0.0,0.0,0.0,13013,11109,30622,35272,32699,2
0.0,0.0,0.0,13013,11133,30591,35272,32599,2
0.0,0.0,0.0,13027,11157,30591,35345,32765,2
0.0,0.0,0.0,13027,11157,30591,35345,32566,2
0.0,0.0,0.0,13027,11157,30591,35272,32633,2
0.0,0.0,0.0,13068,11109,30622,35309,32699,2
0.0,0.0,0.0,13068,11170,30591,35345,32666,2
0.0,0.0,0.0,13068,11157,30684,35345,32633,2
0.0,0.0,0.0,13081,11182,30776,35309,32633,2
0.0,0.0,0.0,13040,11170,30715,35418,32633,2
0.0,0.0,0.0,12972,11182,30684,35418,32633,2
0.0,0.0,0.0,13081,11206,30622,35272,32566,2
0.0,0.0,0.0,13068,11219,30684,35382,32599,2
0.0,0.0,0.0,13027,11219,30591,35492,32633,2
0.0,0.0,0.0,13095,11219,30622,35418,32566,2
0.0,0.0,0.0,13095,11243,30591,35345,32633,2
0.0,0.0,0.0,13122,11219,30622,35455,32666,2
0.0,0.0,0.0,13177,11231,30591,35345,32732,2
0.0,0.0,0.0,13566,11231,30622,35418,32832,2
0.0,0.0,0.0,14036,11231,30653,35565,32799,2
0.0,0.0,0.0,14122,11317,30653,35565,32633,2
0.0,0.0,0.0,14093,11304,30622,35528,32765,2
0.0,0.0,0.0,14064,11317,30622,35492,32633,2
0.0,0.0,0.0,13978,11329,30622,35639,32699,2
0.0,0.0,0.0,14036,11317,30653,35639,32666,2
0.0,0.0,0.0,14021,11354,30653,35565,32633,2
0.0,0.0,0.0,14007,11354,30622,35639,32566,2
0.0,0.0,0.0,14021,11366,30653,35565,32566,2
0.0,0.0,0.0,14050,11354,30653,35565,32599,2
0.0,0.0,0.0,14079,11354,30684,35565,32633,2
0.0,0.0,0.0,14137,11354,30653,35639,32699,2
0.0,0.0,0.0,14166,11366,30715,35565,32666,2
0.0,0.0,0.0,14180,11403,30776,35639,32666,2
0.0,0.0,0.0,14268,11440,30776,35639,32765,2
0.0,0.0,0.0,14151,11503,30715,35639,32799,2
0.0,0.0,0.0,14108,11465,30653,35565,32699,2
0.0,0.0,0.0,14079,11478,30653,35602,32765,2
0.0,0.0,0.0,14050,11478,30715,35602,32799,2
0.0,0.0,0.0,14064,11490,30715,35565,32666,2
0.0,0.0,0.0,14079,11503,30745,35602,32633,2
0.0,0.0,0.0,14036,11490,30715,35602,32699,2
0.0,0.0,0.0,14050,11478,30684,35639,32699,2
0.0,0.0,0.0,14021,11528,30622,35639,32765,2
0.0,0.0,0.0,14050,11515,30622,35565,32765,2
0.0,0.0,0.0,14036,11528,30715,35639,32765,2
0.0,0.0,0.0,14036,11528,30591,35602,32566,2
0.0,0.0,0.0,14050,11528,30622,35565,32765,2
0.0,0.0,0.0,14021,11528,30622,35565,32699,2
0.0,0.0,0.0,14036,11528,30653,35565,32633,2
0.0,0.0,0.0,14108,11540,30715,35565,32765,2
0.0,0.0,0.0,14079,11515,30715,35492,32699,2
0.0,0.0,0.0,14079,11553,30653,35602,32699,2
0.0,0.0,0.0,14007,11553,30715,35639,32732,2
0.0,0.0,0.0,13992,11553,30653,35602,32633,2
0.0,0.0,0.0,13992,11578,30622,35565,32633,2
0.0,0.0,0.0,13964,11578,30653,35602,32666,2
0.0,0.0,0.0,13964,11603,30591,35565,32633,2
0.0,0.0,0.0,13935,11628,30591,35492,32633,2
0.0,0.0,0.0,13978,11615,30622,35492,32666,2
0.0,0.0,0.0,13949,11628,30715,35565,32566,2
0.0,0.0,0.0,13935,11615,30622,35528,32666,2
0.0,0.0,0.0,13935,11615,30622,35455,32566,2
0.0,0.0,0.0,13921,11603,30591,35565,32633,2
0.0,0.0,0.0,13964,11615,30622,35565,32633,2
0.0,0.0,0.0,13978,11590,30591,35565,32566,2
0.0,0.0,0.0,14021,11603,30561,35418,32500,2
0.0,0.0,0.0,14050,11553,30530,35309,32500,2
0.0,0.0,0.0,14079,11465,30469,35163,32633,2
0.0,0.0,0.0,14079,11354,30561,35236,32765,2
0.0,0.0,0.0,14036,11317,30530,35199,32500,2
0.0,0.0,0.0,14108,11109,30499,35018,32566,2
0.0,0.0,0.0,13978,10783,30499,34803,32467,2
0.0,0.0,0.0,13778,10511,30286,34589,32369,2
0.0,0.0,0.0,13580,10383,30226,34341,32402,2
0.0,0.0,0.0,13371,10255,30286,34271,32435,2
0.0,0.0,0.0,13205,10209,30226,33991,32303,2
0.0,0.0,0.0,13013,10152,30226,33887,32043,2
0.0,0.0,0.0,12851,10140,30165,33852,32010,2
0.0,0.0,0.0,12703,10117,30135,33576,31817,2
0.0,0.0,0.0,12596,10129,30438,33714,31881,2
0.0,0.0,0.0,12504,10221,30653,33817,31881,2
0.0,0.0,0.0,12451,10267,30622,33887,31849,2
0.0,0.0,0.0,12398,10313,30776,33956,31849,2
0.0,0.0,0.0,12424,10348,30776,33956,31849,2
0.0,0.0,0.0,12438,10394,30653,33991,31849,2
0.0,0.0,0.0,12451,10336,30622,33887,31849,2
0.0,0.0,0.0,12464,10301,30438,33921,31720,2
0.0,0.0,0.0,12438,10301,30286,33817,32043,2
0.0,0.0,0.0,12464,10313,30226,33921,32010,2
0.0,0.0,0.0,12424,10371,30165,33991,31978,2
0.0,0.0,0.0,12636,10418,30045,34130,32140,2
0.0,0.0,0.0,12932,10453,29895,34341,32205,2
0.0,0.0,0.0,12972,10488,29746,34306,32369,2
0.0,0.0,0.0,13013,10582,29216,34553,32402,2
0.0,0.0,0.0,13040,10629,28697,34624,32369,2
0.0,0.0,0.0,13287,10688,28385,34660,32467,2
0.0,0.0,0.0,13468,10879,28612,34767,32533,2
0.0,0.0,0.0,13371,10843,28385,34731,32566,2
0.0,0.0,0.0,13357,10795,28077,34553,32500,2
0.0,0.0,0.0,13524,10783,28022,34696,32467,2
0.0,0.0,0.0,13778,10843,27966,34660,32303,2
0.0,0.0,0.0,13992,10927,27828,34553,32173,2
0.0,0.0,0.0,14326,10963,27800,34589,32108,2
0.0,0.0,0.0,14518,10939,27800,34518,32173,2
0.0,0.0,0.0,14846,10963,27856,34518,32173,2
0.0,0.0,0.0,15335,11024,27911,34660,31978,2
0.0,0.0,0.0,15678,11157,27939,34696,31881,2
0.0,0.0,0.0,15615,11182,27994,34696,31881,2
0.0,0.0,0.0,15521,11133,27994,34447,31913,2
0.0,0.0,0.0,15475,11157,28077,34518,31881,2
0.0,0.0,0.0,15490,11219,28077,34412,31785,2
0.0,0.0,0.0,15428,11219,28161,34553,31720,2
0.0,0.0,0.0,15288,11206,28301,34624,31688,2
0.0,0.0,0.0,15150,11206,28245,34482,31913,2
0.0,0.0,0.0,15150,11206,28301,34660,31849,2
0.0,0.0,0.0,15089,11231,28301,34624,31849,2
0.0,0.0,0.0,15089,11206,28301,34553,31849,2
0.0,0.0,0.0,15028,11255,28301,34589,31785,2
0.0,0.0,0.0,14922,11255,28357,34589,31881,2
0.0,0.0,0.0,14907,11255,28357,34660,31817,2
0.0,0.0,0.0,14861,11304,28357,34518,31817,2
0.0,0.0,0.0,14861,11317,28385,34589,31720,2
0.0,0.0,0.0,14771,11304,28357,34553,31752,2
0.0,0.0,0.0,14786,11354,28385,34589,31785,2
0.0,0.0,0.0,14696,11403,28385,34660,31720,2
0.0,0.0,0.0,14726,11416,28414,34624,31656,2
0.0,0.0,0.0,14681,11453,28442,34624,31720,2
0.0,0.0,0.0,14681,11440,28498,34589,31752,2
0.0,0.0,0.0,14666,11428,28414,34589,31720,2
0.0,0.0,0.0,14666,11403,28357,34553,31688,2
0.0,0.0,0.0,14651,11366,28357,34589,31593,2
0.0,0.0,0.0,14636,11354,28301,34553,31624,2
0.0,0.0,0.0,14607,11317,28357,34589,31688,2
0.0,0.0,0.0,14636,11329,28357,34553,31720,2
0.0,0.0,0.0,14607,11354,28414,34553,31624,2
0.0,0.0,0.0,14607,11354,28301,34553,31656,2
0.0,0.0,0.0,14607,11403,28301,34553,31593,2
0.0,0.0,0.0,14666,11428,28301,34589,31624,2
0.0,0.0,0.0,14621,11379,28133,34589,31688,2
0.0,0.0,0.0,14666,11453,28189,34482,31785,2
0.0,0.0,0.0,14666,11453,28189,34482,31752,2
0.0,0.0,0.0,14696,11428,28161,34482,31720,2
0.0,0.0,0.0,14681,11453,28133,34447,31785,2
0.0,0.0,0.0,14666,11528,28105,34482,31913,2
0.0,0.0,0.0,14666,11553,28133,34553,31881,2
0.0,0.0,0.0,14666,11540,28049,34553,32043,2
0.0,0.0,0.0,14711,11603,28105,34553,31913,2
0.0,0.0,0.0,14711,11603,28133,34482,32043,2
0.0,0.0,0.0,14681,11640,28049,34518,32010,2
0.0,0.0,0.0,14696,11653,28049,34482,32043,2
0.0,0.0,0.0,14726,11628,28049,34553,32010,2
0.0,0.0,0.0,14711,11653,28022,34553,31978,2
0.0,0.0,0.0,14681,11691,28022,34447,32043,2
0.0,0.0,0.0,14696,11665,28022,34518,32043,2
0.0,0.0,0.0,14726,11703,28022,34553,32043,2
0.0,0.0,0.0,14741,11703,27994,34553,31978,2
0.0,0.0,0.0,14756,11766,28022,34553,32043,2
0.0,0.0,0.0,14741,11754,27966,34447,32108,2
0.0,0.0,0.0,14756,11766,28022,34553,32010,2
0.0,0.0,0.0,14726,11766,28022,34518,32075,2
0.0,0.0,0.0,14681,11804,28022,34589,32075,2
0.0,0.0,0.0,14741,11817,28049,34624,32010,2
0.0,0.0,0.0,14726,11855,28022,34553,32108,2
0.0,0.0,0.0,14726,11881,27966,34482,32075,2
0.0,0.0,0.0,14726,11817,27966,34553,32108,2
0.0,0.0,0.0,14741,11817,27994,34624,32108,2
0.0,0.0,0.0,14726,11893,27994,34553,32043,2
0.0,0.0,0.0,14681,11983,27966,34553,32043,2
0.0,0.0,0.0,14607,11957,27911,34553,32043,2
0.0,0.0,0.0,14577,11919,27966,34553,31881,2
0.0,0.0,0.0,14503,11932,27939,34553,31817,2
0.0,0.0,0.0,14488,11881,27939,34482,31881,2
0.0,0.0,0.0,14458,11855,28049,34553,31849,2
0.0,0.0,0.0,14370,11855,28133,34553,31785,2
0.0,0.0,0.0,14370,11855,28133,34553,31656,2
0.0,0.0,0.0,14355,11893,28133,34482,31720,2
0.0,0.0,0.0,14253,11881,28189,34589,31720,2
0.0,0.0,0.0,14253,11893,28161,34589,31593,2
0.0,0.0,0.0,14209,11932,28189,34589,31656,2
0.0,0.0,0.0,14253,11983,28245,34553,31656,2
0.0,0.0,0.0,14209,12021,28301,34624,31656,2
0.0,0.0,0.0,14195,11996,28301,34589,31561,2
0.0,0.0,0.0,14195,12009,28245,34553,31529,2
0.0,0.0,0.0,14195,12009,28245,34482,31593,2
0.0,0.0,0.0,14195,12009,28245,34553,31529,2
0.0,0.0,0.0,14166,11957,28133,34447,31497,2
0.0,0.0,0.0,14224,11855,28133,34482,31497,2
0.0,0.0,0.0,14253,11754,28077,34341,31529,2
0.0,0.0,0.0,14253,11703,28077,34341,31497,2
0.0,0.0,0.0,14224,11578,28077,34341,31465,2
0.0,0.0,0.0,14195,11528,28077,34306,31465,2
0.0,0.0,0.0,14108,11503,27911,34235,31434,2
0.0,0.0,0.0,13978,11503,27939,34341,31465,2
0.0,0.0,0.0,13964,11503,27911,34165,31497,2
0.0,0.0,0.0,14021,11515,27856,34165,31529,2
0.0,0.0,0.0,14166,11503,27745,34060,31497,2
0.0,0.0,0.0,14311,11503,27718,34095,31465,2
0.0,0.0,0.0,14429,11553,27691,34060,31465,2
0.0,0.0,0.0,14726,11553,27691,34130,31497,2
0.0,0.0,0.0,14997,11678,27581,33991,31465,2
0.0,0.0,0.0,15211,11804,27581,33956,31402,2
0.0,0.0,0.0,15273,11804,27581,33956,31370,2
0.0,0.0,0.0,15335,11804,27527,33956,31402,2
0.0,0.0,0.0,15304,11804,27581,33921,31307,2
0.0,0.0,0.0,15273,11804,27581,33921,31339,2
0.0,0.0,0.0,15227,11855,27499,33991,31434,2
0.0,0.0,0.0,15273,11881,27527,33991,31434,2
0.0,0.0,0.0,15335,11868,27581,33921,31370,2
0.0,0.0,0.0,15350,11653,27581,33991,31402,2
0.0,0.0,0.0,15490,11515,27554,33991,31402,2
0.0,0.0,0.0,15521,11403,27527,33991,31465,2
0.0,0.0,0.0,15521,11403,27527,33991,31339,2
0.0,0.0,0.0,15506,11403,27527,33991,31402,2
0.0,0.0,0.0,15521,11366,27472,33887,31497,2
0.0,0.0,0.0,15537,11317,27364,33991,31529,2
0.0,0.0,0.0,15584,11219,27310,33852,31593,2
0.0,0.0,0.0,15647,11109,27283,33852,31593,2
0.0,0.0,0.0,15710,10891,27283,33783,31656,2
0.0,0.0,0.0,15964,10629,27041,33748,31849,2
0.0,0.0,0.0,16060,10535,26961,33508,31881,2
0.0,0.0,0.0,16060,10453,26882,33439,31881,2
0.0,0.0,0.0,15980,10429,26882,33371,31849,2
0.0,0.0,0.0,15996,10394,26882,33371,31913,2
0.0,0.0,0.0,16028,10394,26776,33303,31849,2
0.0,0.0,0.0,16028,10406,26749,33269,31752,2
0.0,0.0,0.0,16028,10371,26723,33236,31720,2
0.0,0.0,0.0,15964,10394,26723,33371,31785,2
0.0,0.0,0.0,15964,10394,26697,33202,31720,2
0.0,0.0,0.0,15900,10441,26749,33202,31688,2
0.0,0.0,0.0,15837,10488,26749,33303,31720,2
0.0,0.0,0.0,15789,10535,26776,33337,31752,2
0.0,0.0,0.0,15773,10629,26829,33303,31720,2
0.0,0.0,0.0,15726,10748,26723,33269,31720,2
0.0,0.0,0.0,15663,10819,26670,33337,31720,2
0.0,0.0,0.0,15584,10867,26618,33236,31720,2
0.0,0.0,0.0,15227,10915,26566,33236,31688,2
0.0,0.0,0.0,15119,11121,26618,33474,31752,2
0.0,0.0,0.0,15165,11304,26644,33611,31720,2
0.0,0.0,0.0,15335,11354,26723,33783,31752,2
0.0,0.0,0.0,15932,11403,26723,33748,31688,2
0.0,0.0,0.0,16271,11453,26618,33852,31881,2
0.0,0.0,0.0,16815,11478,26618,33887,31849,2
0.0,0.0,0.0,17306,11503,26566,33714,31913,2
0.0,0.0,0.0,17306,11565,26618,33852,31978,2
0.0,0.0,0.0,16966,11515,26618,33852,32010,2
0.0,0.0,0.0,16499,11403,26670,33852,32043,2
0.0,0.0,0.0,16238,11280,26592,33852,31913,2
0.0,0.0,0.0,16093,11515,26566,33714,31913,2
0.0,0.0,0.0,15964,11478,26566,33714,31817,2
0.0,0.0,0.0,15710,11366,26566,33748,31978,2
0.0,0.0,0.0,15600,11317,26566,33887,31849,2
0.0,0.0,0.0,15757,11354,26513,33921,31881,2
0.0,0.0,0.0,16287,11478,26566,33956,31946,2
0.0,0.0,0.0,16093,11503,26566,33921,31913,2
0.0,0.0,0.0,15996,11515,26513,33852,31913,2
0.0,0.0,0.0,15980,11490,26513,33852,31913,2
0.0,0.0,0.0,15964,11478,26592,33956,31881,2
0.0,0.0,0.0,15726,11603,26723,34130,31913,2
0.0,0.0,0.0,15537,11804,26908,34130,32010,2
0.0,0.0,0.0,15490,11906,27015,34271,32043,2
0.0,0.0,0.0,15459,12112,27148,34447,32108,2
0.0,0.0,0.0,15288,12086,27364,34624,32238,2
0.0,0.0,0.0,15150,12021,27663,35272,32566,2
0.0,0.0,0.0,14846,11944,28022,35639,32666,2
0.0,0.0,0.0,14399,11678,28049,36047,32566,2
0.0,0.0,0.0,14079,11515,28189,36235,32633,2
0.0,0.0,0.0,13863,11416,28470,36462,32765,2
0.0,0.0,0.0,13650,11329,28783,36767,33100,2
0.0,0.0,0.0,13412,11280,29042,36998,33508,2
0.0,0.0,0.0,13287,11182,29158,37308,33991,2
0.0,0.0,0.0,13081,11024,29274,37308,34696,2
0.0,0.0,0.0,12797,10783,29158,37230,35565,2
0.0,0.0,0.0,12610,10641,29187,37114,36462,2
0.0,0.0,0.0,12583,10523,28898,36767,36310,2
0.0,0.0,0.0,12372,10476,28555,36160,37622,2
0.0,0.0,0.0,12267,10535,28217,36085,37860,2
0.0,0.0,0.0,12267,10582,28161,36047,37543,2
0.0,0.0,0.0,12241,10582,28049,36010,37583,2
0.0,0.0,0.0,12228,10499,27911,36010,37701,2
0.0,0.0,0.0,12189,10488,27691,35712,37465,2
0.0,0.0,0.0,12163,10453,27581,35455,37308,2
0.0,0.0,0.0,12124,10441,27472,35382,37386,2
0.0,0.0,0.0,12124,10441,27364,35309,37308,2
0.0,0.0,0.0,12176,10418,27364,35345,37308,2
0.0,0.0,0.0,12137,10371,27256,35345,37386,2
0.0,0.0,0.0,12112,10325,27122,35127,37269,2
0.0,0.0,0.0,11932,10325,27148,34982,37075,2
0.0,0.0,0.0,11932,10301,27175,34660,36843,2
0.0,0.0,0.0,11919,10267,27229,34412,36843,2
0.0,0.0,0.0,11893,10267,27256,34271,36690,2
0.0,0.0,0.0,11932,10267,27175,34235,36690,2
0.0,0.0,0.0,11919,10255,27148,34306,36538,2
0.0,0.0,0.0,12060,10267,26988,34200,36614,2
0.0,0.0,0.0,12112,10255,26988,34200,36538,2
0.0,0.0,0.0,12320,10221,26829,34130,36499,2
0.0,0.0,0.0,12215,10232,26776,34095,36614,2
0.0,0.0,0.0,12112,10221,26776,34130,36538,2
0.0,0.0,0.0,12060,10221,26749,33921,36462,2
0.0,0.0,0.0,12086,10163,26618,33852,36499,2
0.0,0.0,0.0,12150,10117,26513,33645,36348,2
0.0,0.0,0.0,12280,10071,26357,33303,36010,2
0.0,0.0,0.0,12398,10071,26357,33100,36047,2
0.0,0.0,0.0,12346,10071,26305,33033,36085,2
0.0,0.0,0.0,12346,10083,26305,32899,36010,2
0.0,0.0,0.0,12477,10071,26305,32435,35565,2
0.0,0.0,0.0,12504,10071,26253,32238,35272,2
0.0,0.0,0.0,12477,10071,26124,32108,35236,2
0.0,0.0,0.0,12530,10060,26022,31785,34874,2
0.0,0.0,0.0,12451,10049,25996,31656,34839,2
0.0,0.0,0.0,12438,10071,26047,31849,34731,2
0.0,0.0,0.0,12372,10071,26202,31913,34803,2
0.0,0.0,0.0,12320,10071,26124,31785,34589,2
0.0,0.0,0.0,12241,10071,26150,31881,34839,2
0.0,0.0,0.0,12202,10071,26099,31720,34696,2
0.0,0.0,0.0,12163,10083,26099,31720,34696,2
0.0,0.0,0.0,12047,10071,26253,31849,34874,2
0.0,0.0,0.0,11842,10083,26253,31881,34982,2
0.0,0.0,0.0,11703,10071,26305,31946,35018,2
0.0,0.0,0.0,11678,10083,26331,31913,35018,2
0.0,0.0,0.0,11665,10083,26331,31849,34910,2
0.0,0.0,0.0,11653,10071,26357,31817,35018,2
0.0,0.0,0.0,11628,10071,26409,31849,34982,2
0.0,0.0,0.0,11603,10071,26331,31849,34982,2
0.0,0.0,0.0,11640,10083,26305,31881,34839,2
0.0,0.0,0.0,11653,10094,26383,31817,34803,2
0.0,0.0,0.0,11653,10071,26202,31465,34482,2
0.0,0.0,0.0,11653,10071,26047,31213,34165,2
0.0,0.0,0.0,11703,10083,25894,31025,33991,2
0.0,0.0,0.0,11754,10049,25843,30900,33991,2
0.0,0.0,0.0,11804,10026,25793,30962,34095,2
0.0,0.0,0.0,11855,10003,25742,30962,34130,2
0.0,0.0,0.0,11855,9980,25691,31025,34165,2
0.0,0.0,0.0,11830,9980,25691,31119,34271,2
0.0,0.0,0.0,11766,10003,25691,31150,34376,2
0.0,0.0,0.0,11779,10094,26279,31213,34696,2
0.0,0.0,0.0,11855,10301,27122,31593,34589,2
0.0,0.0,0.0,11881,10313,27310,31785,34553,2
0.0,0.0,0.0,11855,10290,27202,31656,34447,2
0.0,0.0,0.0,11817,10255,27041,31497,34341,2
0.0,0.0,0.0,11779,10163,26513,31276,33991,2
0.0,0.0,0.0,11754,10071,26228,31150,34060,2
0.0,0.0,0.0,11754,10026,26099,31087,33887,2
0.0,0.0,0.0,11754,10014,26099,31087,33887,2
0.0,0.0,0.0,11703,10014,26022,31087,33852,2
0.0,0.0,0.0,11703,10003,25996,31087,33852,2
0.0,0.0,0.0,11678,10037,26099,31087,33956,2
0.0,0.0,0.0,11665,10209,26539,31213,33991,2
0.0,0.0,0.0,11703,10348,26961,31402,34060,2
0.0,0.0,0.0,11754,10348,27068,31465,33921,2
0.0,0.0,0.0,11766,10348,27175,31529,33852,2
0.0,0.0,0.0,11716,10348,27256,31593,33748,2
0.0,0.0,0.0,11703,10301,27256,31624,33371,2
0.0,0.0,0.0,11703,10267,27148,31624,33168,2
0.0,0.0,0.0,11703,10255,27148,31656,33202,2
0.0,0.0,0.0,11703,10301,27202,31785,33202,2
0.0,0.0,0.0,11703,10255,27256,31785,33303,2
0.0,0.0,0.0,11678,10267,27256,31913,33236,2
0.0,0.0,0.0,11665,10278,27364,32043,33337,2
0.0,0.0,0.0,11703,10255,27418,32043,33236,2
0.0,0.0,0.0,11665,10267,27636,32238,32932,2
0.0,0.0,0.0,11703,10255,27828,32043,32303,2
0.0,0.0,0.0,11703,10221,27856,31849,31913,2
0.0,0.0,0.0,11653,10163,27581,31624,31978,2
0.0,0.0,0.0,11678,10140,27499,31497,31849,2
0.0,0.0,0.0,11678,10094,27418,31497,31849,2
0.0,0.0,0.0,11678,10117,27364,31497,31849,2
0.0,0.0,0.0,11703,10083,27364,31434,31688,2
0.0,0.0,0.0,11691,10094,27364,31465,31752,2
0.0,0.0,0.0,11703,10083,27310,31402,31656,2
0.0,0.0,0.0,11678,10071,27256,31465,31785,2
0.0,0.0,0.0,11678,10060,27148,31402,31913,2
0.0,0.0,0.0,11640,10049,26855,31276,32108,2
0.0,0.0,0.0,11703,10117,26723,31119,32140,2
0.0,0.0,0.0,11716,10049,26723,31150,32271,2
0.0,0.0,0.0,11754,10003,26618,31087,32402,2
0.0,0.0,0.0,11804,9980,26513,31025,32402,2
0.0,0.0,0.0,11817,9958,26383,30900,32500,2
0.0,0.0,0.0,11804,9958,26357,30962,32566,2
0.0,0.0,0.0,11804,9958,26305,31025,32435,2
0.0,0.0,0.0,11817,9946,26305,31087,32500,2
0.0,0.0,0.0,11855,9935,26202,30962,32402,2
0.0,0.0,0.0,11804,9958,26253,30962,32369,2
0.0,0.0,0.0,11779,9980,26305,30962,32533,2
0.0,0.0,0.0,11754,9980,26305,30962,32500,2
0.0,0.0,0.0,11766,9980,26305,31025,32467,2
0.0,0.0,0.0,11754,9992,26305,30962,32500,2
0.0,0.0,0.0,11754,10003,26305,30994,32765,2
0.0,0.0,0.0,11716,10003,26279,31025,32832,2
0.0,0.0,0.0,11754,10003,26305,30931,32799,2
0.0,0.0,0.0,11741,10026,26305,30962,32765,2
0.0,0.0,0.0,11716,10026,26228,30900,32765,2
0.0,0.0,0.0,11728,10026,26253,30962,32799,2
0.0,0.0,0.0,11703,10003,26279,30962,32799,2
0.0,0.0,0.0,11691,10003,26228,30900,32866,2
0.0,0.0,0.0,11716,10026,26202,30869,32832,2
0.0,0.0,0.0,11703,10026,26305,30838,32765,2
0.0,0.0,0.0,11703,10026,26176,30900,32765,2
0.0,0.0,0.0,11678,10026,26253,30931,32699,2
0.0,0.0,0.0,11703,10037,26202,30900,32732,2
0.0,0.0,0.0,11703,10049,26279,30900,32765,2
0.0,0.0,0.0,11678,10049,26202,30869,32732,2
0.0,0.0,0.0,11691,10037,26202,30931,32765,2
0.0,0.0,0.0,11678,10037,26202,30931,32799,2
0.0,0.0,0.0,11653,10026,26124,30838,32699,2
0.0,0.0,0.0,11603,10026,26124,30715,32699,2
0.0,0.0,0.0,11565,10026,26150,30776,32633,2
0.0,0.0,0.0,11565,10049,26202,30838,32633,2
0.0,0.0,0.0,11553,10348,26383,30776,32633,2
0.0,0.0,0.0,11565,10535,26908,30869,32533,2
0.0,0.0,0.0,11578,10488,26829,30776,32500,2
0.0,0.0,0.0,11578,10255,26305,30591,32467,2
0.0,0.0,0.0,11553,10140,26202,30591,32500,2
0.0,0.0,0.0,11578,10037,26124,30591,32500,2
0.0,0.0,0.0,11603,10049,26099,30622,32566,2
0.0,0.0,0.0,11578,10037,26124,30715,32633,2
0.0,0.0,0.0,11553,10026,26099,30745,32633,2
0.0,0.0,0.0,11553,10037,26073,30715,32633,2
0.0,0.0,0.0,11553,10037,26073,30715,32599,2
0.0,0.0,0.0,11553,10049,26073,30653,32500,2
0.0,0.0,0.0,11565,10071,26099,30622,32533,2
0.0,0.0,0.0,11553,10071,26099,30715,32633,2
0.0,0.0,0.0,11565,10071,26099,30715,32566,2
0.0,0.0,0.0,11578,10071,26099,30745,32599,2
0.0,0.0,0.0,11578,10083,26150,30745,32666,2
0.0,0.0,0.0,11553,10071,26073,30715,32666,2
0.0,0.0,0.0,11578,10071,26099,30715,32566,2
0.0,0.0,0.0,11578,10083,26099,30653,32533,2
0.0,0.0,0.0,11553,10094,26124,30653,32566,2
0.0,0.0,0.0,11565,10083,26099,30715,32633,2
0.0,0.0,0.0,11603,10094,26176,30715,32633,2
0.0,0.0,0.0,11578,10094,26150,30715,32566,2
0.0,0.0,0.0,11578,10094,26124,30622,32566,2
0.0,0.0,0.0,11565,10094,26099,30715,32633,2
0.0,0.0,0.0,11565,10106,26124,30653,32599,2
0.0,0.0,0.0,11590,10106,26099,30715,32533,2
0.0,0.0,0.0,11578,10117,26099,30745,32633,2
0.0,0.0,0.0,11603,10117,26124,30684,32633,2
0.0,0.0,0.0,11603,10117,26124,30715,32633,2
0.0,0.0,0.0,11565,10117,26150,30776,32666,2
0.0,0.0,0.0,11553,10117,26124,30776,32666,2
0.0,0.0,0.0,11528,10117,26124,30653,32566,2
0.0,0.0,0.0,11553,10106,26047,30653,32500,2
0.0,0.0,0.0,11553,10094,26099,30591,32500,2
0.0,0.0,0.0,11528,10071,26073,30591,32435,2
0.0,0.0,0.0,11553,10071,26047,30469,32435,2
0.0,0.0,0.0,11565,10049,25945,30530,32500,2
0.0,0.0,0.0,11640,10037,25920,30438,32500,2
0.0,0.0,0.0,11653,10026,25920,30469,32500,2
0.0,0.0,0.0,11703,10003,25920,30469,32500,2
0.0,0.0,0.0,11728,9980,25920,30469,32633,2
0.0,0.0,0.0,11766,9980,25793,30469,32533,2
0.0,0.0,0.0,11766,9980,25996,30622,32765,2
0.0,0.0,0.0,11804,9958,26253,30838,32966,2
0.0,0.0,0.0,11716,9958,26228,31056,33236,2
0.0,0.0,0.0,11728,9958,26099,31087,33337,2
0.0,0.0,0.0,11716,9980,26047,31181,33303,2
0.0,0.0,0.0,11628,10003,25996,31087,33303,2
0.0,0.0,0.0,11754,10140,26124,31087,33439,2
0.0,0.0,0.0,11691,10371,26435,31087,33371,2
0.0,0.0,0.0,11703,10453,27148,31087,33303,2
0.0,0.0,0.0,11665,10441,27911,31213,33168,2
0.0,0.0,0.0,11665,10441,28049,31276,32932,2
0.0,0.0,0.0,11653,10406,28022,31213,32899,2
0.0,0.0,0.0,11615,10371,28077,31339,32666,2
0.0,0.0,0.0,11628,10371,28133,31370,32533,2
0.0,0.0,0.0,11628,10359,28217,31593,32566,2
0.0,0.0,0.0,11615,10348,28245,31593,32533,2
0.0,0.0,0.0,11628,10348,28273,31593,32500,2
0.0,0.0,0.0,11628,10301,28049,31561,32369,2
0.0,0.0,0.0,11628,10301,28022,31465,32369,2
0.0,0.0,0.0,11653,10244,27911,31529,32369,2
0.0,0.0,0.0,11665,10174,27663,31276,31978,2
0.0,0.0,0.0,11716,10083,26988,30838,31978,2
0.0,0.0,0.0,11653,10071,26776,30653,31849,2
0.0,0.0,0.0,11615,10129,26670,30838,32238,2
0.0,0.0,0.0,11603,10209,26855,31656,32899,2
0.0,0.0,0.0,11553,10209,26829,32173,33303,2
0.0,0.0,0.0,11553,10232,26829,32173,33474,2
0.0,0.0,0.0,11553,10301,26935,32435,33542,2
0.0,0.0,0.0,11379,10301,26776,32435,33645,2
0.0,0.0,0.0,11304,10371,26776,32765,33852,2
0.0,0.0,0.0,11280,10558,27499,34482,34839,2
0.0,0.0,0.0,11317,10927,28357,36160,36235,2
0.0,0.0,0.0,11428,11206,28984,37701,36843,2
0.0,0.0,0.0,11703,11391,29391,38503,37269,2
0.0,0.0,0.0,11754,11503,29746,38707,37308,2
0.0,0.0,0.0,11868,11416,29509,38503,37230,2
0.0,0.0,0.0,12320,11354,29509,38059,36882,2
0.0,0.0,0.0,12878,11354,29333,38019,36805,2
0.0,0.0,0.0,13412,11366,29479,38220,37152,2
0.0,0.0,0.0,13538,11403,29627,38503,37191,2
0.0,0.0,0.0,13608,11453,29925,38789,37465,2
0.0,0.0,0.0,13371,11465,30165,39036,37701,2
0.0,0.0,0.0,12770,11366,30408,39621,38180,2
0.0,0.0,0.0,12280,11354,30745,40173,38830,2
0.0,0.0,0.0,11766,11231,30994,40605,39578,2
0.0,0.0,0.0,11919,11133,31307,41088,39705,2
0.0,0.0,0.0,12228,11157,31688,41622,39917,2
0.0,0.0,0.0,12293,11133,31881,41577,40002,2
0.0,0.0,0.0,12320,10939,32075,41088,39663,2
0.0,0.0,0.0,12346,10795,32369,40259,39452,2
0.0,0.0,0.0,12267,10664,32500,39494,39077,2
0.0,0.0,0.0,12228,10629,32500,38995,38585,2
0.0,0.0,0.0,12176,10617,32369,38422,38341,2
0.0,0.0,0.0,12124,10629,32369,38301,38260,2
0.0,0.0,0.0,12124,10629,32336,38180,38059,2
0.0,0.0,0.0,12073,10629,32303,38059,38019,2
0.0,0.0,0.0,12086,10629,32369,37940,37900,2
0.0,0.0,0.0,12099,10582,32533,38019,37622,2
0.0,0.0,0.0,12112,10582,32533,37741,37308,2
0.0,0.0,0.0,12086,10582,32467,37741,37152,2
0.0,0.0,0.0,12060,10535,32533,37543,37230,2
0.0,0.0,0.0,12021,10488,32533,37308,37114,2
0.0,0.0,0.0,11970,10488,32533,37308,36998,2
0.0,0.0,0.0,11957,10464,32500,37308,36690,2
0.0,0.0,0.0,11919,10453,32500,37191,36690,2
0.0,0.0,0.0,11906,10488,32500,37230,36538,2
0.0,0.0,0.0,11868,10488,32435,37191,36538,2
0.0,0.0,0.0,11906,10499,32467,37386,36499,2
0.0,0.0,0.0,11881,10499,32435,37230,36499,2
0.0,0.0,0.0,11881,10499,32533,37308,36386,2
0.0,0.0,0.0,11855,10511,32500,37308,36462,2
0.0,0.0,0.0,11830,10535,32467,37230,36462,2
0.0,0.0,0.0,11881,10535,32500,37191,36424,2
0.0,0.0,0.0,11855,10535,32500,37269,36424,2
0.0,0.0,0.0,11817,10546,32435,37114,36386,2
0.0,0.0,0.0,11817,10582,32467,37191,36386,2
0.0,0.0,0.0,11804,10582,32369,37075,36348,2
0.0,0.0,0.0,11804,10582,32336,37075,36310,2
0.0,0.0,0.0,11804,10582,32369,37191,36348,2
0.0,0.0,0.0,11804,10605,32369,37152,36272,2
0.0,0.0,0.0,11804,10605,32271,37114,36310,2
0.0,0.0,0.0,11792,10582,32238,37075,36386,2
0.0,0.0,0.0,11779,10594,32238,37114,36310,2
0.0,0.0,0.0,11766,10605,32205,37075,36235,2
0.0,0.0,0.0,11754,10594,32140,36920,36310,2
0.0,0.0,0.0,11766,10629,32238,36959,36348,2
0.0,0.0,0.0,11728,10594,32140,36920,36197,2
0.0,0.0,0.0,11766,10617,32108,36959,36348,2
0.0,0.0,0.0,11703,10605,32140,36920,36310,2
0.0,0.0,0.0,11754,10629,32043,36920,36235,2
0.0,0.0,0.0,11779,10605,32010,36920,36197,2
0.0,0.0,0.0,11766,10629,32075,37036,36235,2
0.0,0.0,0.0,11754,10605,32043,36920,36235,2
0.0,0.0,0.0,11766,10594,32075,36998,36197,2
0.0,0.0,0.0,11716,10605,32108,36920,36122,2
0.0,0.0,0.0,11716,10629,32075,36920,36160,2
0.0,0.0,0.0,11716,10629,31978,36920,36122,2
0.0,0.0,0.0,11754,10605,32075,36805,36160,2
0.0,0.0,0.0,11754,10617,31978,36843,36085,2
0.0,0.0,0.0,11728,10629,31978,36843,36122,2
0.0,0.0,0.0,11754,10617,31913,36805,36197,2
0.0,0.0,0.0,11754,10605,32010,36767,36160,2
0.0,0.0,0.0,11754,10605,31913,36843,36160,2
0.0,0.0,0.0,11716,10629,31913,36805,36197,2
0.0,0.0,0.0,11754,10594,31946,36843,36160,2
0.0,0.0,0.0,11716,10605,31913,36843,36160,2
0.0,0.0,0.0,11728,10629,31881,36767,36235,2
0.0,0.0,0.0,11754,10629,31946,36843,36160,2
0.0,0.0,0.0,11754,10629,31881,36843,36160,2
0.0,0.0,0.0,11716,10629,31849,36805,36160,2
