GyroX,GyroY,GyroZ,Thumb,Index,Middle,Ring,Pinky,Gesture
0.0,0.0,0.0,16385,10605,26513,31465,43235,2
0.0,0.0,0.0,16401,10605,26435,31402,43046,2
0.0,0.0,0.0,16385,10629,26409,31402,42953,2
0.0,0.0,0.0,16417,10641,26461,31402,43046,2
0.0,0.0,0.0,16417,10676,26435,31465,43140,2
0.0,0.0,0.0,16352,10712,26435,31465,42906,2
0.0,0.0,0.0,16417,10748,26461,31497,43000,2
0.0,0.0,0.0,16368,10783,26513,31339,43000,2
0.0,0.0,0.0,16385,10795,26566,31593,42953,2
0.0,0.0,0.0,16417,10843,26566,31593,43046,2
0.0,0.0,0.0,16385,10867,26618,31688,42953,2
0.0,0.0,0.0,16417,10879,26670,31720,42906,2
0.0,0.0,0.0,16352,10915,26618,31688,42673,2
0.0,0.0,0.0,16385,10891,26670,31785,42626,2
0.0,0.0,0.0,16352,10903,26697,31720,42580,2
0.0,0.0,0.0,16352,10915,26670,31785,42719,2
0.0,0.0,0.0,16336,10915,26723,31817,42534,2
0.0,0.0,0.0,16287,10927,26723,31849,42488,2
0.0,0.0,0.0,16254,10927,26723,31881,42580,2
0.0,0.0,0.0,16254,10927,26723,31849,42580,2
0.0,0.0,0.0,16222,10963,26723,31881,42488,2
0.0,0.0,0.0,16222,10963,26749,31881,42349,2
0.0,0.0,0.0,16157,10987,26749,31913,42488,2
0.0,0.0,0.0,16173,10963,26723,31849,42349,2
0.0,0.0,0.0,16157,10963,26670,31849,42488,2
0.0,0.0,0.0,16125,10927,26670,31817,42349,2
0.0,0.0,0.0,16141,10927,26670,31785,42395,2
0.0,0.0,0.0,16157,10915,26670,31913,42349,2
0.0,0.0,0.0,16141,10927,26670,31849,42442,2
0.0,0.0,0.0,16125,10867,26697,31817,42304,2
0.0,0.0,0.0,16093,10819,26723,31817,42349,2
0.0,0.0,0.0,16125,10771,26670,31849,42349,2
0.0,0.0,0.0,16028,10748,26723,31817,42304,2
0.0,0.0,0.0,16028,10748,26723,31849,42304,2
0.0,0.0,0.0,16028,10748,26723,31785,42212,2
0.0,0.0,0.0,16028,10748,26723,31849,42304,2
0.0,0.0,0.0,15996,10748,26644,31785,42212,2
0.0,0.0,0.0,16028,10771,26670,31849,42304,2
0.0,0.0,0.0,16028,10771,26644,31785,42304,2
0.0,0.0,0.0,15996,10771,26644,31785,42166,2
0.0,0.0,0.0,15964,10783,26644,31817,42304,2
0.0,0.0,0.0,15916,10771,26618,31785,42120,2
0.0,0.0,0.0,15964,10783,26592,31849,42120,2
0.0,0.0,0.0,15996,10795,26644,31849,42120,2
0.0,0.0,0.0,15932,10771,26539,31752,42120,2
0.0,0.0,0.0,15932,10771,26618,31752,42120,2
0.0,0.0,0.0,15932,10795,26618,31752,42212,2
0.0,0.0,0.0,15964,10795,26618,31720,42075,2
0.0,0.0,0.0,15932,10795,26644,31656,42166,2
0.0,0.0,0.0,15964,10819,26618,31688,42212,2
0.0,0.0,0.0,15964,10795,26592,31688,42075,2
0.0,0.0,0.0,15932,10748,26566,31785,42166,2
0.0,0.0,0.0,15884,10748,26697,31785,42304,2
0.0,0.0,0.0,15868,10641,26776,31913,42395,2
0.0,0.0,0.0,15789,10582,26776,31849,42395,2
0.0,0.0,0.0,15868,10582,26829,31752,42488,2
0.0,0.0,0.0,15916,10558,26855,31624,42395,2
0.0,0.0,0.0,15868,10535,26829,31624,42304,2
0.0,0.0,0.0,15852,10499,26776,31593,42395,2
0.0,0.0,0.0,15821,10511,26776,31561,42304,2
0.0,0.0,0.0,15789,10464,26829,31656,42395,2
0.0,0.0,0.0,15773,10453,26802,31656,42212,2
0.0,0.0,0.0,15710,10429,26829,31529,42212,2
0.0,0.0,0.0,15678,10418,26749,31529,42029,2
0.0,0.0,0.0,15678,10394,26776,31624,42075,2
0.0,0.0,0.0,15710,10394,26723,31561,42120,2
0.0,0.0,0.0,15663,10406,26723,31593,42075,2
0.0,0.0,0.0,15647,10406,26723,31497,42029,2
0.0,0.0,0.0,15663,10429,26723,31593,41938,2
0.0,0.0,0.0,15678,10441,26697,31593,42029,2
0.0,0.0,0.0,15631,10488,26670,31656,41938,2
0.0,0.0,0.0,15631,10499,26670,31593,41893,2
0.0,0.0,0.0,15584,10535,26697,31624,41757,2
0.0,0.0,0.0,15600,10546,26723,31593,41803,2
0.0,0.0,0.0,15615,10582,26723,31656,41938,2
0.0,0.0,0.0,15663,10605,26776,31785,41848,2
0.0,0.0,0.0,15678,10688,26802,31785,41757,2
0.0,0.0,0.0,15741,10688,26776,31752,41848,2
0.0,0.0,0.0,15741,10724,26776,31785,41757,2
0.0,0.0,0.0,15710,10712,26723,31817,41667,2
0.0,0.0,0.0,15663,10688,26723,31849,41622,2
0.0,0.0,0.0,15678,10653,26723,31785,41577,2
0.0,0.0,0.0,15710,10664,26723,31785,41577,2
0.0,0.0,0.0,15694,10676,26723,31720,41803,2
0.0,0.0,0.0,15678,10664,26723,31849,41577,2
0.0,0.0,0.0,15710,10676,26723,31849,41667,2
0.0,0.0,0.0,15678,10653,26670,31720,41443,2
0.0,0.0,0.0,15647,10629,26697,31849,41399,2
0.0,0.0,0.0,15647,10629,26618,31688,41443,2
0.0,0.0,0.0,15647,10664,26618,31720,41399,2
0.0,0.0,0.0,15600,10653,26644,31785,41221,2
0.0,0.0,0.0,15615,10676,26618,31752,41354,2
0.0,0.0,0.0,15584,10664,26670,31817,41309,2
0.0,0.0,0.0,15600,10676,26723,31817,41309,2
0.0,0.0,0.0,15615,10688,26723,31752,41399,2
0.0,0.0,0.0,15584,10724,26723,31720,41309,2
0.0,0.0,0.0,15600,10748,26697,31785,41354,2
0.0,0.0,0.0,15615,10748,26723,31849,41221,2
0.0,0.0,0.0,15584,10748,26697,31720,41265,2
0.0,0.0,0.0,15584,10688,26749,31785,41309,2
0.0,0.0,0.0,15553,10688,26697,31720,41221,2
0.0,0.0,0.0,15537,10700,26723,31785,41265,2
0.0,0.0,0.0,15521,10688,26749,31785,41221,2
0.0,0.0,0.0,15553,10724,26723,31785,41265,2
0.0,0.0,0.0,15521,10700,26697,31785,41132,2
0.0,0.0,0.0,15521,10724,26697,31752,41221,2
0.0,0.0,0.0,15490,10771,26749,31720,41088,2
0.0,0.0,0.0,15537,10987,26829,31817,41221,2
0.0,0.0,0.0,15459,11182,26855,31849,41088,2
0.0,0.0,0.0,15490,11255,26935,31913,41265,2
0.0,0.0,0.0,15490,11565,26935,31849,41132,2
0.0,0.0,0.0,15475,11603,26882,31881,40912,2
0.0,0.0,0.0,15475,11996,26935,31913,41044,2
0.0,0.0,0.0,15459,12086,26935,31881,41000,2
0.0,0.0,0.0,15443,12346,26882,31913,40912,2
0.0,0.0,0.0,15412,12610,26935,31946,41044,2
0.0,0.0,0.0,15459,12864,26935,31913,40912,2
0.0,0.0,0.0,15412,13287,26908,31946,40780,2
0.0,0.0,0.0,15459,13412,26855,31946,40868,2
0.0,0.0,0.0,15459,13040,26829,31881,40780,2
0.0,0.0,0.0,15428,12797,26882,31913,41000,2
0.0,0.0,0.0,15459,12477,26855,31849,40868,2
0.0,0.0,0.0,15459,12189,26829,31785,40780,2
0.0,0.0,0.0,15459,12060,26829,31752,40649,2
0.0,0.0,0.0,15397,11906,26829,31817,40868,2
0.0,0.0,0.0,15459,11868,26829,31785,40780,2
0.0,0.0,0.0,15459,11817,26882,31785,40780,2
0.0,0.0,0.0,15428,11855,26829,31720,40736,2
0.0,0.0,0.0,15459,11957,26829,31817,40736,2
0.0,0.0,0.0,15412,12060,26776,31752,40562,2
0.0,0.0,0.0,15475,12438,26855,31849,40824,2
0.0,0.0,0.0,15521,12770,26882,31913,40736,2
0.0,0.0,0.0,15521,13040,26935,31978,40693,2
0.0,0.0,0.0,15521,13013,26829,31881,40605,2
0.0,0.0,0.0,15475,12824,26908,31913,40780,2
0.0,0.0,0.0,15506,12690,26855,31881,40693,2
0.0,0.0,0.0,15490,12663,26829,31849,40693,2
0.0,0.0,0.0,15475,12636,26829,31978,40693,2
0.0,0.0,0.0,15459,12112,26829,31849,40780,2
0.0,0.0,0.0,15397,11766,26829,31720,40562,2
0.0,0.0,0.0,15412,11678,26776,31720,40736,2
0.0,0.0,0.0,15412,11741,26670,31720,40649,2
0.0,0.0,0.0,15443,12060,26776,31849,40519,2
0.0,0.0,0.0,15428,12385,26882,31946,40736,2
0.0,0.0,0.0,15459,12530,26882,31881,40519,2
0.0,0.0,0.0,15475,12851,27068,32010,40649,2
0.0,0.0,0.0,15506,13315,27256,32043,40693,2
0.0,0.0,0.0,15506,13849,27364,32140,40649,2
0.0,0.0,0.0,15459,14064,27445,32173,40736,2
0.0,0.0,0.0,15475,13992,27364,32108,40693,2
0.0,0.0,0.0,15459,13849,27283,32108,40562,2
0.0,0.0,0.0,15428,13764,27310,32043,40693,2
0.0,0.0,0.0,15475,13735,27283,32173,40693,2
0.0,0.0,0.0,15412,13721,27256,32043,40693,2
0.0,0.0,0.0,15459,13735,27283,32043,40868,2
0.0,0.0,0.0,15490,13735,27175,32108,40736,2
0.0,0.0,0.0,15459,13707,27148,32043,40649,2
0.0,0.0,0.0,15459,13622,27148,31978,40519,2
0.0,0.0,0.0,15459,13510,27148,31978,40605,2
0.0,0.0,0.0,15428,13122,27041,31978,40605,2
0.0,0.0,0.0,15428,12905,26961,31849,40693,2
0.0,0.0,0.0,15428,12267,26935,31849,40693,2
0.0,0.0,0.0,15397,12254,26882,31785,40562,2
0.0,0.0,0.0,15381,12228,26723,31785,40519,2
0.0,0.0,0.0,15428,12267,26776,31752,40519,2
0.0,0.0,0.0,15397,12583,26776,31849,40519,2
0.0,0.0,0.0,15397,13040,26776,31817,40605,2
0.0,0.0,0.0,15428,13274,26749,31817,40432,2
0.0,0.0,0.0,15459,13566,26855,31849,40649,2
0.0,0.0,0.0,15412,13636,26829,31849,40605,2
0.0,0.0,0.0,15459,13398,26829,31849,40475,2
0.0,0.0,0.0,15412,13122,26855,31785,40693,2
0.0,0.0,0.0,15397,13027,26802,31656,40562,2
0.0,0.0,0.0,15412,13068,26749,31656,40605,2
0.0,0.0,0.0,15397,13040,26749,31785,40389,2
0.0,0.0,0.0,15397,12972,26829,31849,40519,2
0.0,0.0,0.0,15459,12986,26776,31817,40605,2
0.0,0.0,0.0,15366,12959,26749,31849,40519,2
0.0,0.0,0.0,15428,13068,26776,31752,40693,2
0.0,0.0,0.0,15459,13232,26855,31849,40389,2
0.0,0.0,0.0,15443,13454,26908,31881,40605,2
0.0,0.0,0.0,15459,13693,26935,31752,40432,2
0.0,0.0,0.0,15443,13398,26908,31849,40432,2
0.0,0.0,0.0,15412,13027,26855,31785,40389,2
0.0,0.0,0.0,15381,12690,26749,31720,40519,2
0.0,0.0,0.0,15397,12346,26670,31593,40432,2
0.0,0.0,0.0,15335,12112,26670,31529,40475,2
0.0,0.0,0.0,15335,11553,26697,31465,40432,2
0.0,0.0,0.0,15273,11341,26723,31465,40346,2
0.0,0.0,0.0,15211,11170,26776,31370,40432,2
0.0,0.0,0.0,15227,11304,26566,31402,40649,2
0.0,0.0,0.0,15335,11817,26513,31624,40693,2
0.0,0.0,0.0,15366,12477,26723,31752,40519,2
0.0,0.0,0.0,15397,12905,26829,31817,40693,2
0.0,0.0,0.0,15397,13538,26961,31785,40780,2
0.0,0.0,0.0,15366,13964,27095,31913,40519,2
0.0,0.0,0.0,15335,13878,27095,31849,40519,2
0.0,0.0,0.0,15366,13426,27041,31785,40605,2
0.0,0.0,0.0,15335,13246,26961,31720,40519,2
0.0,0.0,0.0,15335,13027,26961,31720,40605,2
0.0,0.0,0.0,15288,12810,26829,31785,40346,2
0.0,0.0,0.0,15288,12649,26802,31593,40346,2
0.0,0.0,0.0,15273,12530,26776,31593,40346,2
0.0,0.0,0.0,15288,12320,26723,31593,40475,2
0.0,0.0,0.0,15273,12215,26618,31465,40346,2
0.0,0.0,0.0,15273,12163,26618,31497,40389,2
0.0,0.0,0.0,15258,11906,26644,31529,40346,2
0.0,0.0,0.0,15273,11603,26592,31402,40346,2
0.0,0.0,0.0,15227,11515,26566,31339,40173,2
0.0,0.0,0.0,15211,11503,26461,31402,40259,2
0.0,0.0,0.0,15304,11565,26409,31339,40173,2
0.0,0.0,0.0,15227,11653,26461,31370,40173,2
0.0,0.0,0.0,15273,11678,26461,31276,40173,2
0.0,0.0,0.0,15273,11703,26435,31339,40131,2
0.0,0.0,0.0,15242,11754,26383,31339,40173,2
0.0,0.0,0.0,15242,11804,26409,31434,40045,2
0.0,0.0,0.0,15242,11804,26409,31276,40173,2
0.0,0.0,0.0,15242,11817,26357,31434,40173,2
0.0,0.0,0.0,15227,11817,26409,31370,40346,2
0.0,0.0,0.0,15211,11855,26409,31339,40088,2
0.0,0.0,0.0,15211,11804,26409,31339,40173,2
0.0,0.0,0.0,15242,11804,26409,31370,40173,2
0.0,0.0,0.0,15211,11766,26409,31402,40088,2
0.0,0.0,0.0,15227,11779,26357,31370,40002,2
0.0,0.0,0.0,15211,11804,26357,31402,40131,2
0.0,0.0,0.0,15227,12163,26383,31339,40088,2
0.0,0.0,0.0,15211,12398,26357,31370,40045,2
0.0,0.0,0.0,15227,12636,26383,31402,40173,2
0.0,0.0,0.0,15288,12824,26409,31465,40173,2
0.0,0.0,0.0,15273,12918,26435,31434,40216,2
0.0,0.0,0.0,15273,13232,26461,31497,40173,2
0.0,0.0,0.0,15242,13510,26409,31465,40088,2
0.0,0.0,0.0,15258,13849,26409,31529,40002,2
0.0,0.0,0.0,15242,14021,26461,31465,40088,2
0.0,0.0,0.0,15242,13863,26409,31465,40088,2
0.0,0.0,0.0,15242,13665,26487,31465,40173,2
0.0,0.0,0.0,15227,13454,26383,31434,40002,2
0.0,0.0,0.0,15273,13287,26409,31402,40131,2
0.0,0.0,0.0,15211,13232,26357,31434,40131,2
0.0,0.0,0.0,15227,13177,26435,31465,40173,2
0.0,0.0,0.0,15242,13150,26357,31465,40045,2
0.0,0.0,0.0,15242,13068,26409,31339,40002,2
0.0,0.0,0.0,15211,12932,26409,31434,40173,2
0.0,0.0,0.0,15242,12623,26305,31276,40002,2
0.0,0.0,0.0,15227,12372,26357,31339,39917,2
0.0,0.0,0.0,15196,12060,26357,31339,40002,2
0.0,0.0,0.0,15165,11919,26331,31276,39960,2
0.0,0.0,0.0,15181,11804,26305,31276,39960,2
0.0,0.0,0.0,15181,11578,26383,31213,40131,2
0.0,0.0,0.0,15165,11553,26305,31150,40002,2
0.0,0.0,0.0,15119,11428,26305,31213,40045,2
0.0,0.0,0.0,15150,11403,26279,31087,40045,2
0.0,0.0,0.0,15104,11403,26253,31213,40002,2
0.0,0.0,0.0,15104,11453,26202,31119,39832,2
0.0,0.0,0.0,15089,11416,26202,31087,39874,2
0.0,0.0,0.0,15119,11440,26202,31087,39874,2
0.0,0.0,0.0,15089,11428,26202,31087,39917,2
0.0,0.0,0.0,15089,11416,26176,31150,39790,2
0.0,0.0,0.0,15150,11428,26228,31087,39874,2
0.0,0.0,0.0,15089,11428,26150,31150,39917,2
0.0,0.0,0.0,15104,11453,26176,31119,40002,2
0.0,0.0,0.0,15089,11453,26202,31150,39832,2
0.0,0.0,0.0,15089,11453,26150,31150,39832,2
0.0,0.0,0.0,15089,11453,26202,31087,39747,2
0.0,0.0,0.0,15119,11478,26150,31119,39874,2
0.0,0.0,0.0,15181,11503,26124,31087,39917,2
0.0,0.0,0.0,15104,11553,26124,31087,39747,2
0.0,0.0,0.0,15104,11553,26124,31119,39790,2
0.0,0.0,0.0,15089,11603,26124,31087,39874,2
0.0,0.0,0.0,15089,11615,26150,31181,39832,2
0.0,0.0,0.0,15089,11615,26124,31087,39832,2
0.0,0.0,0.0,15089,11640,26150,31213,39874,2
0.0,0.0,0.0,15104,11653,26124,31119,39832,2
0.0,0.0,0.0,15119,11653,26099,31119,39663,2
0.0,0.0,0.0,15089,11653,26202,31150,39832,2
0.0,0.0,0.0,15104,12009,26124,31150,39747,2
0.0,0.0,0.0,15089,12346,26124,31087,39790,2
0.0,0.0,0.0,15119,12824,26202,31213,39747,2
0.0,0.0,0.0,15181,13260,26228,31213,39832,2
0.0,0.0,0.0,15211,13524,26202,31307,39832,2
0.0,0.0,0.0,15165,13510,26253,31370,39832,2
0.0,0.0,0.0,15165,13343,26228,31307,39832,2
0.0,0.0,0.0,15150,13013,26253,31244,39747,2
0.0,0.0,0.0,15119,12959,26202,31339,39874,2
0.0,0.0,0.0,15104,12932,26150,31339,39917,2
0.0,0.0,0.0,15089,12824,26150,31213,39790,2
0.0,0.0,0.0,15135,12690,26150,31150,39790,2
0.0,0.0,0.0,15089,12543,26202,31213,39747,2
0.0,0.0,0.0,15089,12464,26150,31087,39790,2
0.0,0.0,0.0,15089,12372,26176,31181,39747,2
0.0,0.0,0.0,15074,12293,26150,31150,39832,2
0.0,0.0,0.0,15089,12215,26124,31150,39705,2
0.0,0.0,0.0,15043,12189,26150,31025,39621,2
0.0,0.0,0.0,15089,12176,26176,31150,39874,2
0.0,0.0,0.0,15043,12176,26124,31025,39621,2
0.0,0.0,0.0,15089,12202,26124,31150,39663,2
0.0,0.0,0.0,15089,12086,26202,31150,39832,2
0.0,0.0,0.0,15074,11868,26124,31025,39705,2
0.0,0.0,0.0,15043,11817,26150,31087,39663,2
0.0,0.0,0.0,15028,11766,26150,30962,39663,2
0.0,0.0,0.0,15058,11792,26124,31025,39747,2
0.0,0.0,0.0,15058,11754,26099,30994,39705,2
0.0,0.0,0.0,15074,11779,26099,30962,39747,2
0.0,0.0,0.0,15074,11766,26124,31025,39663,2
0.0,0.0,0.0,15028,11766,26124,30994,39663,2
0.0,0.0,0.0,15043,11754,26099,31056,39663,2
0.0,0.0,0.0,15043,11728,26047,30994,39621,2
0.0,0.0,0.0,15058,11716,26099,30994,39621,2
0.0,0.0,0.0,15058,11792,26099,31025,39578,2
0.0,0.0,0.0,15043,11766,26047,31025,39705,2
0.0,0.0,0.0,15058,11754,26099,30994,39578,2
0.0,0.0,0.0,15089,11665,26099,30962,39663,2
0.0,0.0,0.0,15013,11553,26099,30994,39621,2
0.0,0.0,0.0,15058,11416,26124,30900,39663,2
0.0,0.0,0.0,15028,11304,26099,30900,39621,2
0.0,0.0,0.0,15058,11170,26124,30900,39663,2
0.0,0.0,0.0,15028,11060,26228,30869,39663,2
0.0,0.0,0.0,15028,11024,26253,30869,39578,2
0.0,0.0,0.0,15028,11012,26228,30776,39578,2
0.0,0.0,0.0,15013,10963,26228,30838,39832,2
0.0,0.0,0.0,15028,10963,26228,30776,39621,2
0.0,0.0,0.0,14967,10963,26228,30838,39663,2
0.0,0.0,0.0,14997,10963,26253,30869,39747,2
0.0,0.0,0.0,14997,10963,26202,30745,39494,2
0.0,0.0,0.0,14982,10939,26202,30838,39663,2
0.0,0.0,0.0,14967,10963,26150,30776,39536,2
0.0,0.0,0.0,14967,10963,26202,30838,39536,2
0.0,0.0,0.0,14982,10963,26150,30715,39536,2
0.0,0.0,0.0,14982,10975,26099,30684,39494,2
0.0,0.0,0.0,14997,10951,26150,30838,39578,2
0.0,0.0,0.0,14967,10987,26047,30776,39494,2
0.0,0.0,0.0,14997,10975,26099,30745,39494,2
0.0,0.0,0.0,14967,10963,26047,30715,39494,2
0.0,0.0,0.0,14967,10963,26022,30715,39578,2
0.0,0.0,0.0,14982,10963,26099,30776,39578,2
0.0,0.0,0.0,14967,10987,26047,30653,39494,2
0.0,0.0,0.0,14967,10987,26022,30715,39494,2
0.0,0.0,0.0,14967,10975,26047,30715,39663,2
0.0,0.0,0.0,14922,11012,25996,30715,39494,2
0.0,0.0,0.0,14967,11012,25996,30745,39536,2
0.0,0.0,0.0,14982,11012,25996,30745,39494,2
0.0,0.0,0.0,14937,11012,25996,30776,39411,2
0.0,0.0,0.0,14967,10987,26047,30715,39411,2
0.0,0.0,0.0,14967,11012,25920,30684,39327,2
0.0,0.0,0.0,14967,11012,25996,30715,39494,2
0.0,0.0,0.0,14952,11012,25996,30715,39494,2
0.0,0.0,0.0,14967,11024,26022,30715,39452,2
0.0,0.0,0.0,14967,10987,25996,30715,39578,2
0.0,0.0,0.0,14952,11012,25945,30776,39663,2
0.0,0.0,0.0,14907,11012,25971,30745,39536,2
0.0,0.0,0.0,14967,11024,25996,30745,39494,2
0.0,0.0,0.0,14967,11024,25996,30776,39494,2
0.0,0.0,0.0,14907,11024,25971,30745,39369,2
0.0,0.0,0.0,14952,11012,25920,30745,39411,2
0.0,0.0,0.0,14967,11036,25945,30745,39369,2
0.0,0.0,0.0,14967,11012,25971,30715,39494,2
0.0,0.0,0.0,14967,11024,25996,30715,39494,2
0.0,0.0,0.0,14937,11060,25945,30715,39411,2
0.0,0.0,0.0,14952,11024,25971,30776,39411,2
0.0,0.0,0.0,14952,11048,25894,30715,39452,2
0.0,0.0,0.0,14937,11060,25920,30745,39494,2
0.0,0.0,0.0,14907,11060,25945,30776,39411,2
0.0,0.0,0.0,14967,11060,25920,30745,39411,2
0.0,0.0,0.0,14937,11060,25920,30776,39369,2
0.0,0.0,0.0,14967,11024,25894,30653,39411,2
0.0,0.0,0.0,14967,11060,25920,30745,39494,2
0.0,0.0,0.0,14937,11012,25894,30715,39494,2
0.0,0.0,0.0,14922,11036,25945,30715,39369,2
0.0,0.0,0.0,14982,11060,25945,30653,39327,2
0.0,0.0,0.0,14952,11024,25920,30745,39452,2
0.0,0.0,0.0,14952,11012,25894,30745,39411,2
0.0,0.0,0.0,14922,11060,25894,30715,39411,2
0.0,0.0,0.0,14952,11060,25945,30776,39411,2
0.0,0.0,0.0,14922,11012,25945,30807,39494,2
0.0,0.0,0.0,14907,11036,25843,30745,39327,2
0.0,0.0,0.0,14937,11024,25920,30715,39494,2
0.0,0.0,0.0,14937,11012,25894,30715,39411,2
0.0,0.0,0.0,14967,11012,25894,30715,39494,2
0.0,0.0,0.0,14967,11024,25894,30715,39411,2
0.0,0.0,0.0,14922,11012,25894,30715,39411,2
0.0,0.0,0.0,14967,11012,25894,30684,39411,2
0.0,0.0,0.0,14907,10987,25945,30715,39327,2
0.0,0.0,0.0,14967,10951,25996,30715,39411,2
0.0,0.0,0.0,14907,10963,25996,30653,39285,2
0.0,0.0,0.0,14922,10927,26047,30715,39494,2
0.0,0.0,0.0,14907,10927,26073,30715,39411,2
0.0,0.0,0.0,14861,10915,26022,30591,39327,2
0.0,0.0,0.0,14846,10891,26073,30653,39244,2
0.0,0.0,0.0,14861,10867,26073,30622,39452,2
0.0,0.0,0.0,14786,10867,26099,30653,39369,2
0.0,0.0,0.0,14831,10843,26124,30653,39411,2
0.0,0.0,0.0,14786,10819,26099,30653,39327,2
0.0,0.0,0.0,14846,10831,26099,30591,39411,2
0.0,0.0,0.0,14786,10843,26099,30622,39119,2
0.0,0.0,0.0,14786,10831,26022,30561,39244,2
0.0,0.0,0.0,14801,10819,26022,30715,39369,2
0.0,0.0,0.0,14801,10843,26047,30653,39411,2
0.0,0.0,0.0,14801,10855,26073,30622,39327,2
0.0,0.0,0.0,14801,10831,26047,30622,39327,2
0.0,0.0,0.0,14846,10867,25996,30622,39327,2
0.0,0.0,0.0,14786,10867,25996,30622,39244,2
0.0,0.0,0.0,14801,10867,25945,30715,39327,2
0.0,0.0,0.0,14801,10867,25996,30715,39369,2
0.0,0.0,0.0,14801,10891,26022,30591,39244,2
0.0,0.0,0.0,14801,10867,25894,30622,39327,2
0.0,0.0,0.0,14786,10879,25945,30622,39327,2
0.0,0.0,0.0,14801,10915,25920,30715,39369,2
0.0,0.0,0.0,14846,10891,25996,30715,39327,2
0.0,0.0,0.0,14831,10915,25920,30715,39244,2
0.0,0.0,0.0,14786,10915,25920,30684,39285,2
0.0,0.0,0.0,14801,10927,25894,30591,39244,2
0.0,0.0,0.0,14801,10939,25920,30715,39411,2
0.0,0.0,0.0,14771,10963,25894,30622,39327,2
0.0,0.0,0.0,14801,10927,25894,30715,39411,2
0.0,0.0,0.0,14801,10939,25894,30591,39244,2
0.0,0.0,0.0,14801,10927,25894,30715,39327,2
0.0,0.0,0.0,14786,10963,25894,30653,39244,2
0.0,0.0,0.0,14786,10963,25843,30684,39411,2
0.0,0.0,0.0,14756,10963,25894,30715,39244,2
0.0,0.0,0.0,14786,10963,25894,30622,39244,2
0.0,0.0,0.0,14786,10927,25869,30622,39160,2
0.0,0.0,0.0,14756,10891,25945,30561,39160,2
0.0,0.0,0.0,14801,10867,25945,30684,39244,2
0.0,0.0,0.0,14756,10843,25996,30530,39202,2
0.0,0.0,0.0,14801,10831,25996,30561,39244,2
0.0,0.0,0.0,14801,10831,25971,30591,39327,2
0.0,0.0,0.0,14801,10819,26022,30530,39160,2
0.0,0.0,0.0,14786,10843,25945,30622,39244,2
0.0,0.0,0.0,14786,10795,25996,30530,39244,2
0.0,0.0,0.0,14786,10831,25945,30530,39244,2
0.0,0.0,0.0,14786,10843,25971,30530,39244,2
0.0,0.0,0.0,14786,10831,25920,30499,39244,2
0.0,0.0,0.0,14786,10831,25945,30561,39244,2
0.0,0.0,0.0,14801,10831,25920,30561,39244,2
0.0,0.0,0.0,14756,10867,25894,30530,39244,2
0.0,0.0,0.0,14786,10879,25843,30530,39285,2
0.0,0.0,0.0,14786,10891,25894,30591,39244,2
0.0,0.0,0.0,14786,10891,25818,30530,39244,2
0.0,0.0,0.0,14786,10891,25894,30591,39244,2
0.0,0.0,0.0,14756,10891,25843,30591,39160,2
0.0,0.0,0.0,14786,10927,25920,30591,39244,2
0.0,0.0,0.0,14786,10915,25894,30591,39244,2
0.0,0.0,0.0,14741,10915,25894,30561,39160,2
0.0,0.0,0.0,14741,10915,25894,30591,39244,2
0.0,0.0,0.0,14786,10927,25818,30591,39244,2
0.0,0.0,0.0,14741,10927,25869,30591,39244,2
0.0,0.0,0.0,14726,10927,25793,30530,39160,2
0.0,0.0,0.0,14756,10915,25843,30591,39244,2
0.0,0.0,0.0,14786,10915,25818,30591,39244,2
0.0,0.0,0.0,14741,10915,25843,30591,39160,2
0.0,0.0,0.0,14711,10927,25818,30591,39077,2
0.0,0.0,0.0,14726,10915,25843,30499,39036,2
0.0,0.0,0.0,14726,10963,25843,30530,39160,2
0.0,0.0,0.0,14741,10927,25843,30591,39244,2
0.0,0.0,0.0,14786,10939,25818,30530,39160,2
0.0,0.0,0.0,14756,10939,25793,30530,39077,2
0.0,0.0,0.0,14726,10963,25818,30499,39160,2
0.0,0.0,0.0,14726,10963,25793,30561,39160,2
0.0,0.0,0.0,14756,10963,25843,30530,39119,2
0.0,0.0,0.0,14741,10963,25793,30591,39244,2
0.0,0.0,0.0,14741,10963,25793,30591,39036,2
0.0,0.0,0.0,14726,10951,25818,30561,39119,2
0.0,0.0,0.0,14741,10987,25843,30561,39077,2
0.0,0.0,0.0,14741,10963,25793,30530,39160,2
0.0,0.0,0.0,14696,10987,25793,30591,38995,2
0.0,0.0,0.0,14726,10975,25793,30530,39036,2
0.0,0.0,0.0,14756,10963,25793,30591,39077,2
0.0,0.0,0.0,14756,10975,25843,30591,39160,2
0.0,0.0,0.0,14741,10975,25742,30653,39160,2
0.0,0.0,0.0,14726,10963,25793,30530,38995,2
0.0,0.0,0.0,14741,10963,25818,30530,39160,2
0.0,0.0,0.0,14726,10963,25742,30530,39036,2
0.0,0.0,0.0,14726,10939,25767,30591,39077,2
0.0,0.0,0.0,14681,10927,25717,30530,39077,2
0.0,0.0,0.0,14696,10927,25818,30561,39036,2
0.0,0.0,0.0,14726,10891,25793,30530,39077,2
0.0,0.0,0.0,14756,10891,25793,30469,38995,2
0.0,0.0,0.0,14681,10891,25767,30530,38995,2
0.0,0.0,0.0,14726,10891,25793,30499,39077,2
0.0,0.0,0.0,14726,10891,25793,30530,39036,2
0.0,0.0,0.0,14726,10915,25717,30499,39119,2
0.0,0.0,0.0,14711,10939,25793,30530,39077,2
0.0,0.0,0.0,14741,10915,25793,30591,39036,2
0.0,0.0,0.0,14666,10879,25793,30530,38995,2
0.0,0.0,0.0,14756,10915,25742,30530,39036,2
0.0,0.0,0.0,14666,10879,25742,30591,39036,2
0.0,0.0,0.0,14681,10879,25793,30469,38995,2
0.0,0.0,0.0,14696,10879,25843,30591,38995,2
0.0,0.0,0.0,14666,10843,25818,30408,38995,2
0.0,0.0,0.0,14666,10819,25894,30469,38871,2
0.0,0.0,0.0,14666,10795,25920,30469,39119,2
0.0,0.0,0.0,14666,10807,25894,30469,39119,2
0.0,0.0,0.0,14666,10819,25920,30469,38995,2
0.0,0.0,0.0,14636,10795,25843,30469,38871,2
0.0,0.0,0.0,14666,10807,25869,30469,39036,2
0.0,0.0,0.0,14636,10807,25894,30408,38912,2
0.0,0.0,0.0,14621,10783,25894,30469,38871,2
0.0,0.0,0.0,14666,10867,25843,30408,38912,2
0.0,0.0,0.0,14666,10783,25818,30469,38953,2
0.0,0.0,0.0,14636,10819,25843,30469,39077,2
0.0,0.0,0.0,14741,10795,25843,30530,39077,2
0.0,0.0,0.0,14801,10819,25793,30530,39244,2
0.0,0.0,0.0,14786,10819,25793,30591,39327,2
0.0,0.0,0.0,14726,10867,25818,30530,39327,2
0.0,0.0,0.0,14726,10843,25767,30591,39244,2
0.0,0.0,0.0,14786,10843,25742,30530,39160,2
0.0,0.0,0.0,14726,10867,25843,30591,39244,2
0.0,0.0,0.0,14666,10855,25742,30591,39036,2
0.0,0.0,0.0,14666,10843,25767,30530,38995,2
0.0,0.0,0.0,14666,10831,25793,30561,39077,2
0.0,0.0,0.0,14666,10831,25818,30530,39077,2
0.0,0.0,0.0,14651,10831,25742,30561,38995,2
0.0,0.0,0.0,14651,10843,25742,30469,38995,2
0.0,0.0,0.0,14651,10867,25691,30469,38830,2
0.0,0.0,0.0,14636,10867,25691,30530,38871,2
0.0,0.0,0.0,14621,10867,25691,30591,39036,2
0.0,0.0,0.0,14636,10867,25742,30591,38912,2
0.0,0.0,0.0,14607,10867,25742,30530,38830,2
0.0,0.0,0.0,14607,10867,25691,30499,38912,2
0.0,0.0,0.0,14621,10891,25691,30469,38953,2
0.0,0.0,0.0,14636,10915,25691,30499,38830,2
0.0,0.0,0.0,14666,10927,25641,30499,38953,2
0.0,0.0,0.0,14636,10927,25691,30469,38830,2
0.0,0.0,0.0,14621,10927,25641,30469,38830,2
0.0,0.0,0.0,14621,10927,25691,30469,38789,2
0.0,0.0,0.0,14621,10915,25691,30469,38871,2
0.0,0.0,0.0,14636,10915,25691,30408,38830,2
0.0,0.0,0.0,14607,10915,25691,30530,38830,2
0.0,0.0,0.0,14607,10927,25691,30469,38789,2
0.0,0.0,0.0,14607,10915,25691,30499,38871,2
0.0,0.0,0.0,14636,10903,25717,30530,38871,2
0.0,0.0,0.0,14607,10915,25691,30469,38912,2
0.0,0.0,0.0,14636,10879,25691,30347,38871,2
0.0,0.0,0.0,14607,10867,25691,30408,38871,2
0.0,0.0,0.0,14607,10867,25742,30530,38830,2
0.0,0.0,0.0,14592,10879,25691,30469,38830,2
0.0,0.0,0.0,14577,10867,25691,30469,38748,2
0.0,0.0,0.0,14592,10879,25666,30469,38748,2
0.0,0.0,0.0,14577,10867,25641,30408,38830,2
0.0,0.0,0.0,14607,10879,25616,30469,38748,2
0.0,0.0,0.0,14547,10891,25691,30408,38912,2
0.0,0.0,0.0,14562,10891,25641,30408,38748,2
0.0,0.0,0.0,14562,10879,25691,30469,38789,2
0.0,0.0,0.0,14562,10891,25641,30347,38707,2
0.0,0.0,0.0,14577,10891,25616,30469,38830,2
0.0,0.0,0.0,14607,10915,25666,30408,38789,2
0.0,0.0,0.0,14607,10891,25666,30408,38871,2
0.0,0.0,0.0,14577,10915,25641,30469,38830,2
0.0,0.0,0.0,14577,10903,25641,30438,38748,2
0.0,0.0,0.0,14607,10915,25641,30408,38789,2
0.0,0.0,0.0,14577,10891,25691,30347,38666,2
0.0,0.0,0.0,14577,10891,25641,30438,38748,2
0.0,0.0,0.0,14547,10915,25691,30469,38871,2
0.0,0.0,0.0,14547,10915,25641,30347,38707,2
0.0,0.0,0.0,14562,10939,25691,30377,38830,2
0.0,0.0,0.0,14562,10927,25691,30469,38666,2
0.0,0.0,0.0,14562,10939,25691,30469,38748,2
0.0,0.0,0.0,14607,10951,25641,30499,38789,2
0.0,0.0,0.0,14577,10963,25717,30469,38830,2
0.0,0.0,0.0,14547,10963,25691,30377,38666,2
0.0,0.0,0.0,14547,11012,25641,30469,38789,2
0.0,0.0,0.0,14592,11012,25641,30469,38666,2
0.0,0.0,0.0,14562,10975,25691,30469,38789,2
0.0,0.0,0.0,14562,11012,25666,30469,38707,2
0.0,0.0,0.0,14577,11012,25691,30408,38666,2
0.0,0.0,0.0,14577,11012,25641,30530,38748,2
0.0,0.0,0.0,14607,10975,25666,30499,38666,2
0.0,0.0,0.0,14547,10987,25641,30469,38666,2
0.0,0.0,0.0,14547,10963,25641,30469,38707,2
0.0,0.0,0.0,14562,10975,25691,30438,38666,2
0.0,0.0,0.0,14562,10975,25616,30408,38707,2
0.0,0.0,0.0,14547,10963,25641,30469,38748,2
0.0,0.0,0.0,14532,10963,25641,30408,38748,2
0.0,0.0,0.0,14562,10939,25641,30469,38666,2
0.0,0.0,0.0,14518,10975,25641,30530,38748,2
0.0,0.0,0.0,14547,10963,25641,30377,38625,2
0.0,0.0,0.0,14547,10975,25641,30408,38666,2
0.0,0.0,0.0,14518,10963,25616,30408,38748,2
0.0,0.0,0.0,14518,10963,25641,30499,38707,2
0.0,0.0,0.0,14547,10963,25616,30377,38666,2
0.0,0.0,0.0,14547,10963,25641,30377,38707,2
0.0,0.0,0.0,14577,10963,25591,30469,38666,2
0.0,0.0,0.0,14547,10963,25641,30438,38748,2
0.0,0.0,0.0,14562,10987,25641,30408,38748,2
0.0,0.0,0.0,14577,10987,25591,30408,38707,2
0.0,0.0,0.0,14547,10987,25591,30469,38830,2
0.0,0.0,0.0,14562,10987,25641,30408,38666,2
0.0,0.0,0.0,14547,10999,25616,30377,38707,2
0.0,0.0,0.0,14547,10987,25641,30408,38585,2
0.0,0.0,0.0,14562,10987,25641,30347,38666,2
0.0,0.0,0.0,14518,11012,25641,30347,38585,2
0.0,0.0,0.0,14547,10987,25565,30438,38666,2
0.0,0.0,0.0,14577,10987,25591,30377,38666,2
0.0,0.0,0.0,14547,11012,25641,30408,38625,2
0.0,0.0,0.0,14547,10963,25641,30408,38625,2
0.0,0.0,0.0,14532,10975,25641,30317,38748,2
0.0,0.0,0.0,14562,10987,25616,30438,38707,2
0.0,0.0,0.0,14518,11012,25616,30408,38544,2
0.0,0.0,0.0,14547,10999,25616,30469,38585,2
0.0,0.0,0.0,14547,11012,25540,30408,38707,2
0.0,0.0,0.0,14547,10999,25591,30377,38666,2
0.0,0.0,0.0,14547,10987,25591,30408,38748,2
0.0,0.0,0.0,14562,10975,25591,30469,38748,2
0.0,0.0,0.0,14547,10987,25591,30408,38707,2
0.0,0.0,0.0,14577,11012,25591,30347,38666,2
0.0,0.0,0.0,14547,10987,25616,30408,38585,2
0.0,0.0,0.0,14518,10975,25641,30347,38666,2
0.0,0.0,0.0,14518,11012,25616,30347,38503,2
0.0,0.0,0.0,14547,10987,25591,30408,38666,2
0.0,0.0,0.0,14518,10999,25641,30286,38625,2
0.0,0.0,0.0,14518,10987,25591,30347,38585,2
0.0,0.0,0.0,14547,10975,25591,30347,38503,2
0.0,0.0,0.0,14547,10987,25591,30377,38585,2
0.0,0.0,0.0,14518,10987,25591,30377,38707,2
0.0,0.0,0.0,14518,10987,25540,30317,38503,2
0.0,0.0,0.0,14547,10987,25591,30286,38585,2
0.0,0.0,0.0,14547,10987,25591,30286,38544,2
0.0,0.0,0.0,14547,10987,25591,30347,38585,2
0.0,0.0,0.0,14532,11012,25591,30377,38585,2
0.0,0.0,0.0,14532,11024,25591,30286,38666,2
0.0,0.0,0.0,14547,10987,25591,30347,38666,2
0.0,0.0,0.0,14547,11012,25591,30377,38666,2
0.0,0.0,0.0,14503,11012,25540,30347,38503,2
0.0,0.0,0.0,14547,11060,25540,30286,38585,2
0.0,0.0,0.0,14547,11060,25616,30347,38585,2
0.0,0.0,0.0,14518,11024,25565,30347,38666,2
0.0,0.0,0.0,14532,11036,25591,30377,38585,2
0.0,0.0,0.0,14547,11060,25591,30377,38585,2
0.0,0.0,0.0,14518,11036,25591,30286,38463,2
0.0,0.0,0.0,14547,11060,25616,30347,38585,2
0.0,0.0,0.0,14518,11060,25591,30286,38503,2
0.0,0.0,0.0,14547,11060,25616,30347,38544,2
0.0,0.0,0.0,14547,11060,25591,30347,38503,2
0.0,0.0,0.0,14547,11060,25565,30347,38585,2
0.0,0.0,0.0,14503,11060,25591,30347,38585,2
0.0,0.0,0.0,14547,11060,25591,30377,38666,2
0.0,0.0,0.0,14532,11072,25591,30347,38503,2
0.0,0.0,0.0,14503,11072,25591,30347,38503,2
0.0,0.0,0.0,14518,11060,25591,30347,38544,2
0.0,0.0,0.0,14547,11060,25591,30347,38544,2
0.0,0.0,0.0,14518,11072,25565,30286,38544,2
0.0,0.0,0.0,14518,11072,25591,30347,38503,2
0.0,0.0,0.0,14518,11060,25540,30286,38585,2
0.0,0.0,0.0,14547,11072,25591,30347,38666,2
0.0,0.0,0.0,14518,11060,25565,30347,38544,2
0.0,0.0,0.0,14532,11072,25515,30286,38503,2
0.0,0.0,0.0,14518,11084,25591,30408,38585,2
0.0,0.0,0.0,14518,11060,25591,30377,38625,2
0.0,0.0,0.0,14518,11060,25565,30286,38544,2
0.0,0.0,0.0,14518,11072,25540,30317,38666,2
0.0,0.0,0.0,14518,11084,25515,30377,38544,2
0.0,0.0,0.0,14503,11072,25490,30317,38544,2
0.0,0.0,0.0,14503,11109,25515,30286,38422,2
0.0,0.0,0.0,14547,11072,25515,30469,38544,2
0.0,0.0,0.0,14518,11060,25540,30286,38585,2
0.0,0.0,0.0,14547,11060,25515,30347,38625,2
0.0,0.0,0.0,14547,11109,25540,30347,38625,2
0.0,0.0,0.0,14503,11072,25591,30347,38503,2
0.0,0.0,0.0,14518,11084,25540,30377,38585,2
0.0,0.0,0.0,14518,11072,25565,30347,38544,2
0.0,0.0,0.0,14488,11121,25540,30347,38503,2
0.0,0.0,0.0,14547,11072,25515,30347,38585,2
0.0,0.0,0.0,14518,11084,25591,30347,38544,2
0.0,0.0,0.0,14488,11072,25540,30317,38422,2
0.0,0.0,0.0,14532,11060,25515,30317,38503,2
0.0,0.0,0.0,14547,11084,25515,30377,38585,2
0.0,0.0,0.0,14488,11072,25540,30347,38544,2
0.0,0.0,0.0,14518,11109,25540,30317,38585,2
0.0,0.0,0.0,14518,11109,25616,30377,38503,2
0.0,0.0,0.0,14547,11096,25515,30347,38544,2
0.0,0.0,0.0,14503,11109,25540,30317,38503,2
0.0,0.0,0.0,14488,11109,25490,30226,38503,2
0.0,0.0,0.0,14488,11109,25515,30347,38422,2
0.0,0.0,0.0,14518,11084,25515,30347,38585,2
0.0,0.0,0.0,14503,11109,25540,30286,38544,2
0.0,0.0,0.0,14503,11096,25591,30347,38422,2
0.0,0.0,0.0,14488,11109,25515,30347,38503,2
0.0,0.0,0.0,14488,11109,25515,30256,38463,2
0.0,0.0,0.0,14547,11121,25540,30347,38544,2
0.0,0.0,0.0,14503,11096,25515,30347,38503,2
0.0,0.0,0.0,14547,11084,25465,30286,38503,2
0.0,0.0,0.0,14547,11121,25591,30226,38422,2
0.0,0.0,0.0,14518,11109,25490,30286,38503,2
0.0,0.0,0.0,14532,11109,25515,30377,38585,2
0.0,0.0,0.0,14518,11109,25540,30347,38503,2
0.0,0.0,0.0,14518,11084,25515,30347,38503,2
0.0,0.0,0.0,14518,11109,25490,30286,38382,2
0.0,0.0,0.0,14503,11109,25490,30347,38544,2
0.0,0.0,0.0,14547,11121,25540,30317,38503,2
0.0,0.0,0.0,14518,11109,25490,30317,38503,2
0.0,0.0,0.0,14518,11109,25540,30317,38382,2
0.0,0.0,0.0,14547,11133,25515,30347,38544,2
0.0,0.0,0.0,14518,11121,25540,30317,38463,2
0.0,0.0,0.0,14503,11157,25515,30286,38341,2
0.0,0.0,0.0,14488,11133,25565,30347,38422,2
0.0,0.0,0.0,14488,11157,25515,30286,38341,2
0.0,0.0,0.0,14518,11133,25490,30286,38503,2
0.0,0.0,0.0,14503,11133,25591,30286,38503,2
0.0,0.0,0.0,14518,11133,25515,30286,38422,2
0.0,0.0,0.0,14503,11157,25515,30347,38503,2
0.0,0.0,0.0,14518,11157,25540,30347,38503,2
0.0,0.0,0.0,14532,11157,25515,30286,38341,2
0.0,0.0,0.0,14503,11157,25490,30286,38341,2
0.0,0.0,0.0,14518,11157,25540,30347,38382,2
0.0,0.0,0.0,14503,11157,25490,30530,38422,2
0.0,0.0,0.0,14518,11133,25490,30347,38422,2
0.0,0.0,0.0,14488,11133,25591,30317,38422,2
0.0,0.0,0.0,14503,11133,25490,30286,38341,2
0.0,0.0,0.0,14488,11096,25540,30347,38382,2
0.0,0.0,0.0,14503,11084,25515,30226,38422,2
0.0,0.0,0.0,14503,11084,25515,30226,38341,2
0.0,0.0,0.0,14488,11109,25515,30226,38341,2
0.0,0.0,0.0,14488,11060,25540,30256,38463,2
0.0,0.0,0.0,14503,11060,25490,30165,38382,2
0.0,0.0,0.0,14473,11036,25490,30226,38341,2
0.0,0.0,0.0,14444,11024,25440,30165,38341,2
0.0,0.0,0.0,14444,11012,25591,30226,38382,2
0.0,0.0,0.0,14458,10987,25515,30226,38422,2
0.0,0.0,0.0,14458,11024,25515,30165,38260,2
0.0,0.0,0.0,14444,11012,25515,30226,38422,2
0.0,0.0,0.0,14488,10987,25490,30226,38382,2
0.0,0.0,0.0,14458,10975,25515,30135,38220,2
0.0,0.0,0.0,14488,10987,25490,30226,38341,2
0.0,0.0,0.0,14429,10999,25490,30165,38341,2
0.0,0.0,0.0,14429,10987,25490,30165,38260,2
0.0,0.0,0.0,14458,10963,25490,30226,38341,2
0.0,0.0,0.0,14473,11012,25440,30045,38260,2
0.0,0.0,0.0,14488,10987,25465,30165,38341,2
0.0,0.0,0.0,14473,11012,25490,30165,38422,2
0.0,0.0,0.0,14458,10999,25465,30165,38341,2
0.0,0.0,0.0,14488,11024,25440,30105,38341,2
0.0,0.0,0.0,14429,11036,25415,30135,38220,2
0.0,0.0,0.0,14488,11060,25440,30165,38220,2
0.0,0.0,0.0,14488,11012,25465,30165,38301,2
0.0,0.0,0.0,14429,11024,25540,30165,38260,2
0.0,0.0,0.0,14444,11048,25440,30165,38260,2
0.0,0.0,0.0,14458,11012,25490,30165,38260,2
0.0,0.0,0.0,14444,11060,25465,30165,38301,2
0.0,0.0,0.0,14458,11072,25415,30165,38260,2
0.0,0.0,0.0,14429,11060,25440,30226,38260,2
0.0,0.0,0.0,14488,11072,25490,30165,38422,2
0.0,0.0,0.0,14444,11072,25415,30226,38301,2
0.0,0.0,0.0,14429,11109,25440,30165,38220,2
0.0,0.0,0.0,14429,11109,25440,30226,38180,2
0.0,0.0,0.0,14444,11084,25465,30165,38180,2
0.0,0.0,0.0,14444,11109,25415,30256,38260,2
0.0,0.0,0.0,14444,11109,25440,30226,38382,2
0.0,0.0,0.0,14429,11109,25465,30226,38341,2
0.0,0.0,0.0,14429,11157,25440,30165,38180,2
0.0,0.0,0.0,14488,11133,25415,30256,38220,2
0.0,0.0,0.0,14488,11121,25440,30226,38341,2
0.0,0.0,0.0,14429,11157,25390,30226,38220,2
0.0,0.0,0.0,14473,11121,25390,30286,38260,2
0.0,0.0,0.0,14488,11157,25440,30286,38341,2
0.0,0.0,0.0,14458,11133,25440,30195,38180,2
0.0,0.0,0.0,14488,11157,25415,30226,38260,2
0.0,0.0,0.0,14458,11157,25390,30226,38180,2
0.0,0.0,0.0,14444,11157,25490,30226,38180,2
0.0,0.0,0.0,14444,11182,25415,30165,38180,2
0.0,0.0,0.0,14488,11182,25440,30226,38341,2
0.0,0.0,0.0,14458,11182,25465,30256,38260,2
0.0,0.0,0.0,14458,11219,25440,30165,38180,2
0.0,0.0,0.0,14473,11182,25465,30256,38301,2
0.0,0.0,0.0,14429,11194,25490,30256,38140,2
0.0,0.0,0.0,14458,11182,25490,30165,38220,2
0.0,0.0,0.0,14458,11170,25415,30195,38220,2
0.0,0.0,0.0,14458,11182,25390,30226,38260,2
0.0,0.0,0.0,14458,11231,25415,30165,38180,2
0.0,0.0,0.0,14429,11170,25415,30226,38180,2
0.0,0.0,0.0,14429,11157,25440,30256,38180,2
0.0,0.0,0.0,14458,11182,25440,30226,38100,2
0.0,0.0,0.0,14444,11182,25415,30105,38140,2
0.0,0.0,0.0,14429,11170,25415,30165,38059,2
0.0,0.0,0.0,14429,11170,25465,30165,38220,2
0.0,0.0,0.0,14429,11121,25390,30165,38140,2
0.0,0.0,0.0,14429,11084,25415,30135,38100,2
0.0,0.0,0.0,14429,11060,25490,30165,38260,2
0.0,0.0,0.0,14429,11024,25390,30105,38100,2
0.0,0.0,0.0,14429,11024,25440,30105,38180,2
0.0,0.0,0.0,14414,11012,25440,30015,38220,2
0.0,0.0,0.0,14429,10963,25490,29984,38100,2
0.0,0.0,0.0,14399,10939,25490,30015,38100,2
0.0,0.0,0.0,14429,10903,25490,29925,38019,2
0.0,0.0,0.0,14429,10867,25515,29925,38019,2
0.0,0.0,0.0,14726,10807,25490,29865,38220,2
0.0,0.0,0.0,14861,10783,25291,29805,38180,2
0.0,0.0,0.0,14907,10748,25142,29657,38059,2
0.0,0.0,0.0,14922,10748,25093,29746,38100,2
0.0,0.0,0.0,14967,10748,24995,29627,38180,2
0.0,0.0,0.0,15089,10748,24946,29686,38220,2
0.0,0.0,0.0,15104,10724,24946,29627,38260,2
0.0,0.0,0.0,15058,10748,24946,29627,38180,2
0.0,0.0,0.0,15028,10724,24897,29538,38220,2
0.0,0.0,0.0,15028,10724,24873,29509,38180,2
0.0,0.0,0.0,15013,10724,24897,29627,38180,2
0.0,0.0,0.0,14997,10724,24848,29568,38220,2
0.0,0.0,0.0,15028,10700,24799,29538,38180,2
0.0,0.0,0.0,14967,10700,24921,29538,38100,2
0.0,0.0,0.0,14997,10676,24848,29509,38220,2
0.0,0.0,0.0,15013,10700,24824,29509,38100,2
0.0,0.0,0.0,14952,10676,24824,29509,38100,2
0.0,0.0,0.0,14967,10676,24848,29509,38059,2
0.0,0.0,0.0,14997,10676,24848,29479,38100,2
0.0,0.0,0.0,14967,10641,24897,29509,38100,2
0.0,0.0,0.0,14967,10653,24970,29509,38220,2
0.0,0.0,0.0,15043,10629,25044,29538,38180,2
0.0,0.0,0.0,15119,10629,25216,29479,38220,2
0.0,0.0,0.0,15119,10594,25216,29391,38140,2
0.0,0.0,0.0,15150,10605,25216,29391,38100,2
0.0,0.0,0.0,15181,10582,25216,29421,38180,2
0.0,0.0,0.0,15150,10582,25192,29391,38220,2
0.0,0.0,0.0,15150,10546,25266,29421,38260,2
0.0,0.0,0.0,15165,10535,25291,29333,38260,2
0.0,0.0,0.0,15165,10535,25192,29304,38100,2
0.0,0.0,0.0,15150,10511,25241,29391,38100,2
0.0,0.0,0.0,15165,10511,25241,29304,38220,2
0.0,0.0,0.0,15150,10535,25241,29333,38180,2
0.0,0.0,0.0,15165,10582,25266,29333,38180,2
0.0,0.0,0.0,15227,10582,25241,29304,38260,2
0.0,0.0,0.0,15165,10594,25093,29333,38100,2
0.0,0.0,0.0,15104,10594,25044,29597,38220,2
0.0,0.0,0.0,15119,10594,25415,29984,38503,2
0.0,0.0,0.0,15211,10629,25390,30347,39244,2
0.0,0.0,0.0,15242,10629,25390,30653,40088,2
0.0,0.0,0.0,15211,10629,25316,30622,40002,2
0.0,0.0,0.0,15242,10594,25316,30622,39917,2
0.0,0.0,0.0,15211,10582,25316,30561,39536,2
0.0,0.0,0.0,15165,10558,25291,30530,39411,2
0.0,0.0,0.0,15150,10582,25390,30591,39621,2
0.0,0.0,0.0,15104,10582,25316,30561,39536,2
0.0,0.0,0.0,15089,10594,25316,30530,39369,2
0.0,0.0,0.0,15028,10605,25266,30530,39285,2
0.0,0.0,0.0,15058,10605,25291,30499,39244,2
0.0,0.0,0.0,14982,10629,25216,30438,39160,2
0.0,0.0,0.0,14967,10629,25266,30377,39077,2
0.0,0.0,0.0,14967,10676,25216,30469,39077,2
0.0,0.0,0.0,14967,10676,25216,30408,39077,2
0.0,0.0,0.0,14937,10688,25241,30469,39160,2
0.0,0.0,0.0,14907,10688,25241,30408,39036,2
0.0,0.0,0.0,14907,10688,25216,30408,39119,2
0.0,0.0,0.0,14937,10700,25192,30347,39077,2
0.0,0.0,0.0,14967,10748,25241,30469,38912,2
0.0,0.0,0.0,14922,10748,25241,30377,38830,2
0.0,0.0,0.0,14907,10724,25216,30408,38830,2
0.0,0.0,0.0,14907,10748,25241,30347,38789,2
0.0,0.0,0.0,14846,10748,25241,30408,38871,2
0.0,0.0,0.0,14907,10748,25192,30286,38871,2
0.0,0.0,0.0,14846,10771,25216,30408,38871,2
0.0,0.0,0.0,14846,10748,25192,30286,38830,2
0.0,0.0,0.0,14861,10748,25192,30286,38748,2
0.0,0.0,0.0,14846,10748,25241,30347,38830,2
0.0,0.0,0.0,14907,10748,25216,30347,38830,2
0.0,0.0,0.0,14846,10748,25192,30226,38871,2
0.0,0.0,0.0,14876,10748,25192,30377,38707,2
0.0,0.0,0.0,14816,10748,25167,30347,38707,2
0.0,0.0,0.0,14846,10748,25192,30347,38871,2
0.0,0.0,0.0,14816,10748,25192,30286,38666,2
0.0,0.0,0.0,14846,10748,25192,30286,38748,2
0.0,0.0,0.0,14801,10748,25142,30286,38666,2
0.0,0.0,0.0,14816,10771,25241,30347,38666,2
0.0,0.0,0.0,14801,10771,25241,30347,38707,2
0.0,0.0,0.0,14801,10771,25142,30317,38748,2
0.0,0.0,0.0,14801,10771,25192,30347,38707,2
0.0,0.0,0.0,14801,10771,25216,30347,38707,2
0.0,0.0,0.0,14786,10748,25192,30317,38666,2
0.0,0.0,0.0,14771,10748,25192,30286,38666,2
0.0,0.0,0.0,14786,10771,25192,30286,38666,2
0.0,0.0,0.0,14741,10748,25192,30347,38666,2
0.0,0.0,0.0,14786,10748,25192,30286,38748,2
0.0,0.0,0.0,14756,10748,25192,30347,38666,2
0.0,0.0,0.0,14786,10759,25241,30347,38666,2
0.0,0.0,0.0,14786,10771,25142,30377,38666,2
0.0,0.0,0.0,14726,10771,25192,30347,38666,2
0.0,0.0,0.0,14786,10748,25192,30317,38748,2
0.0,0.0,0.0,14741,10771,25192,30317,38585,2
0.0,0.0,0.0,14756,10748,25192,30347,38666,2
0.0,0.0,0.0,14756,10748,25192,30226,38666,2
0.0,0.0,0.0,14756,10724,25192,30286,38666,2
0.0,0.0,0.0,14756,10724,25192,30226,38585,2
0.0,0.0,0.0,14726,10724,25192,30286,38503,2
0.0,0.0,0.0,14726,10748,25192,30286,38748,2
0.0,0.0,0.0,14741,10748,25142,30226,38625,2
0.0,0.0,0.0,14786,10771,25216,30317,38666,2
0.0,0.0,0.0,14786,10819,25241,30256,38666,2
0.0,0.0,0.0,14786,10819,25216,30347,38585,2
0.0,0.0,0.0,14741,10843,25291,30347,38544,2
0.0,0.0,0.0,14756,10831,25216,30347,38585,2
0.0,0.0,0.0,14726,10843,25241,30347,38503,2
0.0,0.0,0.0,14741,10819,25216,30317,38544,2
0.0,0.0,0.0,14726,10831,25216,30377,38585,2
0.0,0.0,0.0,14681,10819,25192,30286,38544,2
0.0,0.0,0.0,14726,10831,25241,30347,38544,2
0.0,0.0,0.0,14726,10819,25241,30377,38666,2
0.0,0.0,0.0,14741,10819,25192,30347,38544,2
0.0,0.0,0.0,14726,10819,25192,30286,38585,2
0.0,0.0,0.0,14726,10771,25192,30286,38463,2
0.0,0.0,0.0,14726,10771,25241,30347,38503,2
0.0,0.0,0.0,14726,10795,25192,30317,38463,2
0.0,0.0,0.0,14726,10759,25216,30347,38503,2
0.0,0.0,0.0,14696,10759,25192,30256,38341,2
0.0,0.0,0.0,14726,10771,25241,30286,38422,2
0.0,0.0,0.0,14726,10783,25192,30286,38382,2
0.0,0.0,0.0,14696,10771,25192,30256,38301,2
0.0,0.0,0.0,14696,10771,25192,30286,38382,2
0.0,0.0,0.0,14696,10795,25192,30286,38382,2
0.0,0.0,0.0,14726,10783,25192,30347,38382,2
0.0,0.0,0.0,14726,10795,25216,30347,38422,2
0.0,0.0,0.0,14681,10771,25142,30256,38301,2
0.0,0.0,0.0,14696,10771,25142,30256,38220,2
0.0,0.0,0.0,14681,10783,25167,30256,38220,2
0.0,0.0,0.0,14696,10783,25192,30286,38260,2
0.0,0.0,0.0,14726,10771,25192,30317,38341,2
0.0,0.0,0.0,14696,10783,25241,30226,38341,2
0.0,0.0,0.0,14726,10795,25142,30256,38180,2
0.0,0.0,0.0,14666,10795,25192,30226,38260,2
0.0,0.0,0.0,14666,10771,25192,30286,38341,2
0.0,0.0,0.0,14681,10795,25142,30226,38301,2
0.0,0.0,0.0,14666,10783,25142,30195,38260,2
0.0,0.0,0.0,14696,10819,25192,30256,38341,2
0.0,0.0,0.0,14681,10819,25216,30347,38220,2
0.0,0.0,0.0,14681,10771,25192,30226,38260,2
0.0,0.0,0.0,14696,10819,25192,30347,38301,2
0.0,0.0,0.0,14681,10819,25142,30226,38301,2
0.0,0.0,0.0,14696,10843,25142,30226,38341,2
0.0,0.0,0.0,14666,10831,25192,30256,38260,2
0.0,0.0,0.0,14666,10867,25142,30226,38220,2
0.0,0.0,0.0,14666,10867,25192,30347,38260,2
0.0,0.0,0.0,14666,10843,25192,30286,38220,2
0.0,0.0,0.0,14681,10867,25192,30286,38140,2
0.0,0.0,0.0,14681,10867,25192,30286,38180,2
0.0,0.0,0.0,14666,10891,25192,30226,38260,2
0.0,0.0,0.0,14711,10879,25216,30347,38260,2
0.0,0.0,0.0,14666,10891,25192,30256,38180,2
0.0,0.0,0.0,14696,10891,25192,30286,38180,2
0.0,0.0,0.0,14666,10891,25192,30226,38220,2
0.0,0.0,0.0,14696,10891,25142,30226,38260,2
0.0,0.0,0.0,14666,10867,25142,30226,38180,2
0.0,0.0,0.0,14636,10867,25216,30256,38180,2
0.0,0.0,0.0,14696,10891,25216,30256,38180,2
0.0,0.0,0.0,14666,10915,25216,30286,38180,2
0.0,0.0,0.0,14666,10915,25241,30256,38100,2
0.0,0.0,0.0,14666,10927,25192,30256,38220,2
0.0,0.0,0.0,14636,10915,25241,30286,38220,2
0.0,0.0,0.0,14621,10891,25241,30256,38140,2
0.0,0.0,0.0,14651,10915,25241,30286,38180,2
0.0,0.0,0.0,14666,10939,25192,30226,38180,2
0.0,0.0,0.0,14621,10915,25241,30317,38180,2
0.0,0.0,0.0,14666,10939,25192,30195,38180,2
0.0,0.0,0.0,14666,10939,25241,30226,38180,2
0.0,0.0,0.0,14621,10939,25216,30256,38220,2
0.0,0.0,0.0,14636,10939,25192,30226,38059,2
0.0,0.0,0.0,14621,10939,25216,30226,38100,2
0.0,0.0,0.0,14636,10927,25216,30286,38180,2
0.0,0.0,0.0,14607,10903,25216,30256,38100,2
0.0,0.0,0.0,14607,10927,25241,30286,38059,2
0.0,0.0,0.0,14621,10915,25241,30226,38220,2
0.0,0.0,0.0,14621,10903,25241,30226,38180,2
0.0,0.0,0.0,14636,10867,25291,30226,38180,2
0.0,0.0,0.0,14621,10903,25216,30165,38140,2
0.0,0.0,0.0,14607,10915,25216,30195,38100,2
0.0,0.0,0.0,14607,10891,25192,30226,38180,2
0.0,0.0,0.0,14607,10903,25216,30195,38180,2
0.0,0.0,0.0,14636,10927,25216,30226,38100,2
0.0,0.0,0.0,14636,10891,25192,30286,38220,2
0.0,0.0,0.0,14621,10915,25167,30165,38100,2
0.0,0.0,0.0,14636,10927,25192,30226,38019,2
0.0,0.0,0.0,14666,10927,25192,30226,38180,2
0.0,0.0,0.0,14666,10927,25192,30226,38019,2
0.0,0.0,0.0,14621,10963,25266,30226,38100,2
0.0,0.0,0.0,14651,10963,25192,30256,38100,2
0.0,0.0,0.0,14666,10963,25167,30226,38180,2
0.0,0.0,0.0,14636,10963,25167,30226,38100,2
0.0,0.0,0.0,14636,10963,25192,30226,38019,2
0.0,0.0,0.0,14621,10963,25167,30165,38180,2
0.0,0.0,0.0,14607,10951,25142,30165,38059,2
0.0,0.0,0.0,14607,10963,25142,30226,37940,2
0.0,0.0,0.0,14636,10939,25142,30165,38019,2
0.0,0.0,0.0,14607,10939,25142,30226,38100,2
0.0,0.0,0.0,14607,10939,25167,30226,38140,2
0.0,0.0,0.0,14636,10915,25142,30226,38180,2
0.0,0.0,0.0,14607,10927,25118,30165,38180,2
0.0,0.0,0.0,14621,10891,25167,30165,38180,2
0.0,0.0,0.0,14607,10891,25192,30105,38019,2
0.0,0.0,0.0,14607,10855,25192,30165,38180,2
0.0,0.0,0.0,14607,10831,25167,30105,38019,2
0.0,0.0,0.0,14562,10819,25142,30075,37940,2
0.0,0.0,0.0,14577,10819,25142,30135,38140,2
0.0,0.0,0.0,14562,10819,25118,29984,38019,2
0.0,0.0,0.0,14577,10795,25142,29984,37980,2
0.0,0.0,0.0,14577,10759,25118,30015,38100,2
0.0,0.0,0.0,14577,10748,25118,29984,38019,2
0.0,0.0,0.0,14547,10748,25093,30015,37940,2
0.0,0.0,0.0,14577,10771,25142,30045,38100,2
0.0,0.0,0.0,14547,10771,25093,30015,37940,2
0.0,0.0,0.0,14562,10771,25044,30045,38140,2
0.0,0.0,0.0,14577,10771,25044,30045,38100,2
0.0,0.0,0.0,14547,10795,25093,29984,38019,2
0.0,0.0,0.0,14547,10783,25093,30105,38100,2
0.0,0.0,0.0,14547,10783,25068,30015,37940,2
0.0,0.0,0.0,14562,10819,25093,30045,37980,2
0.0,0.0,0.0,14547,10795,25044,29984,37940,2
0.0,0.0,0.0,14577,10795,25093,29984,38140,2
0.0,0.0,0.0,14518,10783,25019,30015,37980,2
0.0,0.0,0.0,14547,10771,25068,30045,37940,2
0.0,0.0,0.0,14547,10783,25093,30015,38059,2
0.0,0.0,0.0,14547,10771,25019,30015,37940,2
0.0,0.0,0.0,14562,10795,25044,30045,37860,2
0.0,0.0,0.0,14547,10795,25068,29925,37940,2
0.0,0.0,0.0,14503,10783,25019,30015,37940,2
0.0,0.0,0.0,14547,10795,25044,30045,38059,2
0.0,0.0,0.0,14532,10795,25093,30105,37940,2
0.0,0.0,0.0,14547,10771,24995,29984,37860,2
0.0,0.0,0.0,14562,10771,25093,29984,37980,2
0.0,0.0,0.0,14547,10771,25044,29984,37940,2
0.0,0.0,0.0,14547,10795,25044,29955,37940,2
0.0,0.0,0.0,14547,10771,25044,29984,38019,2
0.0,0.0,0.0,14518,10771,25093,30045,37980,2
0.0,0.0,0.0,14503,10771,25044,30045,37900,2
0.0,0.0,0.0,14518,10771,25044,29984,37860,2
0.0,0.0,0.0,14518,10771,25044,29984,37980,2
0.0,0.0,0.0,14518,10795,25019,30015,37940,2
0.0,0.0,0.0,14503,10795,25019,30015,37940,2
0.0,0.0,0.0,14547,10819,25044,29984,37980,2
0.0,0.0,0.0,14518,10831,24995,30105,37820,2
0.0,0.0,0.0,14547,10843,24995,30045,37940,2
0.0,0.0,0.0,14488,10867,24995,30015,37860,2
0.0,0.0,0.0,14518,10867,24995,30015,37860,2
0.0,0.0,0.0,14473,10879,24995,30045,37860,2
0.0,0.0,0.0,14503,10891,25019,30105,37860,2
0.0,0.0,0.0,14577,10915,25044,30045,37940,2
0.0,0.0,0.0,14503,10891,25019,30105,37860,2
0.0,0.0,0.0,14547,10927,25093,30075,37980,2
0.0,0.0,0.0,14547,10927,25093,30045,37940,2
0.0,0.0,0.0,14547,10915,25044,30045,37820,2
0.0,0.0,0.0,14503,10927,24995,30105,37860,2
0.0,0.0,0.0,14518,10915,25044,30045,37781,2
0.0,0.0,0.0,14547,10939,25044,30165,37940,2
0.0,0.0,0.0,14547,10963,25019,30105,37940,2
0.0,0.0,0.0,14532,10951,24995,30165,37860,2
0.0,0.0,0.0,14518,10927,25044,30105,37900,2
0.0,0.0,0.0,14503,10963,25044,30045,37820,2
0.0,0.0,0.0,14547,10963,25044,30045,37860,2
0.0,0.0,0.0,14547,10987,25019,30135,37860,2
0.0,0.0,0.0,14547,10963,25019,30075,37741,2
0.0,0.0,0.0,14577,10963,25019,30105,37741,2
0.0,0.0,0.0,14518,10963,25019,30105,37820,2
0.0,0.0,0.0,14547,10963,25044,30045,37820,2
0.0,0.0,0.0,14547,10963,25044,30105,37781,2
0.0,0.0,0.0,14518,10963,25093,30105,37860,2
0.0,0.0,0.0,14547,10987,25044,30165,37940,2
0.0,0.0,0.0,14547,11012,25044,30165,37940,2
0.0,0.0,0.0,14562,11012,25068,30105,37781,2
0.0,0.0,0.0,14547,10987,25044,30165,37820,2
0.0,0.0,0.0,14547,11012,25019,30015,37701,2
0.0,0.0,0.0,14547,10987,25044,30105,37781,2
0.0,0.0,0.0,14592,10975,25044,30045,37860,2
0.0,0.0,0.0,14547,10975,25044,30165,37940,2
0.0,0.0,0.0,14547,11012,24995,30045,37741,2
0.0,0.0,0.0,14547,10963,25044,30105,37860,2
0.0,0.0,0.0,14518,10963,24995,30075,37701,2
0.0,0.0,0.0,14503,10927,24995,30045,37701,2
0.0,0.0,0.0,14518,10879,25044,29984,37701,2
0.0,0.0,0.0,14488,10819,24995,29925,37701,2
0.0,0.0,0.0,14488,10795,25044,30045,37781,2
0.0,0.0,0.0,14488,10795,25044,29984,37701,2
0.0,0.0,0.0,14488,10795,25044,29865,37781,2
0.0,0.0,0.0,14488,10819,25044,30045,37701,2
0.0,0.0,0.0,14444,10819,24995,29925,37860,2
0.0,0.0,0.0,14488,10795,25019,29895,37741,2
0.0,0.0,0.0,14488,10795,24995,29984,37701,2
0.0,0.0,0.0,14518,10819,24995,29955,37860,2
0.0,0.0,0.0,14488,10867,24946,29925,37662,2
0.0,0.0,0.0,14488,10843,24995,29984,37781,2
0.0,0.0,0.0,14488,10867,24946,29984,37781,2
0.0,0.0,0.0,14503,10879,24995,29984,37860,2
0.0,0.0,0.0,14488,10879,24946,30045,37701,2
0.0,0.0,0.0,14458,10891,24946,29984,37741,2
0.0,0.0,0.0,14488,10891,24970,29984,37741,2
0.0,0.0,0.0,14458,10879,24995,29984,37741,2
0.0,0.0,0.0,14488,10891,24995,29984,37781,2
0.0,0.0,0.0,14488,10891,24970,30015,37781,2
0.0,0.0,0.0,14488,10891,24946,29984,37741,2
0.0,0.0,0.0,14458,10891,24921,29925,37622,2
0.0,0.0,0.0,14458,10867,24995,30015,37701,2
0.0,0.0,0.0,14458,10891,24946,29955,37701,2
0.0,0.0,0.0,14458,10879,24946,29984,37622,2
0.0,0.0,0.0,14488,10879,24946,29984,37701,2
0.0,0.0,0.0,14488,10915,24970,29955,37662,2
0.0,0.0,0.0,14488,10915,24970,29984,37622,2
0.0,0.0,0.0,14488,10903,24995,30045,37701,2
0.0,0.0,0.0,14488,10915,24946,29984,37701,2
0.0,0.0,0.0,14488,10915,24946,29925,37701,2
0.0,0.0,0.0,14488,10879,24946,29984,37781,2
0.0,0.0,0.0,14503,10915,24995,29984,37741,2
0.0,0.0,0.0,14518,10891,24995,29984,37701,2
0.0,0.0,0.0,14488,10915,24946,30015,37543,2
0.0,0.0,0.0,14488,10891,24995,29925,37701,2
0.0,0.0,0.0,14488,10879,24946,29984,37701,2
0.0,0.0,0.0,14503,10891,24946,29984,37622,2
0.0,0.0,0.0,14458,10915,24946,29984,37701,2
0.0,0.0,0.0,14488,10891,24946,29984,37741,2
0.0,0.0,0.0,14488,10915,24946,29984,37701,2
0.0,0.0,0.0,14488,10915,24946,29984,37583,2
0.0,0.0,0.0,14458,10867,24995,30045,37622,2
0.0,0.0,0.0,14488,10867,24946,29984,37781,2
0.0,0.0,0.0,14444,10867,24946,29925,37701,2
0.0,0.0,0.0,14458,10807,24995,29984,37543,2
0.0,0.0,0.0,14458,10819,25019,29895,37622,2
0.0,0.0,0.0,14444,10783,24970,29895,37583,2
0.0,0.0,0.0,14458,10795,25019,29895,37701,2
0.0,0.0,0.0,14444,10783,24995,29895,37820,2
0.0,0.0,0.0,14429,10771,24946,29895,37622,2
0.0,0.0,0.0,14429,10771,24946,29984,37583,2
0.0,0.0,0.0,14444,10795,24946,29865,37583,2
0.0,0.0,0.0,14429,10771,24946,29925,37701,2
0.0,0.0,0.0,14458,10783,24946,29955,37622,2
0.0,0.0,0.0,14444,10795,24946,29955,37701,2
0.0,0.0,0.0,14458,10795,24946,29925,37741,2
0.0,0.0,0.0,14429,10831,24946,29895,37622,2
0.0,0.0,0.0,14473,10831,24946,29925,37701,2
0.0,0.0,0.0,14429,10831,24921,29865,37622,2
0.0,0.0,0.0,14399,10831,24897,29925,37701,2
0.0,0.0,0.0,14458,10855,24946,29895,37622,2
0.0,0.0,0.0,14429,10819,24946,29865,37701,2
0.0,0.0,0.0,14429,10831,24921,29955,37741,2
0.0,0.0,0.0,14429,10867,24946,29895,37622,2
0.0,0.0,0.0,14429,10867,24897,29895,37543,2
0.0,0.0,0.0,14429,10867,24921,29895,37622,2
0.0,0.0,0.0,14429,10843,24897,29955,37622,2
0.0,0.0,0.0,14429,10867,24897,29925,37543,2
0.0,0.0,0.0,14444,10855,24897,29746,37662,2
0.0,0.0,0.0,14429,10867,24897,29925,37662,2
0.0,0.0,0.0,14444,10867,24946,29984,37622,2
0.0,0.0,0.0,14444,10867,24921,29925,37701,2
0.0,0.0,0.0,14444,10867,24897,29895,37622,2
0.0,0.0,0.0,14444,10867,24921,29984,37701,2
0.0,0.0,0.0,14444,10891,24946,29984,37701,2
0.0,0.0,0.0,14444,10891,24897,29925,37622,2
0.0,0.0,0.0,14444,10891,24873,29955,37583,2
0.0,0.0,0.0,14429,10915,24946,29955,37583,2
0.0,0.0,0.0,14399,10891,24970,29984,37701,2
0.0,0.0,0.0,14429,10915,24946,29984,37662,2
0.0,0.0,0.0,14429,10867,24897,29925,37583,2
0.0,0.0,0.0,14429,10867,24897,29984,37622,2
0.0,0.0,0.0,14429,10891,24946,29955,37583,2
0.0,0.0,0.0,14429,10867,24897,29895,37543,2
0.0,0.0,0.0,14429,10891,24946,29895,37543,2
0.0,0.0,0.0,14399,10915,24946,29925,37583,2
0.0,0.0,0.0,14429,10903,24921,29895,37504,2
0.0,0.0,0.0,14429,10915,24873,29955,37543,2
0.0,0.0,0.0,14429,10915,24946,30045,37583,2
0.0,0.0,0.0,14399,10891,24921,29895,37504,2
0.0,0.0,0.0,14429,10915,24848,29865,37543,2
0.0,0.0,0.0,14414,10891,24897,29984,37543,2
0.0,0.0,0.0,14429,10915,24897,29865,37465,2
0.0,0.0,0.0,14414,10891,24848,29895,37583,2
0.0,0.0,0.0,14429,10915,24897,29895,37543,2
0.0,0.0,0.0,14399,10915,24946,29925,37583,2
0.0,0.0,0.0,14385,10903,24897,29895,37583,2
0.0,0.0,0.0,14444,10915,24946,29984,37622,2
0.0,0.0,0.0,14399,10915,24897,29895,37543,2
0.0,0.0,0.0,14414,10915,24897,29955,37504,2
0.0,0.0,0.0,14399,10915,24921,29865,37465,2
0.0,0.0,0.0,14429,10915,24946,30015,37543,2
0.0,0.0,0.0,14399,10915,24897,30015,37543,2
0.0,0.0,0.0,14429,10915,24946,29984,37543,2
0.0,0.0,0.0,14370,10915,24897,29984,37543,2
0.0,0.0,0.0,14399,10927,24873,29895,37543,2
0.0,0.0,0.0,14429,10915,24848,29895,37426,2
0.0,0.0,0.0,14429,10915,24873,29895,37426,2
0.0,0.0,0.0,14385,10915,24897,29925,37543,2
0.0,0.0,0.0,14399,10915,24897,29984,37504,2
0.0,0.0,0.0,14429,10915,24848,29895,37504,2
0.0,0.0,0.0,14399,10915,24897,29865,37543,2
0.0,0.0,0.0,14429,10915,24897,29865,37543,2
0.0,0.0,0.0,14414,10903,24897,29895,37543,2
0.0,0.0,0.0,14429,10891,24897,29925,37504,2
0.0,0.0,0.0,14370,10915,24897,29895,37465,2
0.0,0.0,0.0,14429,10891,24897,29865,37386,2
0.0,0.0,0.0,14399,10867,24946,30015,37543,2
0.0,0.0,0.0,14370,10867,24897,29955,37465,2
0.0,0.0,0.0,14399,10867,24897,29835,37543,2
0.0,0.0,0.0,14399,10867,24897,29895,37543,2
0.0,0.0,0.0,14429,10843,24897,29865,37465,2
0.0,0.0,0.0,14414,10843,24946,29895,37465,2
0.0,0.0,0.0,14370,10867,24897,29865,37386,2
0.0,0.0,0.0,14370,10831,24897,29805,37504,2
0.0,0.0,0.0,14370,10819,24897,29775,37465,2
0.0,0.0,0.0,14370,10831,24897,29805,37504,2
0.0,0.0,0.0,14370,10843,24848,29865,37386,2
0.0,0.0,0.0,14399,10867,24848,29805,37426,2
0.0,0.0,0.0,14385,10843,24848,29865,37465,2
0.0,0.0,0.0,14370,10867,24848,29805,37386,2
0.0,0.0,0.0,14355,10867,24873,29865,37465,2
0.0,0.0,0.0,14385,10867,24897,29865,37583,2
0.0,0.0,0.0,14399,10867,24897,29895,37583,2
0.0,0.0,0.0,14370,10867,24873,29895,37465,2
0.0,0.0,0.0,14385,10879,24897,29865,37465,2
0.0,0.0,0.0,14399,10867,24824,29865,37504,2
0.0,0.0,0.0,14326,10867,24897,29835,37386,2
0.0,0.0,0.0,14370,10867,24848,29835,37543,2
0.0,0.0,0.0,14370,10867,24848,29805,37347,2
0.0,0.0,0.0,14370,10867,24848,29865,37465,2
0.0,0.0,0.0,14370,10867,24946,29895,37465,2
0.0,0.0,0.0,14370,10867,24824,29805,37426,2
0.0,0.0,0.0,14370,10843,24873,29895,37465,2
0.0,0.0,0.0,14385,10879,24897,29805,37347,2
0.0,0.0,0.0,14370,10843,24897,29895,37386,2
0.0,0.0,0.0,14399,10819,24873,29835,37465,2
0.0,0.0,0.0,14370,10831,24824,29895,37347,2
0.0,0.0,0.0,14370,10831,24824,29835,37386,2
0.0,0.0,0.0,14326,10819,24873,29865,37386,2
0.0,0.0,0.0,14370,10831,24848,29865,37386,2
0.0,0.0,0.0,14370,10819,24824,29835,37543,2
0.0,0.0,0.0,14326,10843,24848,29865,37465,2
0.0,0.0,0.0,14385,10855,24873,29835,37465,2
0.0,0.0,0.0,14370,10843,24897,29865,37386,2
0.0,0.0,0.0,14370,10855,24824,29835,37426,2
0.0,0.0,0.0,14341,10843,24848,29835,37426,2
0.0,0.0,0.0,14399,10867,24848,29955,37386,2
0.0,0.0,0.0,14370,10867,24848,29865,37426,2
0.0,0.0,0.0,14370,10867,24848,29835,37465,2
0.0,0.0,0.0,14385,10879,24848,29865,37465,2
0.0,0.0,0.0,14370,10867,24848,29895,37465,2
0.0,0.0,0.0,14341,10867,24824,29895,37386,2
0.0,0.0,0.0,14355,10879,24824,29775,37426,2
0.0,0.0,0.0,14370,10867,24848,29835,37465,2
0.0,0.0,0.0,14385,10867,24824,29835,37386,2
0.0,0.0,0.0,14370,10843,24848,29805,37347,2
0.0,0.0,0.0,14370,10867,24848,29805,37308,2
0.0,0.0,0.0,14370,10867,24848,29865,37426,2
0.0,0.0,0.0,14444,11528,24897,29925,37386,2
0.0,0.0,0.0,14458,11716,24848,29984,37465,2
0.0,0.0,0.0,14458,11932,24848,29865,37347,2
0.0,0.0,0.0,14429,12009,24848,29925,37347,2
0.0,0.0,0.0,14414,11957,24897,29865,37465,2
0.0,0.0,0.0,14444,11957,24848,29895,37386,2
0.0,0.0,0.0,14488,12086,24946,29925,37465,2
0.0,0.0,0.0,14503,12163,24946,29984,37543,2
0.0,0.0,0.0,14518,12215,24946,30015,37543,2
0.0,0.0,0.0,14518,12320,24946,30045,37583,2
0.0,0.0,0.0,14503,12346,24995,30105,37465,2
0.0,0.0,0.0,14503,12372,24995,30045,37543,2
0.0,0.0,0.0,14488,12359,24995,30075,37583,2
0.0,0.0,0.0,14488,12372,25019,30105,37543,2
0.0,0.0,0.0,14488,12346,24946,30015,37386,2
0.0,0.0,0.0,14503,12293,24995,30105,37543,2
0.0,0.0,0.0,14458,11970,24946,30045,37386,2
0.0,0.0,0.0,14429,11855,24946,30105,37543,2
0.0,0.0,0.0,14429,11728,24897,29835,37386,2
0.0,0.0,0.0,14399,11603,24946,29955,37386,2
0.0,0.0,0.0,14370,11428,24897,29895,37386,2
0.0,0.0,0.0,14370,11268,24995,29865,37543,2
0.0,0.0,0.0,14326,11133,25019,29805,37308,2
0.0,0.0,0.0,14326,11109,24995,29805,37386,2
