GyroX,GyroY,GyroZ,Thumb,Index,Middle,Ring,Pinky,Gesture
0.0,0.0,0.0,11678,10724,30715,37622,29895,2
0.0,0.0,0.0,11804,10688,30377,37308,29984,2
0.0,0.0,0.0,11970,10605,30105,37114,29984,2
0.0,0.0,0.0,12124,10535,29835,36843,30015,2
0.0,0.0,0.0,12267,10488,29391,36767,30105,2
0.0,0.0,0.0,12280,10441,29216,36614,29865,2
0.0,0.0,0.0,12267,10418,29216,36538,29805,2
0.0,0.0,0.0,12228,10406,29129,36462,29775,2
0.0,0.0,0.0,12215,10418,29071,36462,30408,2
0.0,0.0,0.0,12124,10394,29274,36767,31785,2
0.0,0.0,0.0,12150,10394,29657,37701,32633,2
0.0,0.0,0.0,12163,10394,29865,38140,32765,2
0.0,0.0,0.0,12124,10394,29865,38382,33439,2
0.0,0.0,0.0,12176,10371,29955,38463,33269,2
0.0,0.0,0.0,12215,10371,29925,38789,34341,2
0.0,0.0,0.0,12215,10394,29984,39369,35127,2
0.0,0.0,0.0,12215,10394,30075,40216,37114,2
0.0,0.0,0.0,12189,10394,29925,39874,38382,2
0.0,0.0,0.0,12228,10394,29984,40693,40736,2
0.0,0.0,0.0,12189,10394,30045,40736,42953,2
0.0,0.0,0.0,12112,10406,30226,41044,44389,2
0.0,0.0,0.0,12060,10394,30530,41399,45281,2
0.0,0.0,0.0,12009,10441,30715,41488,45685,2
0.0,0.0,0.0,11983,10488,30838,41443,45584,2
0.0,0.0,0.0,11983,10511,30715,41757,45838,2
0.0,0.0,0.0,11957,10511,30591,41667,45483,2
0.0,0.0,0.0,11970,10511,30591,41712,45483,2
0.0,0.0,0.0,11983,10535,30591,42304,45992,2
0.0,0.0,0.0,11957,10535,30715,42673,46353,2
0.0,0.0,0.0,12009,10511,30715,43519,46301,2
0.0,0.0,0.0,11970,10488,30684,44000,44981,2
0.0,0.0,0.0,11983,10464,30838,43855,43046,2
0.0,0.0,0.0,11983,10499,30994,43807,42304,2
0.0,0.0,0.0,12060,10499,31025,43140,40780,2
0.0,0.0,0.0,12086,10488,30962,43046,40259,2
0.0,0.0,0.0,12267,10488,30869,42580,40002,2
0.0,0.0,0.0,12320,10499,30962,42166,39536,2
0.0,0.0,0.0,12372,10488,30838,41803,39160,2
0.0,0.0,0.0,12320,10488,30745,41757,38666,2
0.0,0.0,0.0,12320,10464,30622,41488,38503,2
0.0,0.0,0.0,12241,10394,30377,41399,38382,2
0.0,0.0,0.0,12228,10325,30135,41354,38180,2
0.0,0.0,0.0,12215,10301,29955,40868,37860,2
0.0,0.0,0.0,12215,10290,29835,40432,37465,2
0.0,0.0,0.0,12215,10278,29746,40346,37230,2
0.0,0.0,0.0,12228,10278,29775,40088,37152,2
0.0,0.0,0.0,12215,10267,29746,40088,37191,2
0.0,0.0,0.0,12215,10301,29657,40088,37152,2
0.0,0.0,0.0,12163,10301,29627,39790,36920,2
0.0,0.0,0.0,12202,10301,29686,39747,36690,2
0.0,0.0,0.0,12202,10301,29627,39747,36690,2
0.0,0.0,0.0,12215,10301,29568,39578,36690,2
0.0,0.0,0.0,12176,10301,29568,39494,36386,2
0.0,0.0,0.0,12189,10301,29568,39494,36424,2
0.0,0.0,0.0,12202,10278,29509,39494,36462,2
0.0,0.0,0.0,12228,10278,29479,39663,36462,2
0.0,0.0,0.0,12202,10301,29627,39578,36197,2
0.0,0.0,0.0,12228,10313,29657,39536,36160,2
0.0,0.0,0.0,12228,10301,29657,39369,36047,2
0.0,0.0,0.0,12267,10301,29538,39327,36085,2
0.0,0.0,0.0,12267,10301,29627,39244,36047,2
0.0,0.0,0.0,12215,10301,29657,39327,35935,2
0.0,0.0,0.0,12241,10313,29568,39160,35972,2
0.0,0.0,0.0,12267,10301,29627,39244,35861,2
0.0,0.0,0.0,12241,10325,29538,39160,35824,2
0.0,0.0,0.0,12215,10301,29538,39244,35787,2
0.0,0.0,0.0,12241,10301,29538,39160,35712,2
0.0,0.0,0.0,12241,10301,29509,39244,35639,2
0.0,0.0,0.0,12241,10301,29421,39077,35639,2
0.0,0.0,0.0,12267,10313,29509,39077,35565,2
0.0,0.0,0.0,12254,10301,29450,39077,35528,2
0.0,0.0,0.0,12267,10313,29421,38953,35418,2
0.0,0.0,0.0,12267,10325,29450,39077,35345,2
0.0,0.0,0.0,12241,10325,29391,38995,35455,2
0.0,0.0,0.0,12267,10301,29391,38995,35418,2
0.0,0.0,0.0,12267,10313,29333,39036,35455,2
0.0,0.0,0.0,12215,10301,29391,38995,35382,2
0.0,0.0,0.0,12241,10313,29391,38995,35272,2
0.0,0.0,0.0,12228,10325,29391,38995,35309,2
0.0,0.0,0.0,12241,10313,29274,38995,35418,2
0.0,0.0,0.0,12254,10325,29274,38912,35272,2
0.0,0.0,0.0,12228,10313,29304,39036,35345,2
0.0,0.0,0.0,12267,10336,29274,38912,35345,2
0.0,0.0,0.0,12267,10325,29216,38912,35309,2
0.0,0.0,0.0,12241,10313,29274,38912,35163,2
0.0,0.0,0.0,12267,10313,29274,38748,35309,2
0.0,0.0,0.0,12267,10325,29158,38953,35272,2
0.0,0.0,0.0,12241,10313,29216,38995,35163,2
0.0,0.0,0.0,12241,10325,29216,38871,35272,2
0.0,0.0,0.0,12241,10313,29216,38871,35127,2
0.0,0.0,0.0,12267,10325,29216,38871,35272,2
0.0,0.0,0.0,12267,10336,29129,38912,35163,2
0.0,0.0,0.0,12241,10301,29158,38912,35091,2
0.0,0.0,0.0,12267,10325,29187,38830,35199,2
0.0,0.0,0.0,12267,10325,29187,38830,35127,2
0.0,0.0,0.0,12241,10325,29158,38830,35055,2
0.0,0.0,0.0,12228,10348,29071,38748,35091,2
0.0,0.0,0.0,12267,10348,29071,38748,35127,2
0.0,0.0,0.0,12267,10348,29100,38748,35199,2
0.0,0.0,0.0,12241,10348,29042,38871,34946,2
0.0,0.0,0.0,12267,10371,29100,38789,35055,2
0.0,0.0,0.0,12267,10348,29071,38789,35055,2
0.0,0.0,0.0,12267,10348,29042,38707,35018,2
0.0,0.0,0.0,12241,10336,29100,38748,34910,2
0.0,0.0,0.0,12241,10348,29042,38748,34839,2
0.0,0.0,0.0,12267,10348,29042,38707,34982,2
0.0,0.0,0.0,12241,10348,29071,38830,34874,2
0.0,0.0,0.0,12241,10348,29042,38789,34874,2
0.0,0.0,0.0,12241,10348,29042,38707,34839,2
0.0,0.0,0.0,12267,10348,29042,38748,34839,2
0.0,0.0,0.0,12241,10348,28984,38707,34946,2
0.0,0.0,0.0,12215,10359,28984,38707,34874,2
0.0,0.0,0.0,12228,10359,28984,38707,34767,2
0.0,0.0,0.0,12241,10348,28984,38789,34839,2
0.0,0.0,0.0,12267,10348,28955,38748,34874,2
0.0,0.0,0.0,12267,10359,28984,38789,34839,2
0.0,0.0,0.0,12267,10348,28984,38666,34767,2
0.0,0.0,0.0,12280,10348,28955,38748,34731,2
0.0,0.0,0.0,12241,10371,28984,38789,34696,2
0.0,0.0,0.0,12267,10371,28984,38707,34731,2
0.0,0.0,0.0,12267,10359,28927,38666,34696,2
0.0,0.0,0.0,12267,10359,28927,38707,34553,2
0.0,0.0,0.0,12280,10371,28927,38666,34696,2
0.0,0.0,0.0,12280,10371,28898,38666,34553,2
0.0,0.0,0.0,12280,10371,28955,38585,34518,2
0.0,0.0,0.0,12280,10371,28927,38707,34553,2
0.0,0.0,0.0,12267,10394,28955,38585,34482,2
0.0,0.0,0.0,12280,10394,28869,38585,34447,2
0.0,0.0,0.0,12267,10394,28840,38544,34447,2
0.0,0.0,0.0,12280,10394,28840,38463,34447,2
0.0,0.0,0.0,12293,10406,28840,38503,34553,2
0.0,0.0,0.0,12280,10418,28840,38503,34482,2
0.0,0.0,0.0,12267,10441,28840,38585,34447,2
0.0,0.0,0.0,12280,10441,28869,38503,34518,2
0.0,0.0,0.0,12320,10441,28927,38544,34341,2
0.0,0.0,0.0,12267,10441,28898,38585,34412,2
0.0,0.0,0.0,12293,10441,28840,38585,34341,2
0.0,0.0,0.0,12306,10441,28840,38544,34341,2
0.0,0.0,0.0,12267,10418,28840,38585,34341,2
0.0,0.0,0.0,12267,10418,28812,38544,34341,2
0.0,0.0,0.0,12293,10441,28812,38503,34412,2
0.0,0.0,0.0,12280,10441,28812,38503,34376,2
0.0,0.0,0.0,12267,10441,28812,38666,34306,2
0.0,0.0,0.0,12293,10441,28840,38503,34271,2
0.0,0.0,0.0,12320,10441,28869,38503,34341,2
0.0,0.0,0.0,12280,10441,28869,38422,34271,2
0.0,0.0,0.0,12280,10441,28812,38503,34271,2
0.0,0.0,0.0,12280,10453,28754,38422,34271,2
0.0,0.0,0.0,12293,10453,28812,38422,34271,2
0.0,0.0,0.0,12293,10453,28812,38544,34095,2
0.0,0.0,0.0,12293,10453,28812,38503,34200,2
0.0,0.0,0.0,12293,10488,28840,38422,34130,2
0.0,0.0,0.0,12280,10453,28812,38422,34060,2
0.0,0.0,0.0,12293,10464,28812,38422,34130,2
0.0,0.0,0.0,12293,10488,28754,38382,34130,2
0.0,0.0,0.0,12280,10488,28869,38422,33991,2
0.0,0.0,0.0,12306,10488,28726,38341,33991,2
0.0,0.0,0.0,12320,10488,28812,38341,34165,2
0.0,0.0,0.0,12267,10488,28812,38422,33921,2
0.0,0.0,0.0,12293,10511,28669,38382,33991,2
0.0,0.0,0.0,12320,10499,28726,38341,34060,2
0.0,0.0,0.0,12320,10511,28669,38341,33991,2
0.0,0.0,0.0,12320,10511,28812,38422,33921,2
0.0,0.0,0.0,12306,10535,28754,38341,33887,2
0.0,0.0,0.0,12293,10511,28726,38301,33921,2
0.0,0.0,0.0,12280,10499,28726,38301,33852,2
0.0,0.0,0.0,12320,10535,28754,38341,33921,2
0.0,0.0,0.0,12293,10546,28726,38260,33852,2
0.0,0.0,0.0,12293,10582,28669,38220,33921,2
0.0,0.0,0.0,12320,10582,28726,38341,33783,2
0.0,0.0,0.0,12293,10582,28726,38260,33783,2
0.0,0.0,0.0,12320,10594,28640,38180,33921,2
0.0,0.0,0.0,12293,10582,28669,38260,33852,2
0.0,0.0,0.0,12320,10617,28697,38180,33852,2
0.0,0.0,0.0,12320,10594,28697,38180,33783,2
0.0,0.0,0.0,12320,10605,28697,38100,33748,2
0.0,0.0,0.0,12293,10605,28612,38140,33748,2
0.0,0.0,0.0,12320,10605,28697,38180,33748,2
0.0,0.0,0.0,12320,10629,28697,38180,33748,2
0.0,0.0,0.0,12346,10641,28612,38140,33748,2
0.0,0.0,0.0,12346,10629,28640,38140,33714,2
0.0,0.0,0.0,12346,10629,28640,38180,33714,2
0.0,0.0,0.0,12346,10629,28640,38100,33852,2
0.0,0.0,0.0,12320,10629,28640,38180,33576,2
0.0,0.0,0.0,12372,10641,28640,38180,33611,2
0.0,0.0,0.0,12346,10629,28612,38100,33714,2
0.0,0.0,0.0,12372,10629,28640,38100,33611,2
0.0,0.0,0.0,12372,10629,28640,38180,33576,2
0.0,0.0,0.0,12372,10641,28612,38100,33714,2
0.0,0.0,0.0,12372,10629,28669,38100,33576,2
0.0,0.0,0.0,12372,10641,28612,38180,33576,2
0.0,0.0,0.0,12398,10629,28697,38100,33645,2
0.0,0.0,0.0,12372,10629,28583,38059,33645,2
0.0,0.0,0.0,12372,10629,28583,38100,33645,2
0.0,0.0,0.0,12372,10629,28612,38059,33611,2
0.0,0.0,0.0,12372,10629,28583,38059,33576,2
0.0,0.0,0.0,12372,10629,28583,38100,33576,2
0.0,0.0,0.0,12372,10641,28640,38180,33508,2
0.0,0.0,0.0,12372,10641,28583,38059,33508,2
0.0,0.0,0.0,12385,10629,28555,38100,33576,2
0.0,0.0,0.0,12385,10676,28583,37940,33576,2
0.0,0.0,0.0,12372,10653,28583,37980,33576,2
0.0,0.0,0.0,12372,10641,28527,37940,33542,2
0.0,0.0,0.0,12398,10664,28612,37980,33542,2
0.0,0.0,0.0,12372,10653,28555,37940,33576,2
0.0,0.0,0.0,12424,10676,28527,38019,33474,2
0.0,0.0,0.0,12411,10676,28527,37900,33576,2
0.0,0.0,0.0,12424,10653,28470,37940,33508,2
0.0,0.0,0.0,12424,10676,28527,37900,33542,2
0.0,0.0,0.0,12424,10653,28527,37940,33508,2
0.0,0.0,0.0,12411,10664,28498,37860,33474,2
0.0,0.0,0.0,12411,10676,28527,37940,33439,2
0.0,0.0,0.0,12438,10653,28470,37820,33371,2
0.0,0.0,0.0,12424,10641,28527,37940,33508,2
0.0,0.0,0.0,12398,10653,28527,37940,33474,2
0.0,0.0,0.0,12438,10653,28470,37781,33337,2
0.0,0.0,0.0,12424,10676,28498,37781,33371,2
0.0,0.0,0.0,12424,10676,28470,37860,33439,2
0.0,0.0,0.0,12438,10676,28527,37860,33405,2
0.0,0.0,0.0,12438,10700,28498,37860,33439,2
0.0,0.0,0.0,12424,10676,28470,37860,33439,2
0.0,0.0,0.0,12398,10653,28470,37860,33236,2
0.0,0.0,0.0,12477,10688,28470,37860,33371,2
0.0,0.0,0.0,12477,10676,28527,37860,33303,2
0.0,0.0,0.0,12438,10664,28470,37860,33371,2
0.0,0.0,0.0,12424,10676,28498,37781,33303,2
0.0,0.0,0.0,12477,10676,28498,37940,33337,2
0.0,0.0,0.0,12477,10676,28470,37781,33269,2
0.0,0.0,0.0,12504,10653,28414,37820,33439,2
0.0,0.0,0.0,12543,10653,28357,37741,33337,2
0.0,0.0,0.0,12583,10676,28301,37701,33303,2
0.0,0.0,0.0,12716,10676,28189,37543,33303,2
0.0,0.0,0.0,12797,10629,28077,37308,33168,2
0.0,0.0,0.0,13013,10629,27939,36767,32999,2
0.0,0.0,0.0,13329,10641,27773,36235,32832,2
0.0,0.0,0.0,13371,10676,27691,36085,32765,2
0.0,0.0,0.0,13398,10676,27718,36085,32699,2
0.0,0.0,0.0,13343,10676,27691,36010,32666,2
0.0,0.0,0.0,13287,10653,27745,36047,32699,2
0.0,0.0,0.0,13232,10700,27800,36047,33033,2
0.0,0.0,0.0,13191,10724,27994,36386,33033,2
0.0,0.0,0.0,13136,10748,28049,36462,33236,2
0.0,0.0,0.0,13081,10771,28161,36424,32932,2
0.0,0.0,0.0,13013,10771,28245,36386,33033,2
0.0,0.0,0.0,12972,10771,28077,36386,33033,2
0.0,0.0,0.0,12905,10748,28049,36310,32633,2
0.0,0.0,0.0,12797,10688,27856,36160,32566,2
0.0,0.0,0.0,12743,10605,27691,35565,32500,2
0.0,0.0,0.0,12743,10499,27581,35272,32435,2
0.0,0.0,0.0,12756,10441,27499,34982,32369,2
0.0,0.0,0.0,12743,10394,27472,34731,32369,2
0.0,0.0,0.0,12743,10371,27310,34412,32271,2
0.0,0.0,0.0,12743,10348,27310,33748,32108,2
0.0,0.0,0.0,12743,10325,26935,33236,31817,2
0.0,0.0,0.0,12649,10313,26566,32832,31720,2
0.0,0.0,0.0,12610,10267,26331,32303,31529,2
0.0,0.0,0.0,12517,10232,25843,31752,31244,2
0.0,0.0,0.0,12372,10209,25192,31402,30715,2
0.0,0.0,0.0,12267,10186,24799,31339,30591,2
0.0,0.0,0.0,12086,10209,24897,31817,30838,2
0.0,0.0,0.0,12124,10186,24799,31978,30807,2
0.0,0.0,0.0,12163,10209,24751,32108,30838,2
0.0,0.0,0.0,12215,10209,24799,32108,30869,2
0.0,0.0,0.0,12241,10209,24799,32369,30994,2
0.0,0.0,0.0,12346,10209,24727,32238,31025,2
0.0,0.0,0.0,12517,10209,24799,31946,30994,2
0.0,0.0,0.0,12690,10232,24873,31624,31087,2
0.0,0.0,0.0,13122,10232,25019,31213,31276,2
0.0,0.0,0.0,13205,10232,24799,30994,31339,2
0.0,0.0,0.0,12972,10255,24946,31213,31339,2
0.0,0.0,0.0,13013,10255,24824,31056,31339,2
0.0,0.0,0.0,13068,10255,24824,31087,31370,2
0.0,0.0,0.0,13122,10301,24824,31025,31339,2
0.0,0.0,0.0,13232,10301,24702,30869,31497,2
0.0,0.0,0.0,13122,10267,24462,30776,31434,2
0.0,0.0,0.0,13081,10278,24366,30499,31339,2
0.0,0.0,0.0,13027,10278,24366,30165,31087,2
0.0,0.0,0.0,12972,10267,24342,30165,31150,2
0.0,0.0,0.0,13081,10278,24606,30165,31276,2
0.0,0.0,0.0,13122,10278,24438,30165,31213,2
0.0,0.0,0.0,13136,10278,24390,30165,31150,2
0.0,0.0,0.0,13081,10301,24510,30226,31087,2
0.0,0.0,0.0,13068,10301,24558,30165,31025,2
0.0,0.0,0.0,13095,10290,24510,30165,31025,2
0.0,0.0,0.0,13205,10301,24414,30165,31025,2
0.0,0.0,0.0,13205,10301,24414,30165,31025,2
0.0,0.0,0.0,13343,10267,24390,29925,31025,2
0.0,0.0,0.0,13398,10301,24342,29627,30591,2
0.0,0.0,0.0,13510,10325,24366,28869,30226,2
0.0,0.0,0.0,13580,10348,24129,27527,30045,2
0.0,0.0,0.0,13693,10371,23987,27068,30165,2
0.0,0.0,0.0,13792,10406,24176,27310,30469,2
0.0,0.0,0.0,13906,10441,24223,27310,30438,2
0.0,0.0,0.0,13906,10476,24390,27418,30377,2
0.0,0.0,0.0,13806,10499,24630,27581,30591,2
0.0,0.0,0.0,13821,10488,24630,27691,30469,2
0.0,0.0,0.0,13764,10488,24702,27718,30530,2
0.0,0.0,0.0,13721,10488,24702,27800,30499,2
0.0,0.0,0.0,13679,10488,24799,27745,30530,2
0.0,0.0,0.0,13679,10453,24751,27856,30469,2
0.0,0.0,0.0,13636,10453,24727,27828,30530,2
0.0,0.0,0.0,13636,10464,24751,27911,30469,2
0.0,0.0,0.0,13594,10488,24848,28022,30438,2
0.0,0.0,0.0,13566,10476,24873,28022,30530,2
0.0,0.0,0.0,13566,10488,24897,28022,30469,2
0.0,0.0,0.0,13538,10488,24824,27966,30469,2
0.0,0.0,0.0,13566,10488,24897,27966,30469,2
0.0,0.0,0.0,13566,10499,24799,27883,30469,2
0.0,0.0,0.0,13552,10488,24727,27828,30438,2
0.0,0.0,0.0,13538,10488,24799,27911,30377,2
0.0,0.0,0.0,13524,10488,24799,27911,30347,2
0.0,0.0,0.0,13510,10499,24799,27911,30469,2
0.0,0.0,0.0,13510,10511,24727,27939,30408,2
0.0,0.0,0.0,13468,10535,24751,27911,30469,2
0.0,0.0,0.0,13482,10511,24799,27856,30469,2
0.0,0.0,0.0,13482,10535,24824,27883,30408,2
0.0,0.0,0.0,13454,10511,24848,27856,30469,2
0.0,0.0,0.0,13454,10535,24897,27911,30530,2
0.0,0.0,0.0,13454,10511,24946,28022,30469,2
0.0,0.0,0.0,13454,10535,24848,27939,30408,2
0.0,0.0,0.0,13454,10535,24897,27911,30408,2
0.0,0.0,0.0,13412,10488,24873,27966,30469,2
0.0,0.0,0.0,13426,10535,24897,27911,30499,2
0.0,0.0,0.0,13454,10535,24848,27911,30469,2
0.0,0.0,0.0,13412,10546,24873,27883,30377,2
0.0,0.0,0.0,13426,10546,24775,27856,30469,2
0.0,0.0,0.0,13468,10558,24654,27691,30469,2
0.0,0.0,0.0,13412,10594,24606,27745,30408,2
0.0,0.0,0.0,13524,10582,24558,27691,30469,2
0.0,0.0,0.0,13538,10605,24534,27691,30499,2
0.0,0.0,0.0,13580,10594,24606,27691,30408,2
0.0,0.0,0.0,13580,10605,24534,27691,30347,2
0.0,0.0,0.0,13735,10641,24510,27691,30408,2
0.0,0.0,0.0,13735,10653,24534,27609,30438,2
0.0,0.0,0.0,13721,10641,24510,27581,30408,2
0.0,0.0,0.0,13735,10653,24510,27745,30530,2
0.0,0.0,0.0,13764,10641,24414,27773,30530,2
0.0,0.0,0.0,13735,10653,24414,27800,30591,2
0.0,0.0,0.0,13707,10641,24176,27856,30653,2
0.0,0.0,0.0,13792,10653,23894,27856,30653,2
0.0,0.0,0.0,13935,10676,23870,28049,30622,2
0.0,0.0,0.0,13978,10724,24438,28840,30931,2
0.0,0.0,0.0,13992,10807,24510,28927,30838,2
0.0,0.0,0.0,14021,10843,24558,28984,30900,2
0.0,0.0,0.0,13978,10879,24606,29245,30962,2
0.0,0.0,0.0,13992,10939,24654,29216,30962,2
0.0,0.0,0.0,14079,11072,25019,29597,30994,2
0.0,0.0,0.0,14151,11145,25192,29865,31087,2
0.0,0.0,0.0,14253,11206,25142,29805,31213,2
0.0,0.0,0.0,14195,11157,25044,29805,31119,2
0.0,0.0,0.0,14209,11157,24995,29865,31244,2
0.0,0.0,0.0,14195,11133,24995,29865,31402,2
0.0,0.0,0.0,14195,11157,25019,29865,31624,2
0.0,0.0,0.0,14108,11133,25192,30226,32043,2
0.0,0.0,0.0,14108,11157,25241,30226,32271,2
0.0,0.0,0.0,14137,11157,25341,30256,32271,2
0.0,0.0,0.0,14122,11157,25316,30226,32369,2
0.0,0.0,0.0,14137,11182,25192,30165,32238,2
0.0,0.0,0.0,14108,11121,25241,30105,32173,2
0.0,0.0,0.0,14050,11084,25540,30347,32271,2
0.0,0.0,0.0,14021,11060,25440,30347,32205,2
0.0,0.0,0.0,14036,11024,25341,30165,32173,2
0.0,0.0,0.0,14050,10975,25216,29895,32173,2
0.0,0.0,0.0,14108,10927,25192,29657,32238,2
0.0,0.0,0.0,14064,10915,25093,29568,32238,2
0.0,0.0,0.0,14137,10915,24995,29362,32271,2
0.0,0.0,0.0,14108,10867,24946,29216,32238,2
0.0,0.0,0.0,14166,10795,24946,29158,32238,2
0.0,0.0,0.0,14137,10582,24848,29100,32303,2
0.0,0.0,0.0,14108,10418,24799,29042,32173,2
0.0,0.0,0.0,13992,10301,24702,28754,31978,2
0.0,0.0,0.0,13849,10244,24558,28640,31849,2
0.0,0.0,0.0,13764,10209,24462,28555,31720,2
0.0,0.0,0.0,13679,10209,24510,28385,31624,2
0.0,0.0,0.0,13622,10209,24438,28357,31624,2
0.0,0.0,0.0,13538,10186,24414,28301,31497,2
0.0,0.0,0.0,13412,10163,24462,28189,31402,2
0.0,0.0,0.0,13246,10140,24414,28049,31213,2
0.0,0.0,0.0,13205,10129,24414,28022,31276,2
0.0,0.0,0.0,13177,10129,24390,28077,31402,2
0.0,0.0,0.0,13136,10129,24414,28022,31339,2
0.0,0.0,0.0,13150,10129,24366,28022,31370,2
0.0,0.0,0.0,13150,10129,24414,28022,31339,2
0.0,0.0,0.0,13122,10117,24366,28077,31276,2
0.0,0.0,0.0,13081,10117,24414,28022,31339,2
0.0,0.0,0.0,13068,10117,24414,28077,31339,2
0.0,0.0,0.0,13054,10117,24414,28049,31213,2
0.0,0.0,0.0,13068,10117,24414,28133,31402,2
0.0,0.0,0.0,13013,10140,24462,28189,31339,2
0.0,0.0,0.0,13068,10186,24702,28133,31339,2
0.0,0.0,0.0,13122,10278,24848,28357,31465,2
0.0,0.0,0.0,13163,10558,24946,28442,31497,2
0.0,0.0,0.0,13122,10771,24995,28527,31593,2
0.0,0.0,0.0,13177,11012,25019,28583,31561,2
0.0,0.0,0.0,13177,10975,24946,28527,31624,2
0.0,0.0,0.0,13177,10879,24995,28583,31593,2
0.0,0.0,0.0,13177,10819,25019,28527,31656,2
0.0,0.0,0.0,13191,10771,24995,28583,31529,2
0.0,0.0,0.0,13150,10605,24995,28583,31529,2
0.0,0.0,0.0,13136,10394,24946,28498,31465,2
0.0,0.0,0.0,13054,10255,24799,28357,31497,2
0.0,0.0,0.0,12972,10255,24727,28245,31276,2
0.0,0.0,0.0,12972,10221,24630,28301,31244,2
0.0,0.0,0.0,13068,10221,24630,28245,31213,2
0.0,0.0,0.0,13538,10325,24654,28301,31402,2
0.0,0.0,0.0,13792,10406,24654,28301,31402,2
0.0,0.0,0.0,14166,10523,24702,28301,31465,2
0.0,0.0,0.0,14311,10641,24775,28470,31465,2
0.0,0.0,0.0,14282,10771,24848,28498,31465,2
0.0,0.0,0.0,14209,10807,24897,28470,31529,2
0.0,0.0,0.0,14209,10783,24848,28470,31529,2
0.0,0.0,0.0,14253,10795,24824,28442,31529,2
0.0,0.0,0.0,14268,10843,24799,28442,31497,2
0.0,0.0,0.0,14311,10867,24824,28442,31465,2
0.0,0.0,0.0,14137,10855,24897,28498,31465,2
0.0,0.0,0.0,13921,10819,24946,28583,31497,2
0.0,0.0,0.0,13735,10783,25093,28697,31561,2
0.0,0.0,0.0,13679,10795,25044,28640,31529,2
0.0,0.0,0.0,13580,10771,25093,28754,31593,2
0.0,0.0,0.0,13792,10771,25241,28840,31593,2
0.0,0.0,0.0,14592,10748,25291,28898,31593,2
0.0,0.0,0.0,15335,10688,25316,28812,31656,2
0.0,0.0,0.0,15584,10700,25316,28840,31593,2
0.0,0.0,0.0,15789,10676,25341,28812,31529,2
0.0,0.0,0.0,15900,10676,25390,28869,31593,2
0.0,0.0,0.0,15900,10676,25440,28840,31688,2
0.0,0.0,0.0,15852,10676,25415,28840,31529,2
0.0,0.0,0.0,15741,10676,25390,28898,31593,2
0.0,0.0,0.0,15773,10676,25390,28927,31593,2
0.0,0.0,0.0,15710,10676,25415,28869,31624,2
0.0,0.0,0.0,15647,10676,25390,28840,31593,2
0.0,0.0,0.0,15553,10688,25365,28869,31497,2
0.0,0.0,0.0,15475,10700,25415,28898,31465,2
0.0,0.0,0.0,15366,10676,25390,28927,31593,2
0.0,0.0,0.0,15335,10700,25390,28927,31593,2
0.0,0.0,0.0,15273,10676,25365,28812,31497,2
0.0,0.0,0.0,15211,10748,25365,28898,31497,2
0.0,0.0,0.0,15211,10724,25390,28840,31465,2
0.0,0.0,0.0,15165,10748,25341,28898,31561,2
0.0,0.0,0.0,15181,10748,25341,28869,31465,2
0.0,0.0,0.0,15089,10724,25316,28927,31593,2
0.0,0.0,0.0,15150,10724,25341,28869,31497,2
0.0,0.0,0.0,15104,10724,25390,28869,31593,2
0.0,0.0,0.0,15089,10748,25341,28927,31593,2
0.0,0.0,0.0,15089,10748,25390,28955,31593,2
0.0,0.0,0.0,15089,10748,25291,28869,31465,2
0.0,0.0,0.0,15104,10724,25316,28869,31465,2
0.0,0.0,0.0,15089,10748,25316,28898,31529,2
0.0,0.0,0.0,15104,10748,25390,29042,31465,2
0.0,0.0,0.0,15104,10688,25316,28927,31434,2
0.0,0.0,0.0,15089,10724,25316,28927,31497,2
0.0,0.0,0.0,15150,10724,25291,28984,31561,2
0.0,0.0,0.0,15165,10724,25316,28984,31465,2
0.0,0.0,0.0,15211,10724,25341,28927,31465,2
0.0,0.0,0.0,15165,10748,25341,28927,31529,2
0.0,0.0,0.0,15150,10748,25341,28927,31465,2
0.0,0.0,0.0,15119,10724,25316,29042,31465,2
0.0,0.0,0.0,15150,10724,25291,29042,31497,2
0.0,0.0,0.0,15119,10724,25291,28955,31434,2
0.0,0.0,0.0,15119,10748,25316,29042,31529,2
0.0,0.0,0.0,15043,10748,25316,29100,31593,2
0.0,0.0,0.0,15058,10748,25440,29158,31561,2
0.0,0.0,0.0,15165,10724,25616,29216,31497,2
0.0,0.0,0.0,15288,10676,25540,29100,31370,2
0.0,0.0,0.0,15288,10406,25390,28697,31402,2
0.0,0.0,0.0,15288,10290,25291,28498,31244,2
0.0,0.0,0.0,15089,10232,25291,28301,31213,2
0.0,0.0,0.0,14907,10209,25241,28133,31181,2
0.0,0.0,0.0,14666,10174,25216,27883,31025,2
0.0,0.0,0.0,14444,10129,25291,27883,30962,2
0.0,0.0,0.0,14370,10129,25192,27828,30869,2
0.0,0.0,0.0,14326,10140,25316,27800,30869,2
0.0,0.0,0.0,14268,10140,25192,27745,30962,2
0.0,0.0,0.0,14253,10163,25216,27718,30776,2
0.0,0.0,0.0,14282,10140,25192,27828,30900,2
0.0,0.0,0.0,14253,10140,25142,27911,30962,2
0.0,0.0,0.0,14238,10163,25142,27828,30838,2
0.0,0.0,0.0,14195,10174,25142,27939,30962,2
0.0,0.0,0.0,14195,10255,25291,28049,31087,2
0.0,0.0,0.0,14224,10301,25291,28105,30962,2
0.0,0.0,0.0,14195,10348,25390,28133,30962,2
0.0,0.0,0.0,14180,10535,25415,28273,31087,2
0.0,0.0,0.0,14224,10819,25490,28470,31150,2
0.0,0.0,0.0,14195,10795,25490,28470,31150,2
0.0,0.0,0.0,14180,10903,25490,28527,31276,2
0.0,0.0,0.0,14151,11072,25490,28498,31087,2
0.0,0.0,0.0,14137,11109,25490,28555,31213,2
0.0,0.0,0.0,14108,11084,25540,28640,31244,2
0.0,0.0,0.0,14108,11012,25591,28697,31213,2
0.0,0.0,0.0,14108,10915,25565,28640,31244,2
0.0,0.0,0.0,14050,10795,25515,28669,31150,2
0.0,0.0,0.0,14021,10771,25540,28726,31181,2
0.0,0.0,0.0,14108,10748,25691,29274,31276,2
0.0,0.0,0.0,14195,10748,25793,29984,31434,2
0.0,0.0,0.0,14282,10771,25843,30591,31624,2
0.0,0.0,0.0,14488,10795,25490,30962,32303,2
0.0,0.0,0.0,14666,10843,24995,30931,33371,2
0.0,0.0,0.0,14681,10819,24751,30745,33887,2
0.0,0.0,0.0,14547,10819,24582,30591,33748,2
0.0,0.0,0.0,14503,10819,24606,30408,33576,2
0.0,0.0,0.0,14503,10819,24606,30195,33371,2
0.0,0.0,0.0,14547,10819,24510,29865,32999,2
0.0,0.0,0.0,14503,10795,24414,29391,32699,2
0.0,0.0,0.0,14532,10748,24414,28984,32633,2
0.0,0.0,0.0,14607,10724,24129,28357,32369,2
0.0,0.0,0.0,14696,10748,23754,27745,32173,2
0.0,0.0,0.0,14726,10748,23569,27527,32108,2
0.0,0.0,0.0,14907,10783,23546,27472,31978,2
0.0,0.0,0.0,14982,10783,23431,27391,31849,2
0.0,0.0,0.0,15058,10795,23248,27175,31656,2
0.0,0.0,0.0,15028,10748,23203,27095,31720,2
0.0,0.0,0.0,15058,10688,23203,26961,31593,2
0.0,0.0,0.0,15089,10558,23180,26882,31720,2
0.0,0.0,0.0,15058,10488,23112,26670,31720,2
0.0,0.0,0.0,14967,10441,23135,26487,31720,2
0.0,0.0,0.0,14967,10394,23157,26461,31849,2
0.0,0.0,0.0,14846,10394,23022,26461,31656,2
0.0,0.0,0.0,14801,10394,22999,26331,31593,2
0.0,0.0,0.0,14786,10394,23022,26305,31561,2
0.0,0.0,0.0,14786,10394,22977,26305,31529,2
0.0,0.0,0.0,14741,10394,22932,26331,31529,2
0.0,0.0,0.0,14741,10394,22887,26253,31402,2
0.0,0.0,0.0,14741,10406,22887,26305,31402,2
0.0,0.0,0.0,14741,10394,22887,26305,31402,2
0.0,0.0,0.0,14726,10418,22932,26305,31465,2
0.0,0.0,0.0,14666,10418,22932,26409,31497,2
0.0,0.0,0.0,14666,10441,22977,26409,31561,2
0.0,0.0,0.0,14666,10441,23044,26618,31656,2
0.0,0.0,0.0,14666,10464,23090,26723,31785,2
0.0,0.0,0.0,14651,10488,23225,26829,31913,2
0.0,0.0,0.0,14666,10499,23316,27095,32238,2
0.0,0.0,0.0,14666,10582,23431,27499,32533,2
0.0,0.0,0.0,14666,10582,23477,27581,32699,2
0.0,0.0,0.0,14666,10629,23431,27609,32599,2
0.0,0.0,0.0,14607,10582,23431,27472,32566,2
0.0,0.0,0.0,14651,10582,23431,27527,32500,2
0.0,0.0,0.0,14607,10582,23431,27472,32533,2
0.0,0.0,0.0,14636,10558,23339,27364,32369,2
0.0,0.0,0.0,14607,10546,23431,27310,32271,2
0.0,0.0,0.0,14621,10546,23385,27256,32369,2
0.0,0.0,0.0,14636,10546,23431,27283,32238,2
0.0,0.0,0.0,14607,10558,23477,27391,32369,2
0.0,0.0,0.0,14607,10582,23522,27391,32369,2
0.0,0.0,0.0,14666,10594,23615,27364,32303,2
0.0,0.0,0.0,14696,10629,23661,27418,32500,2
0.0,0.0,0.0,14726,10594,23800,27499,32467,2
0.0,0.0,0.0,14741,10605,23964,27527,32533,2
0.0,0.0,0.0,15028,10629,24176,27911,32732,2
0.0,0.0,0.0,15459,10688,24271,28077,32899,2
0.0,0.0,0.0,15647,10724,24223,28049,33033,2
0.0,0.0,0.0,15584,10748,24223,28022,32966,2
0.0,0.0,0.0,15600,10748,24223,27966,32899,2
0.0,0.0,0.0,15521,10724,24223,27994,32966,2
0.0,0.0,0.0,15600,10748,24223,27911,33033,2
0.0,0.0,0.0,15537,10724,24223,27939,32932,2
0.0,0.0,0.0,15537,10748,24223,27911,33033,2
0.0,0.0,0.0,15553,10724,24223,27911,32932,2
0.0,0.0,0.0,15584,10724,24129,27911,32966,2
0.0,0.0,0.0,15288,10724,24081,27800,32932,2
0.0,0.0,0.0,15150,10748,23987,27800,32899,2
0.0,0.0,0.0,15104,10759,23987,27718,32832,2
0.0,0.0,0.0,15104,10748,23964,27800,33033,2
0.0,0.0,0.0,15058,10748,23940,27745,32999,2
0.0,0.0,0.0,15028,10783,23940,27718,32966,2
0.0,0.0,0.0,15058,10819,23894,27718,32899,2
0.0,0.0,0.0,15013,10867,23894,27718,32932,2
0.0,0.0,0.0,14952,10891,23847,27691,32966,2
0.0,0.0,0.0,14922,10915,23847,27691,33033,2
0.0,0.0,0.0,14876,10915,23800,27636,32932,2
0.0,0.0,0.0,14846,10939,23824,27609,32932,2
0.0,0.0,0.0,14846,10963,23824,27609,32932,2
0.0,0.0,0.0,14786,10963,23777,27581,32966,2
0.0,0.0,0.0,14801,10963,23754,27554,32899,2
0.0,0.0,0.0,14696,10939,23707,27554,32799,2
0.0,0.0,0.0,14666,10927,23661,27472,32765,2
0.0,0.0,0.0,14636,10939,23684,27499,32832,2
0.0,0.0,0.0,14547,10915,23592,27472,32799,2
0.0,0.0,0.0,14503,10939,23592,27391,32765,2
0.0,0.0,0.0,14518,10939,23592,27418,32765,2
0.0,0.0,0.0,14503,10939,23522,27472,32832,2
0.0,0.0,0.0,14488,10951,23569,27364,32799,2
0.0,0.0,0.0,14488,10963,23569,27391,32799,2
0.0,0.0,0.0,14503,10963,23569,27418,32832,2
0.0,0.0,0.0,14458,10915,23522,27391,32799,2
0.0,0.0,0.0,14429,10927,23499,27418,32699,2
0.0,0.0,0.0,14370,10915,23454,27445,32832,2
0.0,0.0,0.0,14311,10915,23316,27418,32765,2
0.0,0.0,0.0,14209,10891,23339,27310,32699,2
0.0,0.0,0.0,14195,10927,23294,27364,32666,2
0.0,0.0,0.0,14137,10915,23248,27337,32666,2
0.0,0.0,0.0,14108,10915,23271,27364,32633,2
0.0,0.0,0.0,14108,10903,23203,27256,32566,2
0.0,0.0,0.0,14079,10915,23157,27283,32533,2
0.0,0.0,0.0,14108,10903,23203,27256,32500,2
0.0,0.0,0.0,14050,10891,23135,27283,32566,2
0.0,0.0,0.0,14021,10879,23112,27256,32566,2
0.0,0.0,0.0,13964,10903,23112,27283,32566,2
0.0,0.0,0.0,13992,10891,23112,27256,32533,2
0.0,0.0,0.0,13921,10891,23112,27229,32500,2
0.0,0.0,0.0,13906,10915,23112,27256,32566,2
0.0,0.0,0.0,13921,10951,23203,27202,32533,2
0.0,0.0,0.0,13906,10939,23203,27175,32533,2
0.0,0.0,0.0,13906,10939,23203,27202,32500,2
0.0,0.0,0.0,13863,10927,23180,27202,32566,2
0.0,0.0,0.0,13863,10927,23203,27175,32369,2
0.0,0.0,0.0,13863,10939,23135,27175,32435,2
0.0,0.0,0.0,13906,10915,23112,27148,32500,2
0.0,0.0,0.0,13849,10915,23157,27148,32435,2
0.0,0.0,0.0,13863,10915,23135,27041,32369,2
0.0,0.0,0.0,13863,10927,23135,27122,32369,2
0.0,0.0,0.0,13892,10939,23157,27041,32500,2
0.0,0.0,0.0,13906,10939,23112,27041,32435,2
0.0,0.0,0.0,13821,10963,23112,27068,32369,2
0.0,0.0,0.0,13863,10963,23090,27041,32533,2
0.0,0.0,0.0,13892,10915,23090,27041,32336,2
0.0,0.0,0.0,13863,10915,23022,27015,32369,2
0.0,0.0,0.0,13849,10927,23067,27041,32500,2
0.0,0.0,0.0,13906,10915,22999,26988,32435,2
0.0,0.0,0.0,13906,10915,22887,26961,32303,2
0.0,0.0,0.0,13935,10915,22776,26776,32238,2
0.0,0.0,0.0,13992,10915,22709,26618,32043,2
0.0,0.0,0.0,14195,10927,22599,26513,31913,2
0.0,0.0,0.0,14444,10939,22776,26723,32010,2
0.0,0.0,0.0,14621,10963,22709,26723,31817,2
0.0,0.0,0.0,14846,10987,22532,26461,31656,2
0.0,0.0,0.0,14997,10999,22401,26305,31593,2
0.0,0.0,0.0,15089,11012,22075,25996,31276,2
0.0,0.0,0.0,15397,11024,21818,26435,30622,2
0.0,0.0,0.0,15615,11012,21584,26099,30256,2
0.0,0.0,0.0,15647,11060,21458,25869,30591,2
0.0,0.0,0.0,15694,11060,21542,25894,30869,2
0.0,0.0,0.0,15726,11084,21627,26099,31150,2
0.0,0.0,0.0,15773,11133,21584,25971,31276,2
0.0,0.0,0.0,15964,11170,21648,25894,31213,2
0.0,0.0,0.0,16157,11268,21584,26022,31087,2
0.0,0.0,0.0,16189,11317,21627,26176,31150,2
0.0,0.0,0.0,16157,11354,21818,26566,31087,2
0.0,0.0,0.0,16093,11428,21796,26435,31087,2
0.0,0.0,0.0,16125,11453,21818,26409,31213,2
0.0,0.0,0.0,16157,11478,22096,26202,31656,2
0.0,0.0,0.0,15900,11553,22665,26409,33134,2
0.0,0.0,0.0,15741,11515,22709,26539,33303,2
0.0,0.0,0.0,15647,11528,22754,26513,33202,2
0.0,0.0,0.0,15615,11503,22687,26461,33236,2
0.0,0.0,0.0,15584,11453,22754,26513,33134,2
0.0,0.0,0.0,15506,11453,22754,26409,33134,2
0.0,0.0,0.0,15475,11416,22754,26409,33100,2
0.0,0.0,0.0,15428,11403,22709,26435,33033,2
0.0,0.0,0.0,15412,11416,22776,26461,33100,2
0.0,0.0,0.0,15335,11428,22955,26618,33236,2
0.0,0.0,0.0,15288,11453,22999,26776,33303,2
0.0,0.0,0.0,15211,11453,22977,26829,33508,2
0.0,0.0,0.0,15135,11416,23022,26882,33508,2
0.0,0.0,0.0,14967,11403,23067,27202,34130,2
0.0,0.0,0.0,14756,11379,22999,27256,34341,2
0.0,0.0,0.0,14636,11379,22977,27148,34376,2
0.0,0.0,0.0,14532,11416,22910,27148,34696,2
0.0,0.0,0.0,14473,11440,22977,27202,34874,2
0.0,0.0,0.0,14429,11428,22999,27175,34982,2
0.0,0.0,0.0,14385,11453,23112,27337,35236,2
0.0,0.0,0.0,14385,11503,23157,27445,35492,2
0.0,0.0,0.0,14311,11503,23157,27636,36010,2
0.0,0.0,0.0,14282,11553,23431,27966,36348,2
0.0,0.0,0.0,14253,11615,23707,28669,36920,2
0.0,0.0,0.0,14268,11754,24223,29925,37583,2
0.0,0.0,0.0,14195,11754,24271,30286,37860,2
0.0,0.0,0.0,14195,11754,24342,30408,37980,2
0.0,0.0,0.0,14195,11754,24271,30347,37860,2
0.0,0.0,0.0,14166,11779,24510,30653,38059,2
0.0,0.0,0.0,14166,11983,24799,31881,38748,2
0.0,0.0,0.0,14166,12112,25093,33303,39494,2
0.0,0.0,0.0,14137,12137,25341,34165,40088,2
0.0,0.0,0.0,14122,12112,25540,34696,40605,2
0.0,0.0,0.0,14108,12112,25641,35018,41000,2
0.0,0.0,0.0,14108,11615,25490,34731,41000,2
0.0,0.0,0.0,13921,11453,25341,34306,40736,2
0.0,0.0,0.0,13821,11280,25118,33852,40649,2
0.0,0.0,0.0,13792,11219,25044,33783,40432,2
0.0,0.0,0.0,13679,11170,25019,33645,40389,2
0.0,0.0,0.0,13524,11024,25044,33508,40519,2
0.0,0.0,0.0,13315,10987,24995,33439,40562,2
0.0,0.0,0.0,13205,10975,24946,33576,40562,2
0.0,0.0,0.0,13205,10987,24848,33303,40389,2
0.0,0.0,0.0,13205,10999,24799,33371,40173,2
0.0,0.0,0.0,13177,11024,24799,33439,40259,2
0.0,0.0,0.0,13122,11060,24824,33508,40346,2
0.0,0.0,0.0,13177,11072,24848,33576,40131,2
0.0,0.0,0.0,13150,11072,24848,33508,40002,2
0.0,0.0,0.0,13177,11109,24799,33508,40002,2
0.0,0.0,0.0,13163,11072,24848,33405,39917,2
0.0,0.0,0.0,13177,11157,24848,33439,39790,2
0.0,0.0,0.0,13150,11206,24848,33371,39663,2
0.0,0.0,0.0,13136,11182,24824,33405,39536,2
0.0,0.0,0.0,13177,11206,24848,33303,39494,2
0.0,0.0,0.0,13177,11206,24873,33371,39369,2
0.0,0.0,0.0,13150,11206,24897,33371,39663,2
0.0,0.0,0.0,13218,11206,24897,33337,39494,2
0.0,0.0,0.0,13191,11219,24897,33439,39494,2
0.0,0.0,0.0,13232,11255,24946,33474,39411,2
0.0,0.0,0.0,13205,11231,24897,33439,39369,2
0.0,0.0,0.0,13205,11255,24873,33439,39411,2
0.0,0.0,0.0,13177,11255,24946,33611,39369,2
0.0,0.0,0.0,13177,11255,24946,33645,39327,2
0.0,0.0,0.0,13177,11280,24897,33611,39244,2
0.0,0.0,0.0,13232,11268,24921,33474,39327,2
0.0,0.0,0.0,13177,11268,24921,33576,39244,2
0.0,0.0,0.0,13177,11231,24897,33474,39119,2
0.0,0.0,0.0,13232,11255,24946,33508,39285,2
0.0,0.0,0.0,13205,11255,24946,33542,39244,2
0.0,0.0,0.0,13150,11268,24946,33611,39244,2
0.0,0.0,0.0,13163,11317,24995,33576,39202,2
0.0,0.0,0.0,13122,11304,25068,33542,39119,2
0.0,0.0,0.0,13122,11366,25241,33748,39036,2
0.0,0.0,0.0,13136,11453,25241,33852,39119,2
0.0,0.0,0.0,13122,11465,25291,33921,39036,2
0.0,0.0,0.0,13136,11453,25341,33991,38953,2
0.0,0.0,0.0,13122,11428,25316,33991,38995,2
0.0,0.0,0.0,13150,11453,25291,33991,38995,2
0.0,0.0,0.0,13177,11453,25291,33852,39077,2
0.0,0.0,0.0,13122,11453,25341,33991,38830,2
0.0,0.0,0.0,13122,11453,25291,33852,38995,2
0.0,0.0,0.0,13163,11453,25316,33887,38953,2
0.0,0.0,0.0,13109,11428,25291,33852,39036,2
0.0,0.0,0.0,13177,11416,25291,33887,38912,2
0.0,0.0,0.0,13136,11379,25216,33783,38912,2
0.0,0.0,0.0,13150,11403,25241,33852,38830,2
0.0,0.0,0.0,13150,11379,25192,33748,38789,2
0.0,0.0,0.0,13136,11379,25192,33714,38707,2
0.0,0.0,0.0,13205,11403,25192,33783,38830,2
0.0,0.0,0.0,13150,11379,25142,33645,38871,2
0.0,0.0,0.0,13205,11403,25192,33576,38830,2
0.0,0.0,0.0,13205,11403,25118,33645,38666,2
0.0,0.0,0.0,13177,11366,25118,33645,38666,2
0.0,0.0,0.0,13177,11366,25142,33817,38871,2
0.0,0.0,0.0,13177,11403,25118,33645,38830,2
0.0,0.0,0.0,13205,11416,25118,33611,38953,2
0.0,0.0,0.0,13150,11416,25118,33542,38707,2
0.0,0.0,0.0,13205,11403,25142,33611,38748,2
0.0,0.0,0.0,13191,11416,25068,33508,38666,2
0.0,0.0,0.0,13177,11403,25118,33576,38666,2
0.0,0.0,0.0,13177,11403,25118,33611,38666,2
0.0,0.0,0.0,13191,11403,25093,33508,38666,2
0.0,0.0,0.0,13232,11403,25093,33645,38666,2
0.0,0.0,0.0,13177,11428,25093,33508,38625,2
0.0,0.0,0.0,13232,11416,25142,33508,38707,2
0.0,0.0,0.0,13232,11465,25118,33508,38666,2
0.0,0.0,0.0,13232,11478,25093,33576,38748,2
0.0,0.0,0.0,13205,11478,25142,33542,38666,2
0.0,0.0,0.0,13232,11503,25118,33576,38666,2
0.0,0.0,0.0,13232,11490,25118,33508,38707,2
0.0,0.0,0.0,13205,11478,25142,33542,38625,2
0.0,0.0,0.0,13232,11478,25118,33576,38625,2
0.0,0.0,0.0,13260,11553,25118,33439,38625,2
0.0,0.0,0.0,13232,11565,25093,33576,38544,2
0.0,0.0,0.0,13246,11590,25142,33508,38544,2
0.0,0.0,0.0,13205,11603,25093,33439,38422,2
0.0,0.0,0.0,13232,11578,25118,33474,38503,2
0.0,0.0,0.0,13232,11578,25093,33303,38503,2
0.0,0.0,0.0,13246,11590,25093,33405,38422,2
0.0,0.0,0.0,13232,11578,25118,33439,38422,2
0.0,0.0,0.0,13232,11578,25068,33303,38341,2
0.0,0.0,0.0,13205,11578,25093,33337,38301,2
0.0,0.0,0.0,13205,11578,25093,33303,38341,2
0.0,0.0,0.0,13232,11603,25093,33337,38260,2
0.0,0.0,0.0,13260,11603,25093,33303,38341,2
0.0,0.0,0.0,13260,11603,25044,33303,38341,2
0.0,0.0,0.0,13287,11678,25044,33202,38341,2
0.0,0.0,0.0,13329,11653,25044,33236,38341,2
0.0,0.0,0.0,13343,11653,25093,33236,38260,2
0.0,0.0,0.0,13287,11653,25044,33303,38341,2
0.0,0.0,0.0,13246,11665,25068,33236,38220,2
0.0,0.0,0.0,13315,11653,25142,33168,38180,2
0.0,0.0,0.0,13287,11665,25093,33236,38260,2
0.0,0.0,0.0,13315,11665,25093,33168,38260,2
0.0,0.0,0.0,13343,11665,25044,33202,38220,2
0.0,0.0,0.0,13343,11716,25019,33236,38260,2
0.0,0.0,0.0,13398,11754,25093,33202,38220,2
0.0,0.0,0.0,13343,11741,25044,33236,38341,2
0.0,0.0,0.0,13315,11728,25044,33202,38059,2
0.0,0.0,0.0,13343,11703,25093,33202,38019,2
0.0,0.0,0.0,13315,11703,25093,33236,38140,2
0.0,0.0,0.0,13329,11716,24995,33202,38019,2
0.0,0.0,0.0,13357,11703,24995,33168,38260,2
0.0,0.0,0.0,13371,11703,25019,33168,38140,2
0.0,0.0,0.0,13343,11716,25019,33168,38100,2
0.0,0.0,0.0,13343,11703,25044,33168,38100,2
0.0,0.0,0.0,13343,11728,25044,33168,37980,2
0.0,0.0,0.0,13329,11703,24995,33100,38019,2
0.0,0.0,0.0,13343,11716,24995,33202,38059,2
0.0,0.0,0.0,13301,11703,24995,33168,38019,2
0.0,0.0,0.0,13329,11703,25019,33168,38019,2
0.0,0.0,0.0,13315,11703,24995,33100,37980,2
0.0,0.0,0.0,13343,11716,24946,33067,37980,2
0.0,0.0,0.0,13343,11703,24995,33100,38019,2
0.0,0.0,0.0,13343,11716,24995,33100,37900,2
0.0,0.0,0.0,13343,11728,24995,33033,38019,2
0.0,0.0,0.0,13343,11703,24995,33067,38019,2
0.0,0.0,0.0,13343,11703,24946,33100,37900,2
0.0,0.0,0.0,13357,11716,24995,33100,37900,2
0.0,0.0,0.0,13343,11703,24946,33033,37980,2
0.0,0.0,0.0,13343,11703,24946,33067,37940,2
0.0,0.0,0.0,13343,11716,24970,33100,37940,2
0.0,0.0,0.0,13371,11703,24995,33100,38019,2
0.0,0.0,0.0,13384,11703,24995,33033,38019,2
0.0,0.0,0.0,13357,11716,24946,33168,38019,2
0.0,0.0,0.0,13357,11716,24995,33067,37900,2
0.0,0.0,0.0,13357,11716,24995,33033,37940,2
0.0,0.0,0.0,13398,11741,24995,33100,38019,2
0.0,0.0,0.0,13398,11716,24946,33067,37940,2
0.0,0.0,0.0,13398,11716,24995,33033,37860,2
0.0,0.0,0.0,13371,11728,24995,33033,37900,2
0.0,0.0,0.0,13357,11703,24921,32966,37940,2
0.0,0.0,0.0,13357,11728,24897,32966,37900,2
0.0,0.0,0.0,13398,11703,24946,33033,38019,2
0.0,0.0,0.0,13384,11716,24946,33067,37860,2
0.0,0.0,0.0,13398,11703,24946,33033,37860,2
0.0,0.0,0.0,13357,11728,24946,33033,37900,2
0.0,0.0,0.0,13371,11728,24946,33033,37860,2
0.0,0.0,0.0,13398,11703,24946,33033,37860,2
0.0,0.0,0.0,13398,11728,24921,33033,37860,2
0.0,0.0,0.0,13371,11728,24995,32999,37900,2
0.0,0.0,0.0,13398,11716,24946,32966,37900,2
0.0,0.0,0.0,13357,11703,24946,33067,37781,2
0.0,0.0,0.0,13384,11716,24946,33202,37860,2
0.0,0.0,0.0,13412,11678,24921,33337,36728,2
0.0,0.0,0.0,13468,11653,24751,32966,34696,2
0.0,0.0,0.0,13454,11578,24606,32435,34553,2
0.0,0.0,0.0,13594,11503,24318,32173,34518,2
0.0,0.0,0.0,13650,11366,23870,31465,34341,2
0.0,0.0,0.0,13594,11109,23477,30962,34200,2
0.0,0.0,0.0,13371,10891,23067,30165,33956,2
0.0,0.0,0.0,13177,10582,22932,29865,33645,2
0.0,0.0,0.0,12891,10418,22843,29509,33033,2
0.0,0.0,0.0,12530,10301,22621,28840,32205,2
0.0,0.0,0.0,12228,10267,22444,28697,31946,2
0.0,0.0,0.0,12124,10255,22379,28640,31529,2
0.0,0.0,0.0,12021,10232,22313,28498,31213,2
0.0,0.0,0.0,11932,10221,22248,28414,31056,2
0.0,0.0,0.0,11932,10221,22248,28301,30962,2
0.0,0.0,0.0,11855,10209,22226,28245,30807,2
0.0,0.0,0.0,11804,10209,22248,28245,30838,2
0.0,0.0,0.0,11779,10209,22313,28189,30838,2
0.0,0.0,0.0,11779,10221,22357,28301,31087,2
0.0,0.0,0.0,11817,10244,22621,28669,32173,2
0.0,0.0,0.0,12112,10301,22776,28869,32832,2
0.0,0.0,0.0,12163,10313,22999,29158,33337,2
0.0,0.0,0.0,12124,10313,23203,29538,33956,2
0.0,0.0,0.0,12163,10313,23385,29568,34731,2
0.0,0.0,0.0,12112,10301,23225,29479,35018,2
0.0,0.0,0.0,12215,10301,23248,29568,35712,2
0.0,0.0,0.0,12398,10325,23316,30377,37701,2
0.0,0.0,0.0,12346,10348,23294,30869,38463,2
0.0,0.0,0.0,12372,10394,23316,31213,38585,2
0.0,0.0,0.0,12372,10371,23431,31402,38748,2
0.0,0.0,0.0,12411,10406,23546,31881,38382,2
0.0,0.0,0.0,12293,10464,23615,32500,38544,2
0.0,0.0,0.0,12346,10499,23684,32866,38666,2
0.0,0.0,0.0,12424,10582,23730,32832,38585,2
0.0,0.0,0.0,12596,10748,24414,33474,38789,2
0.0,0.0,0.0,12649,10783,24462,33748,38748,2
0.0,0.0,0.0,12851,10867,24897,34412,38830,2
0.0,0.0,0.0,12972,11012,25142,35055,38830,2
0.0,0.0,0.0,13150,11072,25192,35272,38666,2
0.0,0.0,0.0,13191,11012,25316,35272,38544,2
0.0,0.0,0.0,13260,11109,25390,35639,37386,2
0.0,0.0,0.0,13260,11084,25390,35455,35898,2
0.0,0.0,0.0,13232,11072,25291,35055,35199,2
0.0,0.0,0.0,13232,11060,25241,34982,34767,2
0.0,0.0,0.0,13246,11024,25266,34767,34553,2
0.0,0.0,0.0,13177,11012,25142,34660,34518,2
0.0,0.0,0.0,13109,10963,25093,34412,34589,2
0.0,0.0,0.0,13068,10927,25044,34271,34482,2
0.0,0.0,0.0,13068,10927,25019,34271,34341,2
0.0,0.0,0.0,13027,10927,24995,34200,34200,2
0.0,0.0,0.0,13013,10987,24995,34200,34165,2
0.0,0.0,0.0,13013,10987,25019,34026,34447,2
0.0,0.0,0.0,12972,10975,24995,33991,34341,2
0.0,0.0,0.0,12918,10939,24946,33887,34200,2
0.0,0.0,0.0,12959,10963,24946,33852,34130,2
0.0,0.0,0.0,12905,10963,24946,33852,34200,2
0.0,0.0,0.0,12918,10963,24946,33783,34165,2
0.0,0.0,0.0,12932,10939,24921,33748,34095,2
0.0,0.0,0.0,12891,10939,24848,33714,34130,2
0.0,0.0,0.0,12891,10915,24848,33714,34130,2
0.0,0.0,0.0,12918,10927,24848,33714,34130,2
0.0,0.0,0.0,12878,10927,24848,33645,34130,2
0.0,0.0,0.0,12864,10927,24799,33714,34095,2
0.0,0.0,0.0,12864,10915,24824,33714,34341,2
0.0,0.0,0.0,12810,10939,24848,33645,34767,2
0.0,0.0,0.0,12797,10927,24873,33576,34731,2
0.0,0.0,0.0,12797,10927,24946,33748,34910,2
0.0,0.0,0.0,12743,10915,24946,33714,34982,2
0.0,0.0,0.0,12743,10927,24946,33714,34982,2
0.0,0.0,0.0,12716,10939,24897,33576,35055,2
0.0,0.0,0.0,12716,10963,24848,33576,34910,2
0.0,0.0,0.0,12716,10939,24873,33645,34982,2
0.0,0.0,0.0,12690,10915,24897,33576,34874,2
0.0,0.0,0.0,12676,10915,24897,33576,34839,2
0.0,0.0,0.0,12649,10915,24897,33576,35055,2
0.0,0.0,0.0,12663,10975,24946,33714,35455,2
0.0,0.0,0.0,12649,11084,25019,33783,36538,2
0.0,0.0,0.0,12636,11133,25142,34060,36920,2
0.0,0.0,0.0,12596,11219,25291,34376,37230,2
0.0,0.0,0.0,12596,11317,25490,34982,37504,2
0.0,0.0,0.0,12636,11403,25742,36160,37741,2
0.0,0.0,0.0,12623,11403,25996,37583,38100,2
0.0,0.0,0.0,12596,11416,26176,38220,38100,2
0.0,0.0,0.0,12636,11478,26409,38625,38463,2
0.0,0.0,0.0,12663,11503,26644,39160,38585,2
0.0,0.0,0.0,12610,11628,27095,40131,38544,2
0.0,0.0,0.0,12636,11893,27283,40736,38748,2
0.0,0.0,0.0,12743,12215,27527,41309,39077,2
0.0,0.0,0.0,12905,12293,27691,41488,39327,2
0.0,0.0,0.0,13068,12490,28022,41622,39327,2
0.0,0.0,0.0,13260,12810,28754,42719,39578,2
0.0,0.0,0.0,13357,12986,29216,43424,40045,2
0.0,0.0,0.0,13412,13068,29568,44000,40131,2
0.0,0.0,0.0,13426,13068,29568,43855,40002,2
0.0,0.0,0.0,13468,13027,29657,43711,39917,2
0.0,0.0,0.0,13524,12918,29627,43615,39832,2
0.0,0.0,0.0,13510,12851,29805,43663,39832,2
0.0,0.0,0.0,13510,12543,29955,43807,39747,2
0.0,0.0,0.0,13538,12424,30165,43903,39494,2
0.0,0.0,0.0,13622,12267,30347,43951,39411,2
0.0,0.0,0.0,13735,12163,30745,44000,39327,2
0.0,0.0,0.0,13764,12034,30838,44096,39160,2
0.0,0.0,0.0,13835,11970,30715,44048,38995,2
0.0,0.0,0.0,13792,11919,30469,43855,38625,2
0.0,0.0,0.0,13679,11804,30165,43567,38422,2
0.0,0.0,0.0,13412,11728,29984,42953,38100,2
0.0,0.0,0.0,13315,11703,29895,42673,37940,2
0.0,0.0,0.0,13232,11678,29984,42488,37622,2
0.0,0.0,0.0,13150,11703,29895,42212,37504,2
0.0,0.0,0.0,13136,11703,29925,42166,37308,2
0.0,0.0,0.0,13081,11678,30015,42075,37308,2
0.0,0.0,0.0,13013,11678,30045,41938,37230,2
0.0,0.0,0.0,12972,11665,30045,41893,37075,2
0.0,0.0,0.0,12972,11665,30105,41757,37036,2
0.0,0.0,0.0,12959,11653,30075,41577,36882,2
0.0,0.0,0.0,12918,11703,30015,41443,36843,2
0.0,0.0,0.0,12959,11678,30045,41309,36843,2
0.0,0.0,0.0,12932,11665,30015,41354,36805,2
0.0,0.0,0.0,12905,11691,29984,41443,36805,2
0.0,0.0,0.0,12905,11691,29984,41265,36767,2
0.0,0.0,0.0,12905,11703,29984,41221,36767,2
0.0,0.0,0.0,12891,11678,30105,41265,36767,2
0.0,0.0,0.0,12878,11678,29925,41132,36690,2
0.0,0.0,0.0,12824,11653,29895,41176,36728,2
0.0,0.0,0.0,12690,11653,30015,41221,36499,2
0.0,0.0,0.0,12716,11615,29805,41132,36499,2
0.0,0.0,0.0,12663,11603,29746,41221,36576,2
0.0,0.0,0.0,12649,11603,29421,41132,36576,2
0.0,0.0,0.0,12530,11603,29274,41176,36462,2
0.0,0.0,0.0,12267,11653,29274,40955,36998,2
0.0,0.0,0.0,12034,11653,29100,41044,37940,2
0.0,0.0,0.0,11881,11716,29100,40955,37583,2
0.0,0.0,0.0,11881,11741,29333,41399,37701,2
0.0,0.0,0.0,11881,11830,29450,41757,37583,2
0.0,0.0,0.0,12060,11881,29509,42304,37543,2
0.0,0.0,0.0,12124,12034,29568,42766,37701,2
0.0,0.0,0.0,12189,12021,29686,43140,38100,2
0.0,0.0,0.0,12320,12267,29865,44585,38830,2
0.0,0.0,0.0,12583,12320,29805,45081,38995,2
0.0,0.0,0.0,12504,12490,30045,45787,39285,2
0.0,0.0,0.0,12438,12743,30591,45992,39077,2
0.0,0.0,0.0,12267,12716,30622,45736,38830,2
0.0,0.0,0.0,11957,12583,30499,45331,38544,2
0.0,0.0,0.0,11881,12477,30499,44881,38422,2
0.0,0.0,0.0,12280,12477,30469,44881,38585,2
0.0,0.0,0.0,12398,12477,30347,44832,38707,2
0.0,0.0,0.0,12451,12530,30286,44634,38830,2
0.0,0.0,0.0,12530,12743,30347,44981,39244,2
0.0,0.0,0.0,12438,12756,30408,45081,39244,2
0.0,0.0,0.0,12346,12743,30408,45281,39452,2
0.0,0.0,0.0,12215,12730,30622,45992,39705,2
0.0,0.0,0.0,12189,12703,30684,46353,39832,2
0.0,0.0,0.0,12228,12716,30838,46718,40045,2
0.0,0.0,0.0,12320,12824,30869,46823,40432,2
0.0,0.0,0.0,12424,12905,30807,46928,40605,2
0.0,0.0,0.0,12490,12932,30869,47087,40955,2
0.0,0.0,0.0,12477,12864,30776,46718,40693,2
0.0,0.0,0.0,12504,12851,30715,46509,40389,2
0.0,0.0,0.0,12280,12583,30499,46043,40131,2
0.0,0.0,0.0,12086,12610,30469,45992,40002,2
0.0,0.0,0.0,11957,12636,30591,45992,40045,2
0.0,0.0,0.0,11957,12649,30469,45992,39832,2
0.0,0.0,0.0,12086,12663,30408,45992,39874,2
0.0,0.0,0.0,12163,12676,30408,45992,40002,2
0.0,0.0,0.0,12060,12743,30469,46146,40389,2
0.0,0.0,0.0,11691,12905,30561,46823,41221,2
0.0,0.0,0.0,11653,12864,30900,47087,41848,2
0.0,0.0,0.0,11830,12986,31656,47193,42673,2
0.0,0.0,0.0,12176,13205,32369,47353,42953,2
0.0,0.0,0.0,12583,13482,32932,47406,42719,2
0.0,0.0,0.0,12959,13863,33134,47299,42534,2
0.0,0.0,0.0,13109,13849,33439,47246,42304,2
0.0,0.0,0.0,13150,13679,33508,47087,42212,2
0.0,0.0,0.0,13095,13454,33405,46666,42166,2
0.0,0.0,0.0,13081,13232,33337,46457,42120,2
0.0,0.0,0.0,13040,13136,33371,46405,42029,2
0.0,0.0,0.0,13013,13122,33405,46249,41938,2
0.0,0.0,0.0,12986,12972,33405,46198,41893,2
0.0,0.0,0.0,12905,12743,33576,45889,41848,2
0.0,0.0,0.0,12770,12477,33611,45584,41622,2
0.0,0.0,0.0,12649,12047,33576,44981,41488,2
0.0,0.0,0.0,12490,11728,33645,44585,41354,2
0.0,0.0,0.0,12398,11528,33714,44193,41044,2
0.0,0.0,0.0,12320,11280,33852,43472,39917,2
0.0,0.0,0.0,12293,11109,33748,42488,37860,2
0.0,0.0,0.0,12280,11012,33474,41848,35018,2
0.0,0.0,0.0,12176,10963,33439,41667,34060,2
0.0,0.0,0.0,12124,10963,33303,41265,33611,2
0.0,0.0,0.0,12099,10975,33168,41399,33611,2
0.0,0.0,0.0,12086,10975,33100,41132,33542,2
0.0,0.0,0.0,12112,10999,32966,40824,33439,2
0.0,0.0,0.0,12228,11012,32932,40868,33852,2
0.0,0.0,0.0,12320,11036,32966,41533,34696,2
0.0,0.0,0.0,12346,11084,32932,41667,34839,2
0.0,0.0,0.0,12398,11206,32899,41577,34624,2
0.0,0.0,0.0,12477,11317,32832,41488,34553,2
0.0,0.0,0.0,12743,11503,32765,41221,34518,2
0.0,0.0,0.0,12932,11578,32765,41354,34412,2
0.0,0.0,0.0,13177,11665,32699,41488,34553,2
0.0,0.0,0.0,13398,11754,32633,41848,34482,2
0.0,0.0,0.0,13707,12124,32699,42166,34553,2
0.0,0.0,0.0,13863,12189,32666,41984,34553,2
0.0,0.0,0.0,13806,12176,32566,41938,34553,2
0.0,0.0,0.0,13693,12176,32402,41757,34482,2
0.0,0.0,0.0,13764,12254,32435,41848,34447,2
0.0,0.0,0.0,14137,12398,32966,41577,34624,2
0.0,0.0,0.0,14503,12583,33303,41488,35018,2
0.0,0.0,0.0,14488,12649,33371,41488,35163,2
0.0,0.0,0.0,14311,12743,33337,41399,35382,2
0.0,0.0,0.0,14268,12756,33202,41443,35565,2
0.0,0.0,0.0,14282,12810,33033,41399,35455,2
0.0,0.0,0.0,14370,12918,32966,41265,36122,2
0.0,0.0,0.0,14370,12959,32832,41221,36160,2
0.0,0.0,0.0,14488,13095,32832,41443,37152,2
0.0,0.0,0.0,14636,13260,32765,41757,38995,2
0.0,0.0,0.0,14741,13371,32599,42304,40519,2
0.0,0.0,0.0,14786,13426,32899,42534,42029,2
0.0,0.0,0.0,14771,13426,32899,43000,42442,2
0.0,0.0,0.0,14726,13468,32832,43140,42673,2
0.0,0.0,0.0,14756,13482,32799,43329,42534,2
0.0,0.0,0.0,14741,13426,32765,43424,42859,2
0.0,0.0,0.0,14726,13440,32765,43424,43000,2
0.0,0.0,0.0,14801,13510,32765,43903,43615,2
0.0,0.0,0.0,14801,13735,32899,44782,44585,2
0.0,0.0,0.0,14922,14007,33303,46666,45483,2
0.0,0.0,0.0,15058,14370,33576,48603,46353,2
0.0,0.0,0.0,15089,14607,33645,49217,46509,2
0.0,0.0,0.0,15135,14907,33611,49670,46666,2
0.0,0.0,0.0,15350,15335,33714,49956,47246,2
0.0,0.0,0.0,15678,15521,33714,49613,47891,2
0.0,0.0,0.0,15663,15150,33576,49330,47299,2
0.0,0.0,0.0,15366,14414,33508,48992,46457,2
0.0,0.0,0.0,15381,13821,33474,48327,45635,2
0.0,0.0,0.0,15428,13371,33337,47729,44389,2
0.0,0.0,0.0,15443,12918,33168,47353,43046,2
0.0,0.0,0.0,15273,12438,32932,46823,42212,2
0.0,0.0,0.0,14876,11855,32666,46301,41399,2
0.0,0.0,0.0,14711,11578,32633,45787,41221,2
0.0,0.0,0.0,14488,11255,32533,45533,41132,2
0.0,0.0,0.0,14326,10987,32633,44981,40955,2
0.0,0.0,0.0,13992,10759,32765,44634,40824,2
0.0,0.0,0.0,13735,10641,32765,44145,40912,2
0.0,0.0,0.0,13454,10594,32765,44145,40912,2
0.0,0.0,0.0,13287,10594,32566,44096,40605,2
0.0,0.0,0.0,13315,10605,32500,43855,40389,2
0.0,0.0,0.0,13260,10605,32435,43807,40259,2
0.0,0.0,0.0,13260,10676,32369,43855,40259,2
0.0,0.0,0.0,13260,10676,32336,43855,40216,2
0.0,0.0,0.0,13232,10724,32303,43807,40173,2
0.0,0.0,0.0,13287,10748,32402,43759,40173,2
0.0,0.0,0.0,13260,10771,32369,43855,40173,2
0.0,0.0,0.0,13287,10819,32402,43807,40131,2
0.0,0.0,0.0,13260,10867,32402,43855,39917,2
0.0,0.0,0.0,13260,10915,32566,43807,39832,2
0.0,0.0,0.0,13232,10939,32566,44048,39917,2
0.0,0.0,0.0,13246,10963,32566,43759,39832,2
0.0,0.0,0.0,13287,10987,32633,43903,39832,2
0.0,0.0,0.0,13246,11036,32633,43903,39705,2
0.0,0.0,0.0,13329,11036,32666,43951,39663,2
0.0,0.0,0.0,13274,11060,32566,43903,39578,2
0.0,0.0,0.0,13246,11072,32633,43903,39578,2
0.0,0.0,0.0,13246,11084,32633,43903,39663,2
0.0,0.0,0.0,13260,11170,32666,43711,39663,2
0.0,0.0,0.0,13260,11182,32765,43711,39663,2
0.0,0.0,0.0,13260,11182,32765,43807,39536,2
0.0,0.0,0.0,13287,11182,32699,43807,39411,2
0.0,0.0,0.0,13301,11194,32699,43807,39452,2
0.0,0.0,0.0,13301,11182,32699,43855,39244,2
0.0,0.0,0.0,13315,11157,32765,43807,39244,2
0.0,0.0,0.0,13315,11170,32765,43807,39285,2
0.0,0.0,0.0,13315,11206,32666,43855,39285,2
0.0,0.0,0.0,13343,11206,32633,43807,39119,2
0.0,0.0,0.0,13357,11255,32633,43807,39244,2
0.0,0.0,0.0,13384,11268,32633,43615,39244,2
0.0,0.0,0.0,13343,11268,32633,43615,39160,2
0.0,0.0,0.0,13398,11280,32633,43615,39244,2
0.0,0.0,0.0,13357,11354,32633,43615,39077,2
0.0,0.0,0.0,13343,11366,32633,43663,39036,2
0.0,0.0,0.0,13371,11379,32666,43663,39160,2
0.0,0.0,0.0,13343,11354,32599,43807,39077,2
0.0,0.0,0.0,13398,11317,32566,43567,39036,2
0.0,0.0,0.0,13398,11304,32599,43424,38585,2
0.0,0.0,0.0,13398,11231,32666,42766,37075,2
0.0,0.0,0.0,13371,11084,32666,42120,36920,2
0.0,0.0,0.0,13357,10879,32832,41443,36538,2
0.0,0.0,0.0,13412,10748,32566,40605,36235,2
0.0,0.0,0.0,13287,10582,32369,40173,36197,2
0.0,0.0,0.0,13177,10535,32108,39790,36085,2
0.0,0.0,0.0,13068,10441,31913,39663,36310,2
0.0,0.0,0.0,13027,10371,31656,39160,36310,2
0.0,0.0,0.0,13013,10301,31434,39036,36499,2
0.0,0.0,0.0,12999,10267,31213,38748,36538,2
0.0,0.0,0.0,12959,10255,30994,38544,36690,2
0.0,0.0,0.0,12878,10267,31025,38463,36690,2
0.0,0.0,0.0,12851,10301,30962,38422,36690,2
0.0,0.0,0.0,12851,10301,30962,38382,36690,2
0.0,0.0,0.0,12797,10301,30869,38422,36690,2
0.0,0.0,0.0,12797,10301,30962,38422,36538,2
0.0,0.0,0.0,12770,10301,30994,38382,36614,2
0.0,0.0,0.0,12716,10313,30994,38422,36538,2
0.0,0.0,0.0,12716,10313,30900,38422,36538,2
0.0,0.0,0.0,12716,10325,30962,38503,36538,2
0.0,0.0,0.0,12703,10325,30869,38341,36614,2
0.0,0.0,0.0,12690,10371,30900,38422,36538,2
0.0,0.0,0.0,12690,10394,30994,38422,36614,2
0.0,0.0,0.0,12690,10418,30900,38260,36499,2
0.0,0.0,0.0,12703,10418,31025,38341,36538,2
0.0,0.0,0.0,12649,10453,31181,38585,36499,2
0.0,0.0,0.0,12636,10453,31339,38666,36462,2
0.0,0.0,0.0,12649,10453,31339,38544,36499,2
0.0,0.0,0.0,12636,10453,31276,38503,36386,2
0.0,0.0,0.0,12690,10441,31307,38422,36499,2
0.0,0.0,0.0,12649,10453,31497,38503,36424,2
0.0,0.0,0.0,12649,10488,31593,38585,36310,2
0.0,0.0,0.0,12649,10499,31561,38544,36386,2
0.0,0.0,0.0,12649,10535,31529,38503,36348,2
0.0,0.0,0.0,12690,10546,31529,38544,36197,2
0.0,0.0,0.0,12596,10535,31624,38503,36010,2
0.0,0.0,0.0,12583,10629,31849,38463,36085,2
0.0,0.0,0.0,12556,10748,32043,38503,35861,2
0.0,0.0,0.0,12556,10783,32108,38585,35935,2
0.0,0.0,0.0,12543,10795,32173,38666,35861,2
0.0,0.0,0.0,12490,10819,32271,38707,35676,2
0.0,0.0,0.0,12504,10819,32271,38748,35712,2
0.0,0.0,0.0,12490,10795,32402,39160,35492,2
0.0,0.0,0.0,12464,10748,32402,39160,35418,2
0.0,0.0,0.0,12477,10748,32303,39244,35418,2
0.0,0.0,0.0,12424,10700,32303,39160,35418,2
0.0,0.0,0.0,12424,10700,32238,38995,35382,2
0.0,0.0,0.0,12424,10676,32238,39077,35309,2
0.0,0.0,0.0,12424,10688,32173,38995,35272,2
0.0,0.0,0.0,12398,10676,32238,38995,35382,2
0.0,0.0,0.0,12398,10676,32238,39077,35163,2
0.0,0.0,0.0,12372,10700,32336,39160,35163,2
0.0,0.0,0.0,12385,10700,32238,39244,35272,2
0.0,0.0,0.0,12477,10676,32238,39119,35272,2
0.0,0.0,0.0,12424,10676,32238,39119,35127,2
0.0,0.0,0.0,12424,10676,32238,38995,35127,2
0.0,0.0,0.0,12411,10676,32271,39077,35199,2
0.0,0.0,0.0,12438,10688,32238,39077,35199,2
0.0,0.0,0.0,12424,10700,32238,39077,35091,2
0.0,0.0,0.0,12424,10724,32271,38995,35091,2
0.0,0.0,0.0,12424,10724,32238,39036,35055,2
0.0,0.0,0.0,12451,10700,32271,38995,35127,2
0.0,0.0,0.0,12438,10724,32238,38871,35091,2
0.0,0.0,0.0,12424,10748,32303,38995,35236,2
0.0,0.0,0.0,12438,10748,32303,39160,35127,2
0.0,0.0,0.0,12477,10771,32303,39077,35127,2
0.0,0.0,0.0,12424,10783,32303,38995,35163,2
0.0,0.0,0.0,12451,10771,32271,38995,35163,2
0.0,0.0,0.0,12477,10783,32271,38830,35199,2
0.0,0.0,0.0,12477,10795,32238,38995,35163,2
0.0,0.0,0.0,12438,10819,32238,38995,35127,2
0.0,0.0,0.0,12477,10819,32238,38995,35127,2
0.0,0.0,0.0,12451,10819,32238,38995,34982,2
0.0,0.0,0.0,12438,10819,32238,38871,35018,2
0.0,0.0,0.0,12438,10819,32173,38871,35055,2
0.0,0.0,0.0,12424,10783,32108,38871,35055,2
0.0,0.0,0.0,12424,10795,32043,38830,34982,2
0.0,0.0,0.0,12424,10795,32108,38871,35055,2
0.0,0.0,0.0,12398,10819,32140,38912,35127,2
0.0,0.0,0.0,12346,10771,32075,38789,35418,2
0.0,0.0,0.0,12346,10724,32108,38830,35272,2
0.0,0.0,0.0,12398,10653,32108,38789,35418,2
0.0,0.0,0.0,12424,10629,32108,38830,35309,2
0.0,0.0,0.0,12583,10546,32238,38625,35418,2
0.0,0.0,0.0,12636,10499,32108,38748,35749,2
0.0,0.0,0.0,12530,10488,31593,38585,36462,2
0.0,0.0,0.0,12398,10488,31465,38707,36690,2
0.0,0.0,0.0,12215,10535,31402,38666,36690,2
0.0,0.0,0.0,12163,10535,31339,38585,36690,2
0.0,0.0,0.0,12034,10546,31213,38585,36386,2
0.0,0.0,0.0,12034,10546,31150,38585,35972,2
0.0,0.0,0.0,11932,10582,31150,38180,35639,2
0.0,0.0,0.0,11970,10582,30962,38019,35639,2
0.0,0.0,0.0,11983,10629,30869,37741,35676,2
0.0,0.0,0.0,12086,10605,30838,37583,35639,2
0.0,0.0,0.0,12241,10724,30561,37465,35639,2
0.0,0.0,0.0,12398,10843,30469,37465,35492,2
0.0,0.0,0.0,12477,10891,30438,37269,35455,2
0.0,0.0,0.0,12636,10915,30317,37308,35528,2
0.0,0.0,0.0,12690,10927,30226,37152,35418,2
0.0,0.0,0.0,12932,10963,30165,37152,35345,2
0.0,0.0,0.0,13013,10987,30045,36959,35236,2
0.0,0.0,0.0,13136,11012,29984,36920,35127,2
0.0,0.0,0.0,13205,11012,29895,36920,35199,2
0.0,0.0,0.0,13205,11048,29805,36920,35127,2
0.0,0.0,0.0,13260,11072,29805,36882,35272,2
0.0,0.0,0.0,13177,11109,29775,36882,35127,2
0.0,0.0,0.0,13191,11109,29686,36843,35199,2
0.0,0.0,0.0,13232,11121,29746,36843,35163,2
0.0,0.0,0.0,13260,11157,29775,36920,35199,2
0.0,0.0,0.0,13287,11170,29686,36882,35272,2
0.0,0.0,0.0,13287,11206,29627,36767,35163,2
0.0,0.0,0.0,13301,11206,29657,36767,35127,2
0.0,0.0,0.0,13343,11206,29538,36690,34982,2
0.0,0.0,0.0,13454,11206,29479,36462,34767,2
0.0,0.0,0.0,13566,11206,29509,36614,34696,2
0.0,0.0,0.0,13594,11206,29509,36538,34624,2
0.0,0.0,0.0,13580,11206,29450,36424,34731,2
0.0,0.0,0.0,13594,11255,29450,36462,34624,2
0.0,0.0,0.0,13594,11255,29450,36348,34696,2
0.0,0.0,0.0,13594,11280,29450,36499,34589,2
0.0,0.0,0.0,13608,11354,29509,36538,34553,2
0.0,0.0,0.0,13594,11354,29421,36462,34482,2
0.0,0.0,0.0,13594,11329,29304,36386,34696,2
0.0,0.0,0.0,13636,11354,29333,36462,34482,2
0.0,0.0,0.0,13622,11354,29333,36348,34412,2
0.0,0.0,0.0,13735,11366,29362,36310,34482,2
0.0,0.0,0.0,13921,11354,29333,36348,34482,2
0.0,0.0,0.0,14224,11341,29216,36197,34518,2
0.0,0.0,0.0,14370,11379,29158,36310,34271,2
0.0,0.0,0.0,14666,11391,29129,36010,34200,2
0.0,0.0,0.0,14771,11416,29071,36010,34026,2
0.0,0.0,0.0,14666,11465,29042,36085,33956,2
0.0,0.0,0.0,14488,11578,29509,36538,33991,2
0.0,0.0,0.0,14253,11703,29775,36690,34026,2
0.0,0.0,0.0,14108,11703,29835,36805,33991,2
0.0,0.0,0.0,13935,11804,29746,36843,34130,2
0.0,0.0,0.0,13806,12009,29746,37230,34271,2
0.0,0.0,0.0,13749,12293,29805,37504,34376,2
0.0,0.0,0.0,13679,12451,29627,37662,34553,2
0.0,0.0,0.0,13580,12530,29627,37701,34447,2
0.0,0.0,0.0,13510,12636,29509,37900,34803,2
0.0,0.0,0.0,13580,12636,29509,37940,34946,2
0.0,0.0,0.0,13496,12636,29450,38019,34839,2
0.0,0.0,0.0,13315,12477,29274,38100,34982,2
0.0,0.0,0.0,13122,12320,29216,38422,34946,2
0.0,0.0,0.0,13177,12320,29100,38748,35418,2
0.0,0.0,0.0,13232,12477,29391,39494,35935,2
0.0,0.0,0.0,13191,12743,29391,39747,36047,2
0.0,0.0,0.0,13054,13122,29568,39874,36010,2
0.0,0.0,0.0,12851,13205,29657,39747,36047,2
0.0,0.0,0.0,12864,13136,29775,39536,35898,2
0.0,0.0,0.0,13274,13081,29865,39244,35602,2
0.0,0.0,0.0,13384,13232,29775,39244,35565,2
0.0,0.0,0.0,13412,13426,29865,39244,35492,2
0.0,0.0,0.0,13440,13454,29865,39244,35602,2
0.0,0.0,0.0,13412,13524,29805,39705,35676,2
0.0,0.0,0.0,13398,13510,29835,39874,35824,2
0.0,0.0,0.0,13398,13566,29925,40173,35787,2
0.0,0.0,0.0,13357,13679,30165,40693,35972,2
0.0,0.0,0.0,13315,13707,30105,40693,36047,2
0.0,0.0,0.0,13315,13806,30226,41044,36690,2
0.0,0.0,0.0,13315,13735,30165,40955,37036,2
0.0,0.0,0.0,13315,13665,30226,40955,37152,2
0.0,0.0,0.0,13287,13622,30317,40912,37152,2
0.0,0.0,0.0,13329,13679,30165,41221,37191,2
0.0,0.0,0.0,13357,13707,30226,41088,37504,2
0.0,0.0,0.0,13343,13792,30286,41221,37426,2
0.0,0.0,0.0,13398,13849,30377,41132,37543,2
0.0,0.0,0.0,13398,13849,30226,41488,37860,2
0.0,0.0,0.0,13482,13978,30226,41667,37820,2
0.0,0.0,0.0,13510,14007,30317,41712,37781,2
0.0,0.0,0.0,13524,13906,30745,41757,38019,2
0.0,0.0,0.0,13482,13482,30994,41622,37940,2
0.0,0.0,0.0,13343,13205,31150,41488,37980,2
0.0,0.0,0.0,13287,13122,30962,41132,37940,2
0.0,0.0,0.0,13232,12730,30715,40475,37820,2
0.0,0.0,0.0,13068,12060,30286,39832,37701,2
0.0,0.0,0.0,12932,11665,29538,39244,37622,2
0.0,0.0,0.0,12878,11453,29071,38544,37386,2
0.0,0.0,0.0,12743,11268,28812,38220,37230,2
0.0,0.0,0.0,12636,11048,28527,37940,37230,2
0.0,0.0,0.0,12530,10771,28414,37701,37075,2
0.0,0.0,0.0,12398,10535,28301,37543,36920,2
0.0,0.0,0.0,12346,10453,28301,37308,36843,2
0.0,0.0,0.0,12228,10336,28245,37152,36805,2
0.0,0.0,0.0,12099,10255,28385,37230,36690,2
0.0,0.0,0.0,12073,10209,28527,37230,36767,2
0.0,0.0,0.0,12009,10163,28470,37230,36614,2
0.0,0.0,0.0,11983,10140,28414,37191,36499,2
0.0,0.0,0.0,12021,10163,28357,37152,36538,2
0.0,0.0,0.0,11957,10094,28245,37075,36499,2
0.0,0.0,0.0,11957,10129,28189,37075,36614,2
0.0,0.0,0.0,11906,10163,28049,37075,36499,2
0.0,0.0,0.0,11881,10140,27994,36959,36576,2
0.0,0.0,0.0,11881,10129,27911,37036,36614,2
0.0,0.0,0.0,11868,10163,27911,37230,36576,2
0.0,0.0,0.0,11855,10186,28022,37386,36576,2
0.0,0.0,0.0,11817,10232,27939,37308,36538,2
0.0,0.0,0.0,11830,10301,27939,37269,36235,2
0.0,0.0,0.0,11855,10348,27800,36998,36085,2
0.0,0.0,0.0,11957,10394,27581,36843,35935,2
0.0,0.0,0.0,12009,10629,27527,36843,36197,2
0.0,0.0,0.0,12034,10748,27391,36690,36122,2
0.0,0.0,0.0,12099,11024,27337,36690,36235,2
0.0,0.0,0.0,12124,11280,27310,36690,36197,2
0.0,0.0,0.0,12124,11255,27202,36690,36047,2
0.0,0.0,0.0,12060,11121,27095,36690,36085,2
0.0,0.0,0.0,12034,11012,27041,36538,36010,2
0.0,0.0,0.0,12060,10987,27095,36499,35898,2
0.0,0.0,0.0,12021,11012,27041,36462,35861,2
0.0,0.0,0.0,12009,11219,27202,36424,35898,2
0.0,0.0,0.0,11983,11528,27581,36462,35787,2
0.0,0.0,0.0,11957,11503,28049,36462,35861,2
0.0,0.0,0.0,11932,11341,28498,36614,35712,2
0.0,0.0,0.0,11932,11194,28697,36805,35712,2
0.0,0.0,0.0,11906,11060,29100,36920,35602,2
0.0,0.0,0.0,11906,10879,29865,36843,35272,2
0.0,0.0,0.0,11881,10748,29984,36767,34874,2
0.0,0.0,0.0,11868,10641,30226,36959,34874,2
0.0,0.0,0.0,11881,10605,30438,37075,34982,2
0.0,0.0,0.0,11868,10582,30408,37230,34839,2
0.0,0.0,0.0,11868,10582,30408,37308,34839,2
0.0,0.0,0.0,11906,10546,30286,37386,34982,2
0.0,0.0,0.0,11881,10535,30347,37386,34839,2
0.0,0.0,0.0,11906,10488,29984,37075,34839,2
0.0,0.0,0.0,11957,10406,29245,36348,34696,2
0.0,0.0,0.0,12060,10394,28555,35455,34624,2
0.0,0.0,0.0,12215,10255,27800,34696,34660,2
0.0,0.0,0.0,12267,10163,27418,34412,34696,2
0.0,0.0,0.0,12293,10129,27391,34165,34660,2
0.0,0.0,0.0,12254,10117,27256,33956,34412,2
0.0,0.0,0.0,12189,10117,27095,33852,34376,2
0.0,0.0,0.0,12163,10106,27095,33817,34482,2
0.0,0.0,0.0,12112,10094,27041,33748,34341,2
0.0,0.0,0.0,12099,10117,26961,33645,34412,2
0.0,0.0,0.0,12034,10106,26961,33611,34341,2
0.0,0.0,0.0,11983,10163,26935,33714,34341,2
0.0,0.0,0.0,11932,10117,27068,33783,34447,2
0.0,0.0,0.0,11855,10209,27609,33921,34271,2
0.0,0.0,0.0,11804,10301,27773,34026,34130,2
0.0,0.0,0.0,11804,10441,28301,34412,34060,2
0.0,0.0,0.0,11804,10453,28498,34553,34026,2
0.0,0.0,0.0,11766,10441,28783,34982,33817,2
0.0,0.0,0.0,11716,10453,29042,35639,33783,2
0.0,0.0,0.0,11703,10441,29100,36010,33852,2
0.0,0.0,0.0,11716,10441,29042,36197,33956,2
0.0,0.0,0.0,11716,10441,28955,36047,33956,2
0.0,0.0,0.0,11703,10453,29042,36122,33956,2
0.0,0.0,0.0,11716,10511,29158,36235,33852,2
0.0,0.0,0.0,11703,10558,29187,36462,33887,2
0.0,0.0,0.0,11728,10511,29100,36386,34026,2
0.0,0.0,0.0,11703,10499,29071,36348,33991,2
0.0,0.0,0.0,11716,10488,28955,36386,33956,2
0.0,0.0,0.0,11716,10464,29042,36160,33921,2
0.0,0.0,0.0,11716,10464,28898,36160,33887,2
0.0,0.0,0.0,11716,10441,28640,35712,33783,2
0.0,0.0,0.0,11728,10394,28189,35127,33474,2
0.0,0.0,0.0,11792,10359,28133,33748,31339,2
0.0,0.0,0.0,11830,10348,28245,32599,29984,2
0.0,0.0,0.0,11855,10313,28498,32271,29657,2
0.0,0.0,0.0,11830,10325,28301,31656,29158,2
0.0,0.0,0.0,11855,10359,28161,31593,29304,2
0.0,0.0,0.0,11881,10418,28583,33033,29538,2
0.0,0.0,0.0,11983,10488,28640,33371,29984,2
0.0,0.0,0.0,12228,10476,28470,33337,30256,2
0.0,0.0,0.0,12424,10499,28189,33067,30226,2
0.0,0.0,0.0,12570,10535,28357,33033,30226,2
0.0,0.0,0.0,12878,10605,28555,33100,30317,2
0.0,0.0,0.0,13122,10641,28470,32966,30347,2
0.0,0.0,0.0,13371,10676,28301,32566,30226,2
0.0,0.0,0.0,13552,10676,28022,32533,30226,2
0.0,0.0,0.0,13650,10700,27800,32435,30165,2
0.0,0.0,0.0,13707,10724,27745,32402,30045,2
0.0,0.0,0.0,13749,10771,27581,32336,30075,2
0.0,0.0,0.0,13835,10807,27636,32303,30075,2
0.0,0.0,0.0,13921,10879,27609,32205,30045,2
0.0,0.0,0.0,13964,10999,27310,32108,30165,2
0.0,0.0,0.0,13964,11024,27041,31913,30165,2
0.0,0.0,0.0,13992,11060,26935,32075,30317,2
0.0,0.0,0.0,14108,11109,26723,31785,30347,2
0.0,0.0,0.0,14108,11157,26670,31849,30499,2
0.0,0.0,0.0,14195,11182,26749,31849,30347,2
0.0,0.0,0.0,14108,11170,26829,31978,30469,2
0.0,0.0,0.0,14064,11219,26855,32010,30377,2
0.0,0.0,0.0,14021,11255,26882,31913,30347,2
0.0,0.0,0.0,14036,11304,26935,31849,30347,2
0.0,0.0,0.0,14021,11354,26882,31978,30377,2
0.0,0.0,0.0,14021,11403,26855,31881,30256,2
0.0,0.0,0.0,13992,11416,26829,31849,30286,2
0.0,0.0,0.0,13978,11453,26882,31881,30347,2
0.0,0.0,0.0,13978,11503,26829,31849,30347,2
0.0,0.0,0.0,13978,11528,26829,31913,30347,2
0.0,0.0,0.0,13964,11528,26829,31849,30286,2
0.0,0.0,0.0,13949,11565,26829,31817,30226,2
0.0,0.0,0.0,13964,11603,26829,31881,30286,2
0.0,0.0,0.0,13964,11578,26776,31913,30256,2
0.0,0.0,0.0,13964,11503,26644,31785,30195,2
0.0,0.0,0.0,14108,11403,26644,31785,30226,2
0.0,0.0,0.0,14224,11354,26566,31720,30226,2
0.0,0.0,0.0,14282,11292,26487,31624,30256,2
0.0,0.0,0.0,14253,11304,26487,31656,30165,2
0.0,0.0,0.0,14195,11280,26461,31688,30286,2
0.0,0.0,0.0,14195,11304,26513,31656,30226,2
0.0,0.0,0.0,14209,11268,26435,31656,30286,2
0.0,0.0,0.0,14195,11317,26461,31624,30195,2
0.0,0.0,0.0,14195,11329,26461,31624,30226,2
0.0,0.0,0.0,14137,11317,26461,31593,30226,2
