GyroX,GyroY,GyroZ,Thumb,Index,Middle,Ring,Pinky,Gesture
0.0,0.0,0.0,12583,11157,10418,46770,29568,3
0.0,0.0,0.0,12583,11157,10418,46613,29627,3
0.0,0.0,0.0,12583,11157,10418,46561,29568,3
0.0,0.0,0.0,12596,11157,10418,46666,29509,3
0.0,0.0,0.0,12583,11157,10418,46666,29333,3
0.0,0.0,0.0,12583,11157,10418,46457,29538,3
0.0,0.0,0.0,12583,11157,10406,46509,29421,3
0.0,0.0,0.0,12543,11157,10406,46509,29304,3
0.0,0.0,0.0,12610,11157,10418,46561,29274,3
0.0,0.0,0.0,12583,11157,10418,46353,29333,3
0.0,0.0,0.0,12583,11157,10418,46405,29304,3
0.0,0.0,0.0,12583,11133,10406,46405,29391,3
0.0,0.0,0.0,12583,11170,10418,46405,29304,3
0.0,0.0,0.0,12583,11157,10441,46405,29304,3
0.0,0.0,0.0,12596,11170,10406,46405,29333,3
0.0,0.0,0.0,12583,11157,10441,46405,29362,3
0.0,0.0,0.0,12596,11157,10429,46353,29333,3
0.0,0.0,0.0,12596,11157,10441,46301,29304,3
0.0,0.0,0.0,12583,11133,10441,46301,29274,3
0.0,0.0,0.0,12583,11157,10441,46249,29362,3
0.0,0.0,0.0,12596,11170,10418,46301,29274,3
0.0,0.0,0.0,12596,11157,10429,46405,29245,3
0.0,0.0,0.0,12583,11182,10441,46249,29216,3
0.0,0.0,0.0,12583,11170,10441,46405,29158,3
0.0,0.0,0.0,12583,11170,10464,46249,29100,3
0.0,0.0,0.0,12610,11157,10429,46353,29100,3
0.0,0.0,0.0,12583,11170,10429,46249,29158,3
0.0,0.0,0.0,12583,11182,10418,46249,29100,3
0.0,0.0,0.0,12596,11206,10453,46095,29158,3
0.0,0.0,0.0,12583,11182,10418,46198,29100,3
0.0,0.0,0.0,12556,11206,10441,46249,29100,3
0.0,0.0,0.0,12556,11170,10441,46146,29100,3
0.0,0.0,0.0,12570,11219,10429,46095,29042,3
0.0,0.0,0.0,12583,11219,10453,46198,29042,3
0.0,0.0,0.0,12583,11255,10453,46043,29158,3
0.0,0.0,0.0,12583,11255,10441,46249,29042,3
0.0,0.0,0.0,12583,11255,10464,46095,29071,3
0.0,0.0,0.0,12583,11255,10441,46198,29100,3
0.0,0.0,0.0,12610,11255,10441,46043,29100,3
0.0,0.0,0.0,12570,11280,10453,45992,29042,3
0.0,0.0,0.0,12596,11243,10453,45992,28984,3
0.0,0.0,0.0,12530,11219,10441,45889,28927,3
0.0,0.0,0.0,12583,11255,10453,45889,28927,3
0.0,0.0,0.0,12583,11255,10464,45992,28927,3
0.0,0.0,0.0,12583,11255,10464,45992,28898,3
0.0,0.0,0.0,12583,11255,10453,45992,28898,3
0.0,0.0,0.0,12583,11255,10453,45889,28812,3
0.0,0.0,0.0,12570,11255,10464,45992,28812,3
0.0,0.0,0.0,12583,11219,10453,45992,28812,3
0.0,0.0,0.0,12583,11231,10453,45787,28840,3
0.0,0.0,0.0,12543,11231,10464,45992,28812,3
0.0,0.0,0.0,12596,11255,10464,45787,28812,3
0.0,0.0,0.0,12583,11255,10441,45787,28754,3
0.0,0.0,0.0,12583,11255,10453,45941,28726,3
0.0,0.0,0.0,12583,11304,10488,45685,28726,3
0.0,0.0,0.0,12583,11304,10476,45787,28612,3
0.0,0.0,0.0,12556,11304,10488,45787,28612,3
0.0,0.0,0.0,12583,11255,10488,45736,28640,3
0.0,0.0,0.0,12583,11304,10488,45787,28640,3
0.0,0.0,0.0,12583,11304,10488,45736,28612,3
0.0,0.0,0.0,12583,11304,10488,45685,28583,3
0.0,0.0,0.0,12570,11329,10488,45685,28612,3
0.0,0.0,0.0,12583,11304,10464,45685,28583,3
0.0,0.0,0.0,12543,11304,10488,45787,28583,3
0.0,0.0,0.0,12583,11304,10488,45635,28498,3
0.0,0.0,0.0,12583,11255,10488,45787,28583,3
0.0,0.0,0.0,12583,11304,10488,45787,28527,3
0.0,0.0,0.0,12583,11329,10488,45584,28527,3
0.0,0.0,0.0,12583,11317,10488,45635,28583,3
0.0,0.0,0.0,12570,11354,10488,45635,28442,3
0.0,0.0,0.0,12596,11354,10499,45635,28470,3
0.0,0.0,0.0,12610,11354,10499,45685,28470,3
0.0,0.0,0.0,12610,11354,10476,45382,28470,3
0.0,0.0,0.0,12583,11354,10488,45584,28442,3
0.0,0.0,0.0,12583,11366,10488,45584,28414,3
0.0,0.0,0.0,12596,11341,10488,45483,28470,3
0.0,0.0,0.0,12583,11354,10488,45483,28414,3
0.0,0.0,0.0,12596,11354,10488,45584,28470,3
0.0,0.0,0.0,12583,11354,10488,45584,28470,3
0.0,0.0,0.0,12583,11354,10499,45382,28385,3
0.0,0.0,0.0,12610,11317,10488,45432,28442,3
0.0,0.0,0.0,12583,11354,10476,45483,28414,3
0.0,0.0,0.0,12596,11366,10476,45483,28385,3
0.0,0.0,0.0,12596,11354,10453,45584,28385,3
0.0,0.0,0.0,12583,11403,10488,45432,28357,3
0.0,0.0,0.0,12583,11366,10488,45483,28442,3
0.0,0.0,0.0,12610,11366,10488,45483,28301,3
0.0,0.0,0.0,12610,11379,10488,45533,28357,3
0.0,0.0,0.0,12596,11379,10488,45382,28357,3
0.0,0.0,0.0,12583,11379,10511,45382,28357,3
0.0,0.0,0.0,12596,11453,10488,45432,28357,3
0.0,0.0,0.0,12583,11416,10464,45331,28357,3
0.0,0.0,0.0,12583,11453,10488,45331,28385,3
0.0,0.0,0.0,12583,11428,10488,45382,28385,3
0.0,0.0,0.0,12610,11428,10499,45432,28357,3
0.0,0.0,0.0,12583,11453,10488,45281,28329,3
0.0,0.0,0.0,12610,11440,10488,45281,28301,3
0.0,0.0,0.0,12583,11453,10488,45281,28357,3
0.0,0.0,0.0,12583,11416,10488,45331,28385,3
0.0,0.0,0.0,12583,11403,10488,45281,28357,3
0.0,0.0,0.0,12583,11416,10488,45281,28357,3
0.0,0.0,0.0,12596,11440,10488,45181,28385,3
0.0,0.0,0.0,12636,11416,10488,45382,28414,3
0.0,0.0,0.0,12636,11453,10499,45331,28697,3
0.0,0.0,0.0,12663,11403,10488,45081,28357,3
0.0,0.0,0.0,12690,11440,10488,44683,28217,3
0.0,0.0,0.0,12743,11653,10688,44683,28189,3
0.0,0.0,0.0,12797,11665,10771,44389,28357,3
0.0,0.0,0.0,12851,11628,10771,44193,28301,3
0.0,0.0,0.0,12851,11615,10748,43855,28245,3
0.0,0.0,0.0,12972,11728,11182,43903,28189,3
0.0,0.0,0.0,12972,11716,11565,43567,28245,3
0.0,0.0,0.0,13122,11653,11182,43235,28077,3
0.0,0.0,0.0,13177,11665,11084,43046,27636,3
0.0,0.0,0.0,13412,11653,11096,42580,27015,3
0.0,0.0,0.0,13594,11653,11060,42488,26855,3
0.0,0.0,0.0,13849,11703,11012,42349,26357,3
0.0,0.0,0.0,14166,11779,11024,42626,26253,3
0.0,0.0,0.0,14429,11906,10987,42906,26124,3
0.0,0.0,0.0,14607,11957,10963,42859,26357,3
0.0,0.0,0.0,14607,12034,10963,42534,26566,3
0.0,0.0,0.0,14741,12163,10963,42212,26487,3
0.0,0.0,0.0,14967,12293,10939,41938,26409,3
0.0,0.0,0.0,15181,12280,10927,41803,26409,3
0.0,0.0,0.0,15273,12320,10915,41667,26409,3
0.0,0.0,0.0,15227,12280,10867,41399,26305,3
0.0,0.0,0.0,15211,12293,10891,41221,26202,3
0.0,0.0,0.0,15273,12280,10867,41176,26202,3
0.0,0.0,0.0,15335,12346,10867,40955,26202,3
0.0,0.0,0.0,15288,12346,10867,41088,26202,3
0.0,0.0,0.0,15242,12346,10867,41265,26331,3
0.0,0.0,0.0,15273,12320,10867,40912,26566,3
0.0,0.0,0.0,15227,12346,10843,41132,26935,3
0.0,0.0,0.0,15273,12293,10843,40868,26988,3
0.0,0.0,0.0,15273,12137,10819,40780,27148,3
0.0,0.0,0.0,15165,12021,10771,40693,27122,3
0.0,0.0,0.0,15150,11970,10724,40780,27041,3
0.0,0.0,0.0,15150,11855,10748,40868,26988,3
0.0,0.0,0.0,15074,11754,10700,40868,26988,3
0.0,0.0,0.0,14997,11578,10653,40824,26935,3
0.0,0.0,0.0,14922,11465,10629,40780,26908,3
0.0,0.0,0.0,14846,11304,10629,40780,26855,3
0.0,0.0,0.0,14771,11354,10605,41622,26988,3
0.0,0.0,0.0,14666,11603,10605,41488,26882,3
0.0,0.0,0.0,14666,11528,10605,41399,26776,3
0.0,0.0,0.0,14607,11503,10594,41488,26829,3
0.0,0.0,0.0,14577,11540,10605,41488,26776,3
0.0,0.0,0.0,14488,11628,10617,41803,26776,3
0.0,0.0,0.0,14444,11703,10629,41938,26723,3
0.0,0.0,0.0,14429,11653,10605,41803,26723,3
0.0,0.0,0.0,14399,11603,10594,41848,26776,3
0.0,0.0,0.0,14370,11578,10594,41848,26723,3
0.0,0.0,0.0,14370,11578,10617,41803,26670,3
0.0,0.0,0.0,14341,11590,10605,41803,26670,3
0.0,0.0,0.0,14370,11578,10558,41938,26723,3
0.0,0.0,0.0,14370,11578,10546,41667,26670,3
0.0,0.0,0.0,14326,11553,10546,41667,26670,3
0.0,0.0,0.0,14311,11515,10546,41757,26618,3
0.0,0.0,0.0,14268,11515,10535,41757,26644,3
0.0,0.0,0.0,14311,11528,10535,41803,26670,3
0.0,0.0,0.0,14253,11553,10535,41757,26644,3
0.0,0.0,0.0,14268,11528,10535,41667,26618,3
0.0,0.0,0.0,14253,11503,10535,41757,26670,3
0.0,0.0,0.0,14224,11453,10535,41577,26618,3
0.0,0.0,0.0,14224,11453,10535,41667,26618,3
0.0,0.0,0.0,14253,11465,10535,41667,26618,3
0.0,0.0,0.0,14224,11490,10535,41622,26618,3
0.0,0.0,0.0,14195,11465,10535,41667,26644,3
0.0,0.0,0.0,14195,11478,10511,41622,26566,3
0.0,0.0,0.0,14195,11490,10523,41488,26618,3
0.0,0.0,0.0,14195,11503,10523,41577,26566,3
0.0,0.0,0.0,14180,11503,10511,41577,26618,3
0.0,0.0,0.0,14209,11503,10499,41577,26566,3
0.0,0.0,0.0,14166,11465,10523,41622,26566,3
0.0,0.0,0.0,14166,11503,10511,41488,26618,3
0.0,0.0,0.0,14151,11528,10476,41577,26566,3
0.0,0.0,0.0,14195,11565,10488,41577,26566,3
0.0,0.0,0.0,14166,11603,10453,41577,26618,3
0.0,0.0,0.0,14137,11590,10464,41622,26618,3
0.0,0.0,0.0,14137,11603,10453,41488,26618,3
0.0,0.0,0.0,14151,11603,10464,41577,26513,3
0.0,0.0,0.0,14137,11603,10453,41443,26461,3
0.0,0.0,0.0,14122,11615,10464,41443,26539,3
0.0,0.0,0.0,14137,11603,10453,41443,26487,3
0.0,0.0,0.0,14137,11603,10476,41488,26513,3
0.0,0.0,0.0,14151,11603,10476,41488,26513,3
0.0,0.0,0.0,14137,11578,10488,41443,26513,3
0.0,0.0,0.0,14108,11590,10464,41399,26566,3
0.0,0.0,0.0,14137,11553,10453,41309,26461,3
0.0,0.0,0.0,14137,11565,10453,41399,26461,3
0.0,0.0,0.0,14137,11453,10499,41221,26461,3
0.0,0.0,0.0,14050,11231,10594,41265,26435,3
0.0,0.0,0.0,14021,11060,10546,41132,26305,3
0.0,0.0,0.0,13964,10771,10441,41176,26305,3
0.0,0.0,0.0,13964,10771,10418,41088,26305,3
0.0,0.0,0.0,13949,10748,10394,41044,26305,3
0.0,0.0,0.0,13964,10724,10348,41088,26305,3
0.0,0.0,0.0,13921,10700,10348,41088,26202,3
0.0,0.0,0.0,13935,10700,10348,41044,26202,3
0.0,0.0,0.0,13935,10688,10348,40955,26202,3
0.0,0.0,0.0,13921,10676,10325,40955,26150,3
0.0,0.0,0.0,13906,10653,10301,40912,26150,3
0.0,0.0,0.0,13906,10641,10267,40955,26202,3
0.0,0.0,0.0,13921,10535,10163,40868,26099,3
0.0,0.0,0.0,13906,10535,10232,40824,26150,3
0.0,0.0,0.0,13906,10488,10278,40780,26150,3
0.0,0.0,0.0,13863,10441,10255,40780,26047,3
0.0,0.0,0.0,13849,10406,10325,40736,26099,3
0.0,0.0,0.0,13821,10371,10348,40780,26099,3
0.0,0.0,0.0,13806,10325,10267,40824,25996,3
0.0,0.0,0.0,13764,10301,10255,40736,26022,3
0.0,0.0,0.0,13749,10325,10117,40736,26099,3
0.0,0.0,0.0,13749,10325,10026,40780,25996,3
0.0,0.0,0.0,13764,10313,9980,40824,26047,3
0.0,0.0,0.0,13735,10325,9980,40780,26099,3
0.0,0.0,0.0,13735,10359,9958,40824,26099,3
0.0,0.0,0.0,13735,10371,9958,40912,26022,3
0.0,0.0,0.0,13707,10359,9946,40824,26073,3
0.0,0.0,0.0,13735,10371,9935,40780,25996,3
0.0,0.0,0.0,13693,10383,9912,40868,25996,3
0.0,0.0,0.0,13735,10371,9935,40868,25945,3
0.0,0.0,0.0,13693,10371,9935,40824,25971,3
0.0,0.0,0.0,13721,10359,9912,40780,25945,3
0.0,0.0,0.0,13707,10394,9912,40736,25945,3
0.0,0.0,0.0,13707,10394,9912,40605,25945,3
0.0,0.0,0.0,13693,10406,9901,40693,25920,3
0.0,0.0,0.0,13693,10406,9901,40693,25920,3
0.0,0.0,0.0,13707,10394,9901,40736,25894,3
0.0,0.0,0.0,13707,10418,9890,40736,25767,3
0.0,0.0,0.0,13707,10418,9867,40780,25894,3
0.0,0.0,0.0,13707,10394,9890,40780,25818,3
0.0,0.0,0.0,13679,10406,9890,40736,25843,3
0.0,0.0,0.0,13721,10441,9845,40868,25894,3
0.0,0.0,0.0,13679,10441,9845,40868,25894,3
0.0,0.0,0.0,13693,10441,9800,40868,25894,3
0.0,0.0,0.0,13679,10453,9800,40780,25894,3
0.0,0.0,0.0,13693,10441,9800,40736,25894,3
0.0,0.0,0.0,13679,10453,9800,40780,25843,3
0.0,0.0,0.0,13636,10441,9800,40693,25869,3
0.0,0.0,0.0,13650,10441,9845,40693,25843,3
0.0,0.0,0.0,13608,10535,9890,40693,25818,3
0.0,0.0,0.0,13566,10582,9901,40693,25742,3
0.0,0.0,0.0,13524,10617,9901,40780,25742,3
0.0,0.0,0.0,13566,10641,9901,40868,25742,3
0.0,0.0,0.0,13538,10664,9935,40736,25767,3
0.0,0.0,0.0,13510,10688,9980,40693,25767,3
0.0,0.0,0.0,13510,10987,9980,40868,25641,3
0.0,0.0,0.0,13468,10963,10003,40780,25616,3
0.0,0.0,0.0,13510,10951,10003,40824,25591,3
0.0,0.0,0.0,13510,10963,10049,40693,25540,3
0.0,0.0,0.0,13482,10975,10071,40736,25565,3
0.0,0.0,0.0,13510,10999,10071,40736,25616,3
0.0,0.0,0.0,13524,11036,10071,40780,25591,3
0.0,0.0,0.0,13510,11084,10083,40693,25591,3
0.0,0.0,0.0,13510,11133,10026,40824,25515,3
0.0,0.0,0.0,13524,11121,10003,40736,25591,3
0.0,0.0,0.0,13524,11109,10003,40780,25515,3
0.0,0.0,0.0,13510,11072,9958,40780,25540,3
0.0,0.0,0.0,13510,11072,9958,40780,25540,3
0.0,0.0,0.0,13524,11060,9958,40693,25515,3
0.0,0.0,0.0,13524,11060,9935,40693,25591,3
0.0,0.0,0.0,13566,11060,9946,40693,25490,3
0.0,0.0,0.0,13510,11048,9935,40605,25540,3
0.0,0.0,0.0,13510,11048,9935,40605,25591,3
0.0,0.0,0.0,13510,11012,9912,40649,25540,3
0.0,0.0,0.0,13510,11012,9890,40605,25591,3
0.0,0.0,0.0,13510,10963,9901,40562,25540,3
0.0,0.0,0.0,13538,10963,9901,40432,25591,3
0.0,0.0,0.0,13566,10891,9890,40519,25591,3
0.0,0.0,0.0,13849,10867,9867,40519,25843,3
0.0,0.0,0.0,13992,10771,9845,40824,26357,3
0.0,0.0,0.0,14036,10771,9755,40605,26409,3
0.0,0.0,0.0,14036,10724,9755,40519,26305,3
0.0,0.0,0.0,13978,10688,9744,40432,26253,3
0.0,0.0,0.0,14036,10676,9755,40259,26099,3
0.0,0.0,0.0,14036,10653,9755,40088,25894,3
0.0,0.0,0.0,14064,10617,9755,40045,25241,3
0.0,0.0,0.0,14050,10629,9755,40088,25118,3
0.0,0.0,0.0,14036,10594,9755,40088,25118,3
0.0,0.0,0.0,14021,10605,9755,40088,25093,3
0.0,0.0,0.0,13978,10629,9755,40045,25093,3
0.0,0.0,0.0,14036,10582,9733,40002,25019,3
0.0,0.0,0.0,14021,10582,9710,39832,25118,3
0.0,0.0,0.0,14064,10594,9733,39917,25093,3
0.0,0.0,0.0,14137,10605,9710,39832,24946,3
0.0,0.0,0.0,14253,10629,9710,39536,24995,3
0.0,0.0,0.0,14370,10629,9721,39327,25142,3
0.0,0.0,0.0,14488,10605,9699,38995,25093,3
0.0,0.0,0.0,14607,10629,9666,38871,25192,3
0.0,0.0,0.0,14666,10641,9632,38995,25093,3
0.0,0.0,0.0,14696,10605,9621,38830,24995,3
0.0,0.0,0.0,14726,10605,9621,38503,24995,3
0.0,0.0,0.0,14711,10629,9621,38341,25044,3
0.0,0.0,0.0,14681,10629,9632,38180,24946,3
0.0,0.0,0.0,14651,10629,9621,38180,24995,3
0.0,0.0,0.0,14636,10629,9632,38180,24946,3
0.0,0.0,0.0,14577,10676,9621,38544,24897,3
0.0,0.0,0.0,14547,10676,9621,38585,24799,3
0.0,0.0,0.0,14518,10700,9621,38463,24848,3
0.0,0.0,0.0,14518,10676,9621,38544,24848,3
0.0,0.0,0.0,14503,10724,9621,38666,24946,3
0.0,0.0,0.0,14473,10748,9621,38871,24995,3
0.0,0.0,0.0,14399,10748,9621,38995,25019,3
0.0,0.0,0.0,14399,10771,9632,38871,25093,3
0.0,0.0,0.0,14385,10771,9632,38912,24946,3
0.0,0.0,0.0,14399,10795,9621,38789,24946,3
0.0,0.0,0.0,14370,10783,9621,38912,24897,3
0.0,0.0,0.0,14326,10939,9643,38707,24897,3
0.0,0.0,0.0,14326,11012,9632,38830,24897,3
0.0,0.0,0.0,14282,11109,9666,38585,24848,3
0.0,0.0,0.0,14311,11304,9666,38830,24824,3
0.0,0.0,0.0,14282,11255,9677,38995,24848,3
0.0,0.0,0.0,14224,11231,9777,39077,24897,3
0.0,0.0,0.0,14195,11157,10255,38995,24848,3
0.0,0.0,0.0,14137,10915,10301,38666,24848,3
0.0,0.0,0.0,14122,10546,10255,38503,24824,3
0.0,0.0,0.0,14079,10301,10174,38830,24824,3
0.0,0.0,0.0,13978,10186,10083,39327,24799,3
0.0,0.0,0.0,13921,10129,10026,39244,24799,3
0.0,0.0,0.0,13906,10106,9935,39327,24799,3
0.0,0.0,0.0,13863,10117,9912,39244,24702,3
0.0,0.0,0.0,13849,10129,9721,39036,24630,3
0.0,0.0,0.0,13849,10129,9699,38748,24654,3
0.0,0.0,0.0,13806,10129,9699,38995,24606,3
0.0,0.0,0.0,13821,10117,9710,38912,24630,3
0.0,0.0,0.0,13806,10117,9766,38871,24606,3
0.0,0.0,0.0,13806,10117,9800,38871,24582,3
0.0,0.0,0.0,13821,10094,9980,38912,24558,3
0.0,0.0,0.0,13863,10083,10037,39494,24534,3
0.0,0.0,0.0,13921,10071,9946,39917,24606,3
0.0,0.0,0.0,13863,10049,9935,40002,24558,3
0.0,0.0,0.0,13821,10049,9912,39917,24510,3
0.0,0.0,0.0,13764,10049,9912,40002,24438,3
0.0,0.0,0.0,13735,10049,9867,39832,24510,3
0.0,0.0,0.0,13749,10037,9878,39790,24414,3
0.0,0.0,0.0,13707,10037,9856,39747,24414,3
0.0,0.0,0.0,13735,10049,9867,39747,24366,3
0.0,0.0,0.0,13679,10049,9845,39663,24414,3
0.0,0.0,0.0,13707,10049,9845,39536,24366,3
0.0,0.0,0.0,13679,10026,9800,39536,24318,3
0.0,0.0,0.0,13679,10037,9800,39452,24318,3
0.0,0.0,0.0,13650,10037,9788,39452,24223,3
0.0,0.0,0.0,13650,10071,9755,39369,24223,3
0.0,0.0,0.0,13636,10037,9733,39285,24271,3
0.0,0.0,0.0,13622,10037,9733,39202,24223,3
0.0,0.0,0.0,13650,10037,9744,39327,24176,3
0.0,0.0,0.0,13608,10037,9710,39160,24176,3
0.0,0.0,0.0,13622,10037,9688,39244,24223,3
0.0,0.0,0.0,13650,10037,9666,39244,24223,3
0.0,0.0,0.0,13622,10049,9643,39244,24129,3
0.0,0.0,0.0,13594,10071,9666,39160,24176,3
0.0,0.0,0.0,13622,10071,9643,38995,24176,3
0.0,0.0,0.0,13566,10049,9621,38953,24081,3
0.0,0.0,0.0,13566,10049,9632,39036,24129,3
0.0,0.0,0.0,13566,10071,9632,39036,24129,3
0.0,0.0,0.0,13566,10049,9632,39036,24081,3
0.0,0.0,0.0,13580,10049,9621,38995,24081,3
0.0,0.0,0.0,13552,10049,9632,38995,24129,3
0.0,0.0,0.0,13566,10049,9677,39036,24105,3
0.0,0.0,0.0,13566,10037,9677,38995,24034,3
0.0,0.0,0.0,13524,10071,9688,39077,24034,3
0.0,0.0,0.0,13482,10163,9710,39244,23987,3
0.0,0.0,0.0,13412,10163,9710,39244,23800,3
0.0,0.0,0.0,13412,10186,9710,39119,23754,3
0.0,0.0,0.0,13454,10117,9677,38995,23847,3
0.0,0.0,0.0,13440,10117,9643,39077,23800,3
0.0,0.0,0.0,13454,10071,9632,39160,23847,3
0.0,0.0,0.0,13440,10083,9610,39077,23870,3
0.0,0.0,0.0,13398,10117,9621,39036,23800,3
0.0,0.0,0.0,13398,10117,9610,39244,23800,3
0.0,0.0,0.0,13357,10071,9621,39036,23730,3
0.0,0.0,0.0,13357,10071,9621,38953,23754,3
0.0,0.0,0.0,13343,10071,9621,38953,23684,3
0.0,0.0,0.0,13357,10071,9599,38953,23707,3
0.0,0.0,0.0,13357,10049,9610,38830,23754,3
0.0,0.0,0.0,13343,10049,9599,38789,23661,3
0.0,0.0,0.0,13301,10071,9621,38748,23754,3
0.0,0.0,0.0,13315,10071,9610,38748,23707,3
0.0,0.0,0.0,13329,10049,9621,38830,23661,3
0.0,0.0,0.0,13329,10071,9621,38748,23730,3
0.0,0.0,0.0,13287,10094,9621,38707,23592,3
0.0,0.0,0.0,13287,10406,9621,39119,23730,3
0.0,0.0,0.0,13301,11157,9621,39244,23894,3
0.0,0.0,0.0,13301,11615,9621,39327,23894,3
0.0,0.0,0.0,13315,11817,9777,39452,23847,3
0.0,0.0,0.0,13301,11919,10003,39494,23894,3
0.0,0.0,0.0,13287,11906,10026,39494,23800,3
0.0,0.0,0.0,13287,11817,10094,39494,23800,3
0.0,0.0,0.0,13274,11528,10037,39411,23847,3
0.0,0.0,0.0,13287,11428,10003,39452,23777,3
0.0,0.0,0.0,13260,11304,9958,39369,23754,3
0.0,0.0,0.0,13246,11329,10003,39327,23824,3
0.0,0.0,0.0,13260,11329,10003,39411,23847,3
0.0,0.0,0.0,13260,11317,10003,39244,23847,3
0.0,0.0,0.0,13232,11317,9980,39244,23754,3
0.0,0.0,0.0,13260,11304,10014,39285,23754,3
0.0,0.0,0.0,13246,11317,9980,39327,23707,3
0.0,0.0,0.0,13232,11329,9980,39327,23754,3
0.0,0.0,0.0,13260,11317,9958,39244,23754,3
0.0,0.0,0.0,13232,11304,9946,39244,23777,3
0.0,0.0,0.0,13232,11366,9935,39327,23754,3
0.0,0.0,0.0,13246,11403,9912,39244,23754,3
0.0,0.0,0.0,13232,11416,9912,39327,23707,3
0.0,0.0,0.0,13232,11478,9912,39244,23730,3
0.0,0.0,0.0,13232,11553,9935,39327,23661,3
0.0,0.0,0.0,13205,11779,9935,39369,23661,3
0.0,0.0,0.0,13205,11919,9935,39494,23661,3
0.0,0.0,0.0,13205,12189,10071,39663,23730,3
0.0,0.0,0.0,13191,12451,10209,39832,23615,3
0.0,0.0,0.0,13205,12530,10301,39578,23754,3
0.0,0.0,0.0,13205,12851,10441,39832,23730,3
0.0,0.0,0.0,13191,13068,10499,39663,23661,3
0.0,0.0,0.0,13177,13136,10499,39747,23707,3
0.0,0.0,0.0,13177,13040,10688,39663,23661,3
0.0,0.0,0.0,13205,12905,10927,39705,23661,3
0.0,0.0,0.0,13177,12851,10915,39747,23615,3
0.0,0.0,0.0,13177,12783,10987,39832,23615,3
0.0,0.0,0.0,13205,12797,10963,39705,23592,3
0.0,0.0,0.0,13177,12703,10939,39705,23592,3
0.0,0.0,0.0,13177,12703,10915,39621,23661,3
0.0,0.0,0.0,13177,12690,10927,39663,23615,3
0.0,0.0,0.0,13205,12690,10915,39578,23615,3
0.0,0.0,0.0,13205,12690,10987,39663,23569,3
0.0,0.0,0.0,13177,12663,10987,39578,23661,3
0.0,0.0,0.0,13191,12649,10975,39536,23661,3
0.0,0.0,0.0,13191,12596,10975,39621,23615,3
0.0,0.0,0.0,13232,12583,10963,39663,23615,3
0.0,0.0,0.0,13191,12556,10975,39578,23684,3
0.0,0.0,0.0,13232,12530,11096,39578,23661,3
0.0,0.0,0.0,13191,12477,11133,39578,23615,3
0.0,0.0,0.0,13232,12451,11133,39494,23661,3
0.0,0.0,0.0,13232,12438,11379,39663,23661,3
0.0,0.0,0.0,13246,12424,11565,39663,23661,3
0.0,0.0,0.0,13205,12424,11578,39536,23638,3
0.0,0.0,0.0,13205,12424,11553,39621,23615,3
0.0,0.0,0.0,13232,12398,11703,39621,23707,3
0.0,0.0,0.0,13205,12385,11703,39621,23707,3
0.0,0.0,0.0,13177,12372,11703,39621,23684,3
0.0,0.0,0.0,13232,12398,11703,39578,23661,3
0.0,0.0,0.0,13232,12385,11678,39578,23707,3
0.0,0.0,0.0,13191,12385,11665,39536,23661,3
0.0,0.0,0.0,13232,12372,11653,39494,23754,3
0.0,0.0,0.0,13232,12280,11653,39452,23707,3
0.0,0.0,0.0,13205,12163,11565,39369,23661,3
0.0,0.0,0.0,13232,12112,11553,39494,23730,3
0.0,0.0,0.0,13232,12112,11754,39494,23730,3
0.0,0.0,0.0,13205,12073,12112,39663,23661,3
0.0,0.0,0.0,13205,12112,12009,39578,23707,3
0.0,0.0,0.0,13177,12086,12021,39621,23638,3
0.0,0.0,0.0,13232,12112,12086,39578,23684,3
0.0,0.0,0.0,13205,12112,12293,39536,23754,3
0.0,0.0,0.0,13177,12112,12306,39578,23707,3
0.0,0.0,0.0,13205,12112,12241,39578,23707,3
0.0,0.0,0.0,13177,12112,12189,39536,23684,3
0.0,0.0,0.0,13177,12137,12163,39578,23499,3
0.0,0.0,0.0,13205,12112,12112,39536,23522,3
0.0,0.0,0.0,13205,12099,12086,39621,23569,3
0.0,0.0,0.0,13232,12124,12021,39411,23615,3
0.0,0.0,0.0,13232,12163,11906,39411,23569,3
0.0,0.0,0.0,13232,12163,11919,39411,23522,3
0.0,0.0,0.0,13205,12176,11881,39369,23592,3
0.0,0.0,0.0,13205,12163,11906,39452,23569,3
0.0,0.0,0.0,13205,12163,11906,39536,23569,3
0.0,0.0,0.0,13191,12137,11906,39411,23569,3
0.0,0.0,0.0,13232,12163,11855,39411,23661,3
0.0,0.0,0.0,13191,12163,11868,39369,23638,3
0.0,0.0,0.0,13232,12150,11881,39411,23546,3
0.0,0.0,0.0,13260,12150,11855,39411,23592,3
0.0,0.0,0.0,13218,12163,11855,39411,23615,3
0.0,0.0,0.0,13205,12163,11817,39285,23661,3
0.0,0.0,0.0,13232,12176,11779,39411,23661,3
0.0,0.0,0.0,13205,12163,11754,39369,23661,3
0.0,0.0,0.0,13232,12189,11754,39452,23661,3
0.0,0.0,0.0,13232,12320,11754,39411,23684,3
0.0,0.0,0.0,13232,12504,11678,39327,23754,3
0.0,0.0,0.0,13205,12504,11603,39244,23847,3
0.0,0.0,0.0,13232,12517,11578,39411,23754,3
0.0,0.0,0.0,13246,12583,11653,39369,23777,3
0.0,0.0,0.0,13246,12530,11615,39327,23800,3
0.0,0.0,0.0,13287,12530,11603,39327,23777,3
0.0,0.0,0.0,13287,12596,11465,39369,23777,3
0.0,0.0,0.0,13482,12636,11304,39077,23800,3
0.0,0.0,0.0,13735,12636,11206,38995,23847,3
0.0,0.0,0.0,14021,12756,11072,38789,23847,3
0.0,0.0,0.0,14064,12864,10963,38707,23870,3
0.0,0.0,0.0,13992,13068,10867,38707,23870,3
0.0,0.0,0.0,13978,13040,10843,38666,23847,3
0.0,0.0,0.0,13921,12959,10819,38585,23707,3
0.0,0.0,0.0,13906,12756,10748,38625,23847,3
0.0,0.0,0.0,13849,12610,10653,38544,23800,3
0.0,0.0,0.0,13792,12372,10558,38625,23754,3
0.0,0.0,0.0,13863,12293,10546,38585,23707,3
0.0,0.0,0.0,13806,12241,10535,38503,23707,3
0.0,0.0,0.0,13821,12320,10546,38382,23684,3
0.0,0.0,0.0,13821,12293,10546,38180,23569,3
0.0,0.0,0.0,13792,12215,10535,38220,23569,3
0.0,0.0,0.0,13679,12215,10535,38180,23522,3
0.0,0.0,0.0,13622,12202,10535,38100,23499,3
0.0,0.0,0.0,13636,12215,10511,38100,23522,3
0.0,0.0,0.0,13594,12215,10535,38180,23477,3
0.0,0.0,0.0,13510,12228,10535,38180,23385,3
0.0,0.0,0.0,13524,12267,10535,38100,23431,3
0.0,0.0,0.0,13510,12241,10535,38180,23431,3
0.0,0.0,0.0,13454,12267,10488,38100,23454,3
0.0,0.0,0.0,13468,12228,10523,38180,23431,3
0.0,0.0,0.0,13454,12267,10499,38180,23431,3
0.0,0.0,0.0,13454,12228,10499,38180,23477,3
0.0,0.0,0.0,13412,12254,10511,38260,23431,3
0.0,0.0,0.0,13398,12280,10488,38220,23431,3
0.0,0.0,0.0,13454,12293,10511,38220,23431,3
0.0,0.0,0.0,13454,12306,10488,38100,23454,3
0.0,0.0,0.0,13454,12293,10488,38180,23431,3
0.0,0.0,0.0,13412,12306,10488,38180,23431,3
0.0,0.0,0.0,13412,12372,10499,38220,23431,3
0.0,0.0,0.0,13412,12424,10499,38180,23477,3
0.0,0.0,0.0,13398,12477,10499,38260,23477,3
0.0,0.0,0.0,13412,12490,10499,38100,23522,3
0.0,0.0,0.0,13398,12451,10499,38220,23431,3
0.0,0.0,0.0,13412,12477,10499,38341,24366,3
0.0,0.0,0.0,13454,12477,10499,38666,25691,3
0.0,0.0,0.0,13440,12477,10535,38871,26618,3
0.0,0.0,0.0,13371,12530,10535,40346,28527,3
0.0,0.0,0.0,13398,12530,10546,42029,29895,3
0.0,0.0,0.0,13384,12490,10535,42534,29805,3
0.0,0.0,0.0,13398,12504,10546,43329,30838,3
0.0,0.0,0.0,13412,12517,10558,44291,31913,3
0.0,0.0,0.0,13482,12530,10570,45685,33405,3
0.0,0.0,0.0,13482,12504,10582,47246,34553,3
0.0,0.0,0.0,13538,12530,10594,47675,35309,3
0.0,0.0,0.0,13608,12570,10605,47675,35676,3
0.0,0.0,0.0,13707,12556,10594,47783,35824,3
0.0,0.0,0.0,13735,12530,10605,47783,35345,3
0.0,0.0,0.0,13792,12583,10594,47783,35639,3
0.0,0.0,0.0,13806,12530,10605,47513,35345,3
0.0,0.0,0.0,13863,12530,10605,47513,35345,3
0.0,0.0,0.0,13935,12543,10605,47891,35898,3
0.0,0.0,0.0,14093,12583,10605,48163,36010,3
0.0,0.0,0.0,14209,12649,10629,48548,36310,3
0.0,0.0,0.0,14253,12649,10653,48825,36690,3
0.0,0.0,0.0,14268,12676,10653,49048,36920,3
0.0,0.0,0.0,14253,12690,10676,49386,37465,3
0.0,0.0,0.0,14253,12716,10700,49386,37701,3
0.0,0.0,0.0,14253,12676,10688,49217,37583,3
0.0,0.0,0.0,14253,12663,10676,48881,37230,3
0.0,0.0,0.0,14209,12676,10676,48658,37230,3
0.0,0.0,0.0,14268,12690,10664,48603,37191,3
0.0,0.0,0.0,14268,12690,10641,48603,36998,3
0.0,0.0,0.0,14311,12690,10676,48548,37191,3
0.0,0.0,0.0,14311,12690,10629,48548,37075,3
0.0,0.0,0.0,14370,12676,10653,48437,36959,3
0.0,0.0,0.0,14326,12690,10653,48327,36805,3
0.0,0.0,0.0,14311,12703,10629,48218,36920,3
0.0,0.0,0.0,14341,12663,10664,48163,36767,3
0.0,0.0,0.0,14326,12690,10629,48000,36767,3
0.0,0.0,0.0,14311,12663,10629,47945,36805,3
0.0,0.0,0.0,14326,12636,10641,47675,36614,3
0.0,0.0,0.0,14326,12556,10629,47567,36538,3
0.0,0.0,0.0,14341,12424,10582,47460,36690,3
0.0,0.0,0.0,14326,12385,10558,47406,36576,3
0.0,0.0,0.0,14370,12241,10535,47406,36499,3
0.0,0.0,0.0,14311,11957,10511,47299,36614,3
0.0,0.0,0.0,14282,11792,10464,47087,36462,3
0.0,0.0,0.0,14224,11565,10441,46928,36348,3
0.0,0.0,0.0,14180,11354,10371,46928,36462,3
0.0,0.0,0.0,14108,11206,10348,46981,36386,3
0.0,0.0,0.0,14079,11157,10313,46823,36272,3
0.0,0.0,0.0,14079,11157,10313,46770,36310,3
0.0,0.0,0.0,14064,11133,10325,46613,36272,3
0.0,0.0,0.0,14079,11157,10348,46613,36160,3
0.0,0.0,0.0,14079,11206,10325,46509,36160,3
0.0,0.0,0.0,14021,11231,10325,46509,36197,3
0.0,0.0,0.0,14021,11280,10348,46981,36197,3
0.0,0.0,0.0,14079,11403,10406,47783,36920,3
0.0,0.0,0.0,14021,11403,10441,48108,37465,3
0.0,0.0,0.0,14021,11379,10464,48492,37860,3
0.0,0.0,0.0,14021,11403,10464,49161,38666,3
0.0,0.0,0.0,14007,11403,10476,49273,38666,3
0.0,0.0,0.0,13964,11453,10488,49104,38625,3
0.0,0.0,0.0,14021,11503,10535,49217,38585,3
0.0,0.0,0.0,14021,11553,10582,49273,38748,3
0.0,0.0,0.0,14036,11603,10653,49217,38422,3
0.0,0.0,0.0,13992,11678,10724,48327,38180,3
0.0,0.0,0.0,13978,11678,10724,48548,38585,3
0.0,0.0,0.0,14021,11665,10724,48603,38585,3
0.0,0.0,0.0,14021,11716,10748,48825,39036,3
0.0,0.0,0.0,13978,11754,10736,49217,39327,3
0.0,0.0,0.0,13964,11792,10724,49273,39285,3
0.0,0.0,0.0,13964,11779,10748,49330,39411,3
0.0,0.0,0.0,13964,11817,10748,49217,40302,3
0.0,0.0,0.0,13964,11957,10771,48658,40045,3
0.0,0.0,0.0,13978,11983,10771,48163,39747,3
0.0,0.0,0.0,13935,12021,10771,47675,39621,3
0.0,0.0,0.0,13921,12124,10771,47406,39494,3
0.0,0.0,0.0,13964,12189,10748,46613,39285,3
0.0,0.0,0.0,13935,12215,10748,46198,39244,3
0.0,0.0,0.0,13921,12267,10736,45281,38748,3
0.0,0.0,0.0,13964,12346,10700,44634,38341,3
0.0,0.0,0.0,13964,12398,10688,44096,38260,3
0.0,0.0,0.0,13964,12398,10688,43615,38100,3
0.0,0.0,0.0,13978,12424,10688,43424,37662,3
0.0,0.0,0.0,13964,12398,10688,43519,37701,3
0.0,0.0,0.0,13978,12398,10688,43235,37820,3
0.0,0.0,0.0,13992,12372,10688,43000,36538,3
0.0,0.0,0.0,14007,12320,10676,42673,36386,3
0.0,0.0,0.0,14021,12320,10676,42488,36235,3
0.0,0.0,0.0,14021,12241,10653,42349,36085,3
0.0,0.0,0.0,14021,12112,10629,42349,36047,3
0.0,0.0,0.0,13978,11855,10617,42488,36047,3
0.0,0.0,0.0,13935,11515,10582,42488,36010,3
0.0,0.0,0.0,13921,11317,10394,42212,35712,3
0.0,0.0,0.0,13878,11280,10313,41803,35163,3
0.0,0.0,0.0,13849,11219,10255,41265,34696,3
0.0,0.0,0.0,13806,11206,10209,40868,34341,3
0.0,0.0,0.0,13764,11182,10083,40605,33921,3
0.0,0.0,0.0,13735,11121,9935,40475,33405,3
0.0,0.0,0.0,13679,11084,9811,40173,33134,3
0.0,0.0,0.0,13650,11109,9755,40045,32966,3
0.0,0.0,0.0,13594,11219,9710,40088,33067,3
0.0,0.0,0.0,13608,11416,9710,40259,33168,3
0.0,0.0,0.0,13524,11804,9721,40259,33100,3
0.0,0.0,0.0,13398,11855,9710,40173,32999,3
0.0,0.0,0.0,13371,11766,9710,40088,32866,3
0.0,0.0,0.0,13343,11728,9710,40131,32899,3
0.0,0.0,0.0,13301,11678,9721,40045,32966,3
0.0,0.0,0.0,13232,11817,9755,40088,32866,3
0.0,0.0,0.0,13260,11919,9733,40088,32866,3
0.0,0.0,0.0,13232,11855,9710,40045,32799,3
0.0,0.0,0.0,13177,11628,9677,40088,32765,3
0.0,0.0,0.0,13081,11354,9677,40002,32765,3
0.0,0.0,0.0,13027,11304,9688,40002,32765,3
0.0,0.0,0.0,13054,11304,9699,40088,32765,3
0.0,0.0,0.0,13040,11304,9710,40002,32765,3
0.0,0.0,0.0,13013,11304,9677,40002,32765,3
0.0,0.0,0.0,13013,11280,9688,40045,32699,3
0.0,0.0,0.0,12932,11268,9677,40173,32932,3
0.0,0.0,0.0,12932,11255,9677,40346,33134,3
0.0,0.0,0.0,12905,11255,9643,40649,33508,3
0.0,0.0,0.0,12905,11219,9666,40693,33645,3
0.0,0.0,0.0,12864,11255,9666,40693,33852,3
0.0,0.0,0.0,12864,11243,9666,41044,33991,3
0.0,0.0,0.0,12851,11255,9666,41221,34412,3
0.0,0.0,0.0,12851,11268,9643,41399,34767,3
0.0,0.0,0.0,12851,11255,9643,41803,34982,3
0.0,0.0,0.0,12824,11255,9666,41667,35055,3
0.0,0.0,0.0,12810,11255,9666,41803,35236,3
0.0,0.0,0.0,12851,11255,9666,41984,35418,3
0.0,0.0,0.0,12851,11268,9666,41938,35418,3
0.0,0.0,0.0,12878,11255,9666,41893,35418,3
0.0,0.0,0.0,13287,11465,9733,41938,35565,3
0.0,0.0,0.0,14036,11754,9980,41757,35345,3
0.0,0.0,0.0,14726,12215,10325,42029,35639,3
0.0,0.0,0.0,14756,12824,10629,42304,35898,3
0.0,0.0,0.0,15058,13343,10819,42580,35712,3
0.0,0.0,0.0,15335,13906,11194,43046,36462,3
0.0,0.0,0.0,15459,13821,11206,43235,36538,3
0.0,0.0,0.0,15553,13835,11157,43424,35898,3
0.0,0.0,0.0,15553,13806,11121,43519,36160,3
0.0,0.0,0.0,15490,13693,11060,43711,36197,3
0.0,0.0,0.0,15397,13622,11012,43519,36235,3
0.0,0.0,0.0,15335,13622,11012,43711,36047,3
0.0,0.0,0.0,15258,13622,10987,43711,36085,3
0.0,0.0,0.0,15181,13650,10975,43759,36047,3
0.0,0.0,0.0,15150,13693,10987,44096,36160,3
0.0,0.0,0.0,15150,13806,11012,43903,35935,3
0.0,0.0,0.0,15135,13821,11036,43951,35749,3
0.0,0.0,0.0,15119,13878,11036,43903,35565,3
0.0,0.0,0.0,15150,13964,11084,43855,35639,3
0.0,0.0,0.0,15211,14021,11121,43615,35492,3
0.0,0.0,0.0,15181,14021,11157,43615,35455,3
0.0,0.0,0.0,15165,13964,11133,43567,35492,3
0.0,0.0,0.0,15165,13821,11109,43615,35455,3
0.0,0.0,0.0,15150,13792,11109,43519,35345,3
0.0,0.0,0.0,15119,13792,11109,43519,35418,3
0.0,0.0,0.0,15150,13821,11084,43519,35345,3
0.0,0.0,0.0,15150,13863,11072,43424,35309,3
0.0,0.0,0.0,15196,13906,11109,43424,35272,3
0.0,0.0,0.0,15211,13906,11133,43519,35272,3
0.0,0.0,0.0,15335,14021,11206,43424,35199,3
0.0,0.0,0.0,15273,13964,11182,43663,35272,3
0.0,0.0,0.0,15273,13978,11206,43615,35163,3
0.0,0.0,0.0,15428,14137,11354,43615,35127,3
0.0,0.0,0.0,15726,14444,11553,43663,35055,3
0.0,0.0,0.0,16044,14607,11665,43711,35127,3
0.0,0.0,0.0,16157,14547,11653,43615,34946,3
0.0,0.0,0.0,16287,14503,11603,43567,34910,3
0.0,0.0,0.0,16352,14458,11603,43519,35236,3
0.0,0.0,0.0,16287,14370,11553,43472,35055,3
0.0,0.0,0.0,16093,14311,11553,43519,34874,3
0.0,0.0,0.0,16060,14311,11540,43329,34982,3
0.0,0.0,0.0,15964,14282,11515,43282,34839,3
0.0,0.0,0.0,15852,14253,11528,43235,34731,3
0.0,0.0,0.0,15678,14021,11366,43140,34874,3
0.0,0.0,0.0,15600,13921,11280,43235,34767,3
0.0,0.0,0.0,15381,13707,11133,43140,34696,3
0.0,0.0,0.0,15211,13594,11060,43093,34696,3
0.0,0.0,0.0,14967,13398,10963,43046,34696,3
0.0,0.0,0.0,14801,13287,10927,42953,34482,3
0.0,0.0,0.0,14726,13068,10843,42859,34696,3
0.0,0.0,0.0,14503,12583,10724,43000,34589,3
0.0,0.0,0.0,14385,12267,10629,42906,34482,3
0.0,0.0,0.0,14311,11868,10499,42953,34553,3
0.0,0.0,0.0,14268,11779,10441,43140,34589,3
0.0,0.0,0.0,14195,11703,10394,43093,34482,3
0.0,0.0,0.0,14079,11615,10348,43282,34553,3
0.0,0.0,0.0,14050,11478,10348,43424,34696,3
0.0,0.0,0.0,13992,11453,10313,43329,34518,3
0.0,0.0,0.0,13906,11354,10301,43235,34589,3
0.0,0.0,0.0,13906,11403,10313,43329,34696,3
0.0,0.0,0.0,13863,11528,10301,43329,34518,3
0.0,0.0,0.0,13849,11515,10301,43235,34482,3
0.0,0.0,0.0,13792,11453,10301,43140,34696,3
0.0,0.0,0.0,13792,11403,10278,43140,34589,3
0.0,0.0,0.0,13792,11391,10255,43093,34553,3
0.0,0.0,0.0,13792,11403,10267,43093,34660,3
0.0,0.0,0.0,13835,11528,10267,43000,34518,3
0.0,0.0,0.0,13849,11528,10267,43000,34412,3
0.0,0.0,0.0,13863,11553,10267,43046,34589,3
0.0,0.0,0.0,13863,11528,10267,42953,34412,3
0.0,0.0,0.0,13849,11465,10255,43000,34341,3
0.0,0.0,0.0,13849,11453,10255,42859,34553,3
0.0,0.0,0.0,13849,11478,10244,42766,34412,3
0.0,0.0,0.0,13863,11453,10232,42859,34518,3
0.0,0.0,0.0,13849,11478,10255,42859,34696,3
0.0,0.0,0.0,13821,11490,10255,42953,34624,3
0.0,0.0,0.0,13792,11453,10221,42953,34482,3
0.0,0.0,0.0,13707,11366,10209,42906,34553,3
0.0,0.0,0.0,13735,11354,10255,42953,34553,3
0.0,0.0,0.0,13707,11255,10209,42906,34482,3
0.0,0.0,0.0,13693,11206,10174,42859,34412,3
0.0,0.0,0.0,13636,11157,10140,42906,34482,3
0.0,0.0,0.0,13636,11157,10117,42906,34341,3
0.0,0.0,0.0,13622,11145,10117,42673,34412,3
0.0,0.0,0.0,13622,11133,10106,42766,34412,3
0.0,0.0,0.0,13566,11109,10083,42719,34271,3
0.0,0.0,0.0,13594,11084,10037,42859,34271,3
0.0,0.0,0.0,13580,11096,10003,42673,34412,3
0.0,0.0,0.0,13594,11060,9946,42488,34376,3
0.0,0.0,0.0,13566,11024,9856,42766,34341,3
0.0,0.0,0.0,13538,10963,9800,42673,34341,3
0.0,0.0,0.0,13510,10855,9800,42488,34271,3
0.0,0.0,0.0,13510,10771,9710,42488,34060,3
0.0,0.0,0.0,13524,10759,9666,42488,34271,3
0.0,0.0,0.0,13510,10748,9643,42488,34095,3
0.0,0.0,0.0,13482,10724,9621,42488,33921,3
0.0,0.0,0.0,13482,10724,9621,42488,34026,3
0.0,0.0,0.0,13510,10724,9599,42488,33991,3
0.0,0.0,0.0,13510,10712,9610,42304,33921,3
0.0,0.0,0.0,13468,10748,9610,42349,33921,3
0.0,0.0,0.0,13468,10748,9610,42304,33991,3
0.0,0.0,0.0,13454,10724,9621,42349,33852,3
0.0,0.0,0.0,13398,10653,9621,42673,33921,3
0.0,0.0,0.0,13371,10464,9621,43046,34271,3
0.0,0.0,0.0,13260,10325,9599,43519,34553,3
0.0,0.0,0.0,13177,10221,9621,44048,35127,3
0.0,0.0,0.0,13081,10186,9621,44389,35272,3
0.0,0.0,0.0,13068,10140,9599,44585,35712,3
0.0,0.0,0.0,13027,10129,9621,44438,35382,3
0.0,0.0,0.0,12959,10117,9621,44389,35418,3
0.0,0.0,0.0,12932,10117,9599,44242,35272,3
0.0,0.0,0.0,12932,10129,9610,44193,35272,3
0.0,0.0,0.0,12932,10117,9621,44145,35418,3
0.0,0.0,0.0,12905,10129,9621,44193,34946,3
0.0,0.0,0.0,12864,10117,9588,43903,34553,3
0.0,0.0,0.0,12797,10117,9621,43711,33748,3
0.0,0.0,0.0,12770,10117,9599,43807,33405,3
0.0,0.0,0.0,12743,10140,9621,44096,33439,3
0.0,0.0,0.0,12756,10163,9621,44340,33852,3
0.0,0.0,0.0,12743,10174,9621,44733,34130,3
0.0,0.0,0.0,12703,10209,9621,45281,34624,3
0.0,0.0,0.0,12703,10221,9610,45281,34482,3
0.0,0.0,0.0,12690,10244,9599,45382,34412,3
0.0,0.0,0.0,12636,10255,9621,45584,33991,3
0.0,0.0,0.0,12636,10301,9621,45685,34060,3
0.0,0.0,0.0,12583,10313,9621,45685,33645,3
0.0,0.0,0.0,12530,10371,9610,45635,33679,3
0.0,0.0,0.0,12490,10394,9599,45584,33714,3
0.0,0.0,0.0,12477,10371,9621,45685,33679,3
0.0,0.0,0.0,12477,10394,9621,45432,33474,3
0.0,0.0,0.0,12451,10371,9610,45432,33679,3
0.0,0.0,0.0,12398,10359,9610,45231,33371,3
0.0,0.0,0.0,12385,10371,9621,45081,33236,3
0.0,0.0,0.0,12372,10394,9610,45281,34200,3
0.0,0.0,0.0,12372,10383,9621,45889,36310,3
0.0,0.0,0.0,12372,10394,9588,46198,36805,3
0.0,0.0,0.0,12385,10394,9621,46613,38100,3
0.0,0.0,0.0,12372,10406,9610,46613,38019,3
0.0,0.0,0.0,12372,10418,9621,46457,37701,3
0.0,0.0,0.0,12372,10418,9610,46249,37583,3
0.0,0.0,0.0,12346,10406,9599,46095,37465,3
0.0,0.0,0.0,12346,10441,9599,45838,37230,3
0.0,0.0,0.0,12372,10453,9621,45992,36882,3
0.0,0.0,0.0,12346,10488,9621,45838,36959,3
0.0,0.0,0.0,12346,10511,9621,45889,36805,3
0.0,0.0,0.0,12346,10535,9621,45736,36767,3
0.0,0.0,0.0,12372,10546,9621,45584,36767,3
0.0,0.0,0.0,12359,10582,9610,45584,36614,3
0.0,0.0,0.0,12359,10629,9621,45281,36122,3
0.0,0.0,0.0,12372,10629,9621,45231,36047,3
0.0,0.0,0.0,12398,10605,9621,45181,36122,3
0.0,0.0,0.0,12372,10535,9610,45181,35935,3
0.0,0.0,0.0,12372,10558,9621,45131,36047,3
0.0,0.0,0.0,12372,10570,9621,45081,36122,3
0.0,0.0,0.0,12372,10582,9621,45081,36010,3
0.0,0.0,0.0,12359,10594,9621,44832,36047,3
0.0,0.0,0.0,12346,10605,9621,44981,36047,3
0.0,0.0,0.0,12359,10629,9621,44981,36010,3
0.0,0.0,0.0,12346,10629,9599,44832,36160,3
0.0,0.0,0.0,12359,10605,9588,44634,36047,3
0.0,0.0,0.0,12346,10629,9588,44536,35935,3
0.0,0.0,0.0,12346,10629,9621,44438,35935,3
0.0,0.0,0.0,12320,10653,9610,44340,36010,3
0.0,0.0,0.0,12320,10629,9599,44193,35861,3
0.0,0.0,0.0,12293,10629,9621,44193,35972,3
0.0,0.0,0.0,12306,10594,9610,44096,35935,3
0.0,0.0,0.0,12320,10558,9610,44000,35824,3
0.0,0.0,0.0,12280,10499,9610,44000,35639,3
0.0,0.0,0.0,12267,10499,9621,44048,35861,3
0.0,0.0,0.0,12293,10499,9610,44000,35898,3
0.0,0.0,0.0,12280,10535,9599,44000,35824,3
0.0,0.0,0.0,12280,10511,9621,43903,35935,3
0.0,0.0,0.0,12293,10499,9599,44000,36010,3
0.0,0.0,0.0,12293,10511,9599,43951,36160,3
0.0,0.0,0.0,12293,10488,9621,43903,36085,3
0.0,0.0,0.0,12267,10464,9621,43951,36160,3
0.0,0.0,0.0,12280,10441,9610,44000,36010,3
0.0,0.0,0.0,12293,10418,9599,43903,36122,3
0.0,0.0,0.0,12267,10394,9610,44000,36197,3
0.0,0.0,0.0,12267,10394,9621,44000,36160,3
0.0,0.0,0.0,12228,10359,9621,44048,36122,3
0.0,0.0,0.0,12267,10371,9621,43903,36235,3
0.0,0.0,0.0,12241,10348,9621,44000,36047,3
0.0,0.0,0.0,12267,10348,9621,44048,36310,3
0.0,0.0,0.0,12267,10348,9599,44145,36348,3
0.0,0.0,0.0,12267,10371,9621,44145,36235,3
0.0,0.0,0.0,12267,10359,9610,43951,36462,3
0.0,0.0,0.0,12280,10359,9610,44145,36728,3
0.0,0.0,0.0,12293,10371,9621,44438,37269,3
0.0,0.0,0.0,12346,10406,9599,44683,37781,3
0.0,0.0,0.0,12372,10418,9599,44585,38180,3
0.0,0.0,0.0,12372,10429,9599,44585,38100,3
0.0,0.0,0.0,12346,10429,9621,44585,38301,3
0.0,0.0,0.0,12293,10418,9621,44634,38789,3
0.0,0.0,0.0,12267,10418,9621,44634,38995,3
0.0,0.0,0.0,12346,10453,9599,44634,38871,3
0.0,0.0,0.0,12424,10453,9599,44585,39077,3
0.0,0.0,0.0,12490,10488,9610,44536,38748,3
0.0,0.0,0.0,12636,10535,9599,44242,38666,3
0.0,0.0,0.0,12770,10653,9621,44096,38748,3
0.0,0.0,0.0,13246,11182,9610,43711,38625,3
0.0,0.0,0.0,13863,11653,9632,43519,38382,3
0.0,0.0,0.0,14297,12009,9845,43282,38180,3
0.0,0.0,0.0,14696,12451,10221,43282,38180,3
0.0,0.0,0.0,14861,12824,10348,43282,38019,3
0.0,0.0,0.0,15043,13122,10499,42953,37940,3
0.0,0.0,0.0,14967,13122,10535,42859,37269,3
0.0,0.0,0.0,14967,13122,10535,42534,36310,3
0.0,0.0,0.0,14982,13068,10511,42075,35018,3
0.0,0.0,0.0,14952,12905,10488,41443,33303,3
0.0,0.0,0.0,14756,12583,10359,41044,32043,3
0.0,0.0,0.0,14547,12438,10348,40519,31624,3
0.0,0.0,0.0,14429,12320,10267,40131,31213,3
0.0,0.0,0.0,14326,12215,10209,40173,30469,3
0.0,0.0,0.0,14282,12150,10163,40302,30195,3
0.0,0.0,0.0,14209,12150,10163,40475,29835,3
0.0,0.0,0.0,14224,12124,10140,40519,29568,3
0.0,0.0,0.0,14195,12073,10117,40432,29627,3
0.0,0.0,0.0,14180,12047,10083,40389,29274,3
0.0,0.0,0.0,14166,11842,10003,40432,29158,3
0.0,0.0,0.0,14036,11653,9755,40389,29100,3
0.0,0.0,0.0,13992,11565,9688,40649,29071,3
0.0,0.0,0.0,13906,11416,9599,40605,28955,3
0.0,0.0,0.0,13849,11206,9621,40605,28812,3
0.0,0.0,0.0,13707,11206,9621,40693,28697,3
0.0,0.0,0.0,13679,11121,9599,40780,28640,3
0.0,0.0,0.0,13580,11231,9599,40736,28754,3
0.0,0.0,0.0,13538,11317,9621,40693,28612,3
0.0,0.0,0.0,13510,11329,9621,40693,28527,3
0.0,0.0,0.0,13510,11379,9621,40868,28498,3
0.0,0.0,0.0,13524,11428,9621,40736,28189,3
0.0,0.0,0.0,13510,11553,9621,40780,27337,3
0.0,0.0,0.0,13510,11503,9621,40693,27095,3
0.0,0.0,0.0,13510,11403,9621,40475,26855,3
0.0,0.0,0.0,13510,11391,9621,40432,26882,3
0.0,0.0,0.0,13482,11403,9599,40519,27015,3
0.0,0.0,0.0,13468,11379,9621,40475,26829,3
0.0,0.0,0.0,13454,11366,9621,40432,26829,3
0.0,0.0,0.0,13412,11354,9610,40693,27041,3
0.0,0.0,0.0,13398,11354,9610,40562,27015,3
0.0,0.0,0.0,13426,11379,9621,40519,27095,3
0.0,0.0,0.0,13398,11379,9599,40693,27095,3
0.0,0.0,0.0,13371,11379,9621,40693,27148,3
0.0,0.0,0.0,13343,11379,9643,40736,27148,3
0.0,0.0,0.0,13315,11366,9621,40780,27095,3
0.0,0.0,0.0,13246,11553,9621,40736,27202,3
0.0,0.0,0.0,13232,11640,9610,40912,27148,3
0.0,0.0,0.0,13205,11728,9621,40780,27175,3
0.0,0.0,0.0,13150,11590,9621,40868,27068,3
0.0,0.0,0.0,13122,11578,9621,40955,27095,3
0.0,0.0,0.0,13150,11528,9621,40868,26988,3
0.0,0.0,0.0,13095,11503,9621,40868,26935,3
0.0,0.0,0.0,13150,11440,9599,40736,26882,3
0.0,0.0,0.0,13150,11428,9610,40780,26749,3
0.0,0.0,0.0,13191,11416,9588,40693,26723,3
0.0,0.0,0.0,13205,11453,9621,40693,26723,3
0.0,0.0,0.0,13232,11453,9610,40605,26723,3
0.0,0.0,0.0,13205,11478,9610,40519,26749,3
0.0,0.0,0.0,13232,11391,9599,40519,26908,3
0.0,0.0,0.0,13205,11403,9621,40432,27499,3
0.0,0.0,0.0,13205,11453,9621,40432,27663,3
0.0,0.0,0.0,13177,11478,9599,40432,27800,3
0.0,0.0,0.0,13191,11453,9621,40475,27800,3
0.0,0.0,0.0,13177,11478,9621,40475,27883,3
0.0,0.0,0.0,13163,11453,9621,40346,27856,3
0.0,0.0,0.0,13205,11453,9599,40346,27800,3
0.0,0.0,0.0,13177,11465,9599,40346,27800,3
0.0,0.0,0.0,13177,11416,9621,40346,27828,3
0.0,0.0,0.0,13177,11453,9577,40432,27856,3
0.0,0.0,0.0,13150,11416,9599,40346,27856,3
0.0,0.0,0.0,13177,11453,9621,40346,27966,3
0.0,0.0,0.0,13205,11453,9621,40302,27911,3
0.0,0.0,0.0,13163,11465,9621,40346,27966,3
0.0,0.0,0.0,13163,11453,9621,40519,27939,3
0.0,0.0,0.0,13150,11465,9621,40519,27966,3
0.0,0.0,0.0,13177,11465,9621,40346,28077,3
0.0,0.0,0.0,13177,11515,9599,40519,28022,3
0.0,0.0,0.0,13150,11528,9599,40605,28527,3
0.0,0.0,0.0,13232,11528,9621,40475,28357,3
0.0,0.0,0.0,13232,11553,9621,40346,28022,3
0.0,0.0,0.0,13232,11553,9610,40173,27800,3
0.0,0.0,0.0,13232,11553,9621,40173,27745,3
0.0,0.0,0.0,13205,11565,9621,40002,28189,3
0.0,0.0,0.0,13232,11603,9599,40216,28812,3
0.0,0.0,0.0,13232,11603,9621,40302,29835,3
0.0,0.0,0.0,13260,11603,9621,41399,31561,3
0.0,0.0,0.0,13287,11653,9677,42395,32899,3
0.0,0.0,0.0,13315,11754,9788,43663,33439,3
0.0,0.0,0.0,13287,11817,10117,45584,34589,3
0.0,0.0,0.0,13343,11855,10140,46301,35712,3
0.0,0.0,0.0,13343,11855,10174,46613,36959,3
0.0,0.0,0.0,13343,11855,10209,46301,37465,3
0.0,0.0,0.0,13343,11893,10209,45533,37701,3
0.0,0.0,0.0,13371,11893,10221,45281,37465,3
0.0,0.0,0.0,13343,11881,10174,45181,37622,3
0.0,0.0,0.0,13357,11957,10174,44733,38019,3
0.0,0.0,0.0,13357,12009,10325,45382,38585,3
0.0,0.0,0.0,13343,12009,10394,45382,40216,3
0.0,0.0,0.0,13343,12009,10394,45181,40605,3
0.0,0.0,0.0,13301,12021,10441,45081,40346,3
0.0,0.0,0.0,13343,12009,10441,44782,40173,3
0.0,0.0,0.0,13315,12060,10429,44487,39917,3
0.0,0.0,0.0,13343,12073,10394,44193,40002,3
0.0,0.0,0.0,13371,12099,10418,43807,39832,3
0.0,0.0,0.0,13357,12124,10394,43663,39917,3
0.0,0.0,0.0,13357,12112,10394,43567,40088,3
0.0,0.0,0.0,13398,12176,10394,43235,40173,3
0.0,0.0,0.0,13510,12189,10394,42534,40088,3
0.0,0.0,0.0,13679,12372,10394,41622,39663,3
0.0,0.0,0.0,13892,12583,10394,41000,39244,3
0.0,0.0,0.0,13935,12690,10394,40432,38748,3
0.0,0.0,0.0,14036,12690,10371,40519,38707,3
0.0,0.0,0.0,14079,12716,10371,39494,39036,3
0.0,0.0,0.0,14195,12770,10359,39327,39369,3
0.0,0.0,0.0,14195,12797,10441,39327,40045,3
0.0,0.0,0.0,14268,12783,10488,38830,40346,3
0.0,0.0,0.0,14385,12797,10488,37781,39832,3
0.0,0.0,0.0,14621,12837,10488,36386,39494,3
0.0,0.0,0.0,14922,12932,10511,34982,38382,3
0.0,0.0,0.0,15058,12959,10499,33474,37741,3
0.0,0.0,0.0,15058,13068,10464,32999,37230,3
0.0,0.0,0.0,15089,13068,10441,32899,37191,3
0.0,0.0,0.0,15135,13040,10441,33134,37152,3
0.0,0.0,0.0,15211,12743,10313,33269,37075,3
0.0,0.0,0.0,15273,12649,10301,33303,37075,3
0.0,0.0,0.0,15335,12490,10255,33371,37036,3
0.0,0.0,0.0,15397,12346,10174,33371,36805,3
0.0,0.0,0.0,15258,12241,10117,33576,37036,3
0.0,0.0,0.0,15227,12176,10071,33679,37036,3
0.0,0.0,0.0,15242,12163,10026,33542,36690,3
0.0,0.0,0.0,15335,12176,9980,33439,36690,3
0.0,0.0,0.0,15288,12176,9980,33645,36728,3
0.0,0.0,0.0,15196,12189,10026,33991,36843,3
0.0,0.0,0.0,15211,12215,10026,34130,36348,3
0.0,0.0,0.0,15242,12189,10026,34026,35272,3
0.0,0.0,0.0,15211,12137,9958,34130,35236,3
0.0,0.0,0.0,15227,11957,9901,34026,35418,3
0.0,0.0,0.0,15165,11766,9800,33991,35492,3
0.0,0.0,0.0,15150,11578,9677,33921,35345,3
0.0,0.0,0.0,15058,11428,9621,34060,35272,3
0.0,0.0,0.0,14997,11354,9621,34200,35309,3
0.0,0.0,0.0,14967,11280,9621,34341,35272,3
0.0,0.0,0.0,14922,11255,9621,34412,35163,3
0.0,0.0,0.0,14876,11206,9621,34447,35345,3
0.0,0.0,0.0,14846,11255,9621,34767,35492,3
0.0,0.0,0.0,14876,11403,9621,34624,35455,3
0.0,0.0,0.0,15043,11779,9666,34271,35272,3
0.0,0.0,0.0,15119,11957,9755,34165,35272,3
0.0,0.0,0.0,15196,12009,9755,34130,35345,3
0.0,0.0,0.0,15150,12124,9800,34165,35345,3
0.0,0.0,0.0,15227,12215,9811,34095,35127,3
0.0,0.0,0.0,15273,12320,9890,33921,35272,3
0.0,0.0,0.0,15242,12280,9890,33611,34518,3
0.0,0.0,0.0,15211,12280,9890,33714,33576,3
0.0,0.0,0.0,15165,12215,9890,33371,32866,3
0.0,0.0,0.0,15150,12163,9890,33202,32633,3
0.0,0.0,0.0,15150,12137,9890,33033,32533,3
0.0,0.0,0.0,15150,12112,9890,32765,32238,3
0.0,0.0,0.0,15119,12124,9867,32699,32108,3
0.0,0.0,0.0,15104,12073,9845,32666,31785,3
0.0,0.0,0.0,15058,12009,9845,32699,31561,3
0.0,0.0,0.0,15058,11957,9811,32633,31370,3
0.0,0.0,0.0,15058,11817,9766,32699,31339,3
0.0,0.0,0.0,14967,11779,9710,32765,31307,3
0.0,0.0,0.0,14937,11779,9688,32765,31213,3
0.0,0.0,0.0,14861,11766,9666,32799,31213,3
0.0,0.0,0.0,14816,11906,9666,32899,31119,3
0.0,0.0,0.0,14786,12021,9677,32999,31150,3
0.0,0.0,0.0,14726,12176,9666,33100,31213,3
0.0,0.0,0.0,14726,12293,9666,32966,31213,3
0.0,0.0,0.0,14696,12398,9677,32899,31150,3
0.0,0.0,0.0,14726,12424,9677,32899,31119,3
0.0,0.0,0.0,14666,12530,9688,32999,31119,3
0.0,0.0,0.0,14666,12583,9677,33033,31087,3
0.0,0.0,0.0,14666,12583,9688,33067,31087,3
0.0,0.0,0.0,14681,12636,9677,33168,30962,3
0.0,0.0,0.0,14636,12556,9677,33168,30900,3
0.0,0.0,0.0,14666,12424,9688,33134,30962,3
0.0,0.0,0.0,14607,12451,9666,33168,30900,3
0.0,0.0,0.0,14621,12411,9666,33303,30900,3
0.0,0.0,0.0,14607,12359,9677,33303,30931,3
0.0,0.0,0.0,14607,12346,9688,33303,31025,3
0.0,0.0,0.0,14577,12280,9666,33269,30900,3
0.0,0.0,0.0,14562,12293,9666,33236,30931,3
0.0,0.0,0.0,14547,12086,9666,33405,30931,3
0.0,0.0,0.0,14547,11957,9621,33236,30869,3
0.0,0.0,0.0,14518,11881,9643,33405,30838,3
0.0,0.0,0.0,14518,11855,9666,33303,30838,3
0.0,0.0,0.0,14488,11804,9621,33303,30900,3
0.0,0.0,0.0,14503,11728,9632,33236,30715,3
0.0,0.0,0.0,14488,11578,9621,33067,30622,3
0.0,0.0,0.0,14503,11366,9621,33202,30469,3
0.0,0.0,0.0,14488,11182,9621,32999,30438,3
0.0,0.0,0.0,14458,11084,9621,32966,30438,3
0.0,0.0,0.0,14458,11060,9621,32966,30347,3
0.0,0.0,0.0,14429,11060,9621,32899,30377,3
0.0,0.0,0.0,14385,11024,9643,33033,30347,3
0.0,0.0,0.0,14399,11024,9621,32966,30347,3
0.0,0.0,0.0,14370,11024,9610,33033,30347,3
0.0,0.0,0.0,14370,11060,9621,33033,30499,3
0.0,0.0,0.0,14311,11072,9621,33168,30469,3
0.0,0.0,0.0,14311,11133,9621,33100,30408,3
0.0,0.0,0.0,14268,11206,9621,33100,30377,3
0.0,0.0,0.0,14253,11219,9621,33202,30347,3
0.0,0.0,0.0,14195,11366,9610,33337,30347,3
0.0,0.0,0.0,14209,11590,9621,33474,30347,3
0.0,0.0,0.0,14209,11578,9621,33303,30286,3
0.0,0.0,0.0,14195,11465,9621,33371,30317,3
0.0,0.0,0.0,14209,11280,9621,33236,30377,3
0.0,0.0,0.0,14166,11182,9621,33269,30286,3
0.0,0.0,0.0,14166,11024,9621,33303,30347,3
0.0,0.0,0.0,14166,10915,9621,33168,30347,3
0.0,0.0,0.0,14195,10963,9621,33168,30286,3
0.0,0.0,0.0,14166,10963,9621,33303,30347,3
0.0,0.0,0.0,14166,10987,9621,33337,30377,3
0.0,0.0,0.0,14195,11403,9621,33921,30591,3
0.0,0.0,0.0,14166,11716,9621,33852,30469,3
0.0,0.0,0.0,14166,12176,9621,33921,30469,3
0.0,0.0,0.0,14137,12124,9621,33852,30408,3
0.0,0.0,0.0,14108,11703,9632,33645,30469,3
0.0,0.0,0.0,14108,11503,9666,33474,30469,3
0.0,0.0,0.0,14108,11465,9721,33714,30499,3
0.0,0.0,0.0,14108,11528,9733,34130,30256,3
0.0,0.0,0.0,14050,11515,9710,33921,30286,3
0.0,0.0,0.0,14050,11503,9710,33817,30226,3
0.0,0.0,0.0,14050,11528,9721,33817,30286,3
0.0,0.0,0.0,14036,11528,9721,33783,30256,3
0.0,0.0,0.0,14050,11553,9721,33817,30226,3
0.0,0.0,0.0,14050,11553,9710,33714,30165,3
0.0,0.0,0.0,14050,11528,9777,33748,30165,3
0.0,0.0,0.0,14021,11553,9733,33783,30226,3
0.0,0.0,0.0,14064,11528,9733,33748,30165,3
0.0,0.0,0.0,14079,11553,9755,33852,30165,3
0.0,0.0,0.0,14021,11565,9721,33783,30226,3
0.0,0.0,0.0,14021,11565,9755,33748,30226,3
0.0,0.0,0.0,14050,11553,9721,33748,30075,3
0.0,0.0,0.0,14050,11565,9721,33852,30165,3
0.0,0.0,0.0,14036,11578,9755,33783,30045,3
0.0,0.0,0.0,14036,11565,9755,33783,29746,3
0.0,0.0,0.0,14050,11553,9733,33748,29509,3
0.0,0.0,0.0,14064,11553,9755,33783,29421,3
0.0,0.0,0.0,14079,11578,9733,33645,29362,3
0.0,0.0,0.0,14036,11553,9766,33645,29333,3
0.0,0.0,0.0,14079,11553,9710,33576,29274,3
0.0,0.0,0.0,14079,11578,9744,33645,29333,3
0.0,0.0,0.0,14079,11553,9733,33542,29304,3
0.0,0.0,0.0,14079,11565,9755,33576,29304,3
0.0,0.0,0.0,14079,11553,9755,33611,29304,3
0.0,0.0,0.0,14064,11565,9755,33611,29333,3
0.0,0.0,0.0,14079,11565,9755,33576,29391,3
0.0,0.0,0.0,14064,11553,9733,33576,29333,3
0.0,0.0,0.0,14108,11553,9755,33576,29304,3
0.0,0.0,0.0,14108,11603,9755,33576,29391,3
0.0,0.0,0.0,14108,11628,9733,33576,29304,3
0.0,0.0,0.0,14108,11628,9755,33576,29333,3
0.0,0.0,0.0,14108,11665,9755,33508,29333,3
0.0,0.0,0.0,14137,11703,9755,33542,29333,3
0.0,0.0,0.0,14122,11741,9777,33508,29245,3
0.0,0.0,0.0,14108,11754,9766,33645,29274,3
0.0,0.0,0.0,14166,11804,9856,33714,29274,3
0.0,0.0,0.0,14137,11842,9867,33611,29274,3
0.0,0.0,0.0,14137,11855,9867,33714,29187,3
