GyroX,GyroY,GyroZ,Thumb,Index,Middle,Ring,Pinky,Gesture
0.0,0.0,0.0,11553,22776,9710,12690,14922,1
0.0,0.0,0.0,11578,22776,9721,12676,14907,1
0.0,0.0,0.0,11553,22754,9733,12663,14907,1
0.0,0.0,0.0,11578,22798,9721,12690,14922,1
0.0,0.0,0.0,11565,22798,9755,12690,14937,1
0.0,0.0,0.0,11590,22754,9721,12703,14967,1
0.0,0.0,0.0,11578,22754,9733,12716,14922,1
0.0,0.0,0.0,11578,22798,9755,12690,14922,1
0.0,0.0,0.0,11578,22754,9733,12703,14967,1
0.0,0.0,0.0,11578,22776,9733,12690,14967,1
0.0,0.0,0.0,11578,22776,9721,12690,14982,1
0.0,0.0,0.0,11590,22754,9733,12716,14937,1
0.0,0.0,0.0,11603,22754,9733,12703,14997,1
0.0,0.0,0.0,11578,22754,9721,12703,14952,1
0.0,0.0,0.0,11615,22599,9733,12743,14997,1
0.0,0.0,0.0,11678,22576,9755,12743,14937,1
0.0,0.0,0.0,11817,22292,9733,12770,15028,1
0.0,0.0,0.0,11906,22075,9733,12797,15028,1
0.0,0.0,0.0,11932,21924,9621,12851,15028,1
0.0,0.0,0.0,11957,21839,9632,12878,15043,1
0.0,0.0,0.0,11983,21796,9632,12905,15043,1
0.0,0.0,0.0,11970,21754,9632,12878,15089,1
0.0,0.0,0.0,12060,21711,9643,12851,15119,1
0.0,0.0,0.0,12009,21711,9632,12864,15150,1
0.0,0.0,0.0,12060,21648,9632,12905,15227,1
0.0,0.0,0.0,12060,21711,9632,12851,15288,1
0.0,0.0,0.0,12021,21754,9643,12864,15350,1
0.0,0.0,0.0,11983,21754,9666,12945,15459,1
0.0,0.0,0.0,12009,21796,9643,12918,15397,1
0.0,0.0,0.0,12009,21796,9643,12905,15288,1
0.0,0.0,0.0,12060,21818,9632,12878,15273,1
0.0,0.0,0.0,12009,21733,9632,12905,15211,1
0.0,0.0,0.0,11957,21711,9643,12918,15211,1
0.0,0.0,0.0,11906,21711,9632,12864,15181,1
0.0,0.0,0.0,11868,21669,9666,12878,15211,1
0.0,0.0,0.0,11855,21669,9643,12905,15242,1
0.0,0.0,0.0,11804,21690,9621,12878,15258,1
0.0,0.0,0.0,11804,21648,9643,12905,15242,1
0.0,0.0,0.0,11779,21627,9632,12905,15288,1
0.0,0.0,0.0,11792,21627,9632,12905,15258,1
0.0,0.0,0.0,11804,21627,9643,12878,15273,1
0.0,0.0,0.0,11779,21584,9643,12905,15288,1
0.0,0.0,0.0,11817,21584,9632,12905,15242,1
0.0,0.0,0.0,11804,21627,9632,12878,15242,1
0.0,0.0,0.0,11804,21563,9632,12864,15273,1
0.0,0.0,0.0,11766,21584,9632,12905,15335,1
0.0,0.0,0.0,11754,21584,9643,12905,15428,1
0.0,0.0,0.0,11754,21584,9643,12905,15428,1
0.0,0.0,0.0,11716,21627,9632,12959,15475,1
0.0,0.0,0.0,11728,21563,9643,12918,15459,1
0.0,0.0,0.0,11703,21563,9643,12918,15521,1
0.0,0.0,0.0,11703,21563,9643,12932,15475,1
0.0,0.0,0.0,11716,21500,9632,12932,15521,1
0.0,0.0,0.0,11703,21584,9632,12932,15459,1
0.0,0.0,0.0,11716,21606,9643,12945,15537,1
0.0,0.0,0.0,11703,21606,9632,12932,15490,1
0.0,0.0,0.0,11703,21584,9643,12959,15521,1
0.0,0.0,0.0,11665,21584,9666,12959,15521,1
0.0,0.0,0.0,11703,21627,9632,12959,15490,1
0.0,0.0,0.0,11678,21584,9643,12959,15553,1
0.0,0.0,0.0,11653,21584,9632,12959,15521,1
0.0,0.0,0.0,11678,21627,9632,12972,15584,1
0.0,0.0,0.0,11653,21584,9632,12972,15521,1
0.0,0.0,0.0,11678,21606,9666,12959,15521,1
0.0,0.0,0.0,11665,21627,9643,12959,15521,1
0.0,0.0,0.0,11653,21627,9643,12972,15521,1
0.0,0.0,0.0,11653,21606,9621,13027,15521,1
0.0,0.0,0.0,11678,21563,9643,13068,15521,1
0.0,0.0,0.0,11665,21584,9632,13054,15553,1
0.0,0.0,0.0,11653,21584,9643,13054,15521,1
0.0,0.0,0.0,11653,21563,9643,13081,15537,1
0.0,0.0,0.0,11628,21627,9666,13040,15521,1
0.0,0.0,0.0,11653,21563,9621,13027,15521,1
0.0,0.0,0.0,11653,21542,9632,13040,15521,1
0.0,0.0,0.0,11640,21606,9643,13054,15553,1
0.0,0.0,0.0,11615,21542,9643,13054,15553,1
0.0,0.0,0.0,11628,21584,9643,13068,15537,1
0.0,0.0,0.0,11628,21542,9632,13040,15490,1
0.0,0.0,0.0,11653,21563,9643,13081,15584,1
0.0,0.0,0.0,11628,21563,9643,13095,15521,1
0.0,0.0,0.0,11628,21563,9643,13081,15537,1
0.0,0.0,0.0,11603,21542,9643,13068,15537,1
0.0,0.0,0.0,11615,21542,9654,13068,15521,1
0.0,0.0,0.0,11615,21542,9654,13054,15521,1
0.0,0.0,0.0,11603,21563,9632,13068,15553,1
0.0,0.0,0.0,11603,21563,9643,13095,15584,1
0.0,0.0,0.0,11603,21542,9643,13081,15553,1
0.0,0.0,0.0,11578,21542,9632,13095,15537,1
0.0,0.0,0.0,11603,21563,9643,13081,15584,1
0.0,0.0,0.0,11603,21458,9643,13095,15584,1
0.0,0.0,0.0,11603,21563,9643,13068,15600,1
0.0,0.0,0.0,11603,21563,9654,13081,15568,1
0.0,0.0,0.0,11578,21542,9621,13081,15553,1
0.0,0.0,0.0,11553,21563,9643,13068,15568,1
0.0,0.0,0.0,11578,21584,9632,13068,15584,1
0.0,0.0,0.0,11603,21542,9643,13081,15553,1
0.0,0.0,0.0,11603,21542,9643,13081,15521,1
0.0,0.0,0.0,11565,21542,9632,13122,15568,1
0.0,0.0,0.0,11578,21563,9666,13122,15584,1
0.0,0.0,0.0,11578,21542,9632,13109,15584,1
0.0,0.0,0.0,11603,21542,9621,13122,15584,1
0.0,0.0,0.0,11603,21542,9643,13095,15584,1
0.0,0.0,0.0,11565,21542,9666,13109,15584,1
0.0,0.0,0.0,11603,21542,9643,13122,15584,1
0.0,0.0,0.0,11565,21542,9643,13122,15615,1
0.0,0.0,0.0,11553,21542,9643,13122,15600,1
0.0,0.0,0.0,11578,21563,9666,13095,15600,1
0.0,0.0,0.0,11565,21584,9654,13122,15584,1
0.0,0.0,0.0,11578,21542,9666,13136,15615,1
0.0,0.0,0.0,11565,21563,9643,13136,15615,1
0.0,0.0,0.0,11603,21542,9632,13122,15647,1
0.0,0.0,0.0,11565,21542,9643,13136,15647,1
0.0,0.0,0.0,11565,21500,9632,13122,15631,1
0.0,0.0,0.0,11565,21563,9643,13177,15615,1
0.0,0.0,0.0,11565,21563,9666,13150,15600,1
0.0,0.0,0.0,11553,21542,9632,13136,15600,1
0.0,0.0,0.0,11553,21542,9677,13177,15600,1
0.0,0.0,0.0,11565,21542,9632,13150,15615,1
0.0,0.0,0.0,11578,21542,9654,13150,15615,1
0.0,0.0,0.0,11590,21542,9643,13177,15631,1
0.0,0.0,0.0,11553,21521,9643,13150,15584,1
0.0,0.0,0.0,11590,21542,9643,13177,15647,1
0.0,0.0,0.0,11603,21542,9632,13177,15615,1
0.0,0.0,0.0,11628,21606,9643,13163,15615,1
0.0,0.0,0.0,11628,21606,9621,13122,15663,1
0.0,0.0,0.0,11603,21711,9666,13177,15553,1
0.0,0.0,0.0,11615,21796,9632,13287,15412,1
0.0,0.0,0.0,11603,21733,9666,13191,15381,1
0.0,0.0,0.0,11628,21818,9666,13068,15288,1
0.0,0.0,0.0,11653,21818,9643,13013,15058,1
0.0,0.0,0.0,11653,22010,9721,12797,14922,1
0.0,0.0,0.0,11615,22140,9721,12690,14801,1
0.0,0.0,0.0,11603,22205,9721,12543,14681,1
0.0,0.0,0.0,11615,22226,9721,12464,14151,1
0.0,0.0,0.0,11628,22335,9733,12293,13538,1
0.0,0.0,0.0,11615,22444,9733,11919,12905,1
0.0,0.0,0.0,11603,22488,9733,11919,12703,1
0.0,0.0,0.0,11628,22754,9710,11881,12543,1
0.0,0.0,0.0,11628,22932,9710,11906,12346,1
0.0,0.0,0.0,11603,22977,9721,11881,12060,1
0.0,0.0,0.0,11628,23044,9733,11817,11957,1
0.0,0.0,0.0,11615,23067,9721,11817,11881,1
0.0,0.0,0.0,11603,23067,9733,11804,11804,1
0.0,0.0,0.0,11628,23067,9710,11779,11754,1
0.0,0.0,0.0,11615,23022,9710,11716,11766,1
0.0,0.0,0.0,11603,22977,9733,11603,11766,1
0.0,0.0,0.0,11603,22887,9721,11416,11766,1
0.0,0.0,0.0,11603,22843,9755,11280,11766,1
0.0,0.0,0.0,11653,22865,9721,11206,11957,1
0.0,0.0,0.0,11678,22754,9744,11060,12099,1
0.0,0.0,0.0,11703,22731,9721,11012,12477,1
0.0,0.0,0.0,11678,22621,9733,11072,12636,1
0.0,0.0,0.0,11703,22488,9733,11109,12703,1
0.0,0.0,0.0,11703,22444,9710,11170,12851,1
0.0,0.0,0.0,11716,22357,9721,11268,13357,1
0.0,0.0,0.0,11766,22226,9733,11292,13863,1
0.0,0.0,0.0,11716,22161,9733,11280,14268,1
0.0,0.0,0.0,11703,22096,9710,11292,14488,1
0.0,0.0,0.0,11716,22053,9710,11255,14922,1
0.0,0.0,0.0,11754,21903,9643,11182,14997,1
0.0,0.0,0.0,11754,21818,9643,11157,14621,1
0.0,0.0,0.0,11792,21796,9643,11157,14488,1
0.0,0.0,0.0,11779,21796,9632,11255,14488,1
0.0,0.0,0.0,11804,21733,9632,11354,14488,1
0.0,0.0,0.0,11766,21796,9632,11503,14666,1
0.0,0.0,0.0,11754,21796,9643,11565,14816,1
0.0,0.0,0.0,11716,21754,9643,11678,14937,1
0.0,0.0,0.0,11754,21796,9643,11766,15058,1
0.0,0.0,0.0,11703,21796,9643,12060,15119,1
0.0,0.0,0.0,11716,21796,9621,12021,15150,1
0.0,0.0,0.0,11716,21796,9643,11970,15135,1
0.0,0.0,0.0,11703,21754,9632,11957,15104,1
0.0,0.0,0.0,11678,21711,9632,11957,15104,1
0.0,0.0,0.0,11691,21711,9643,11957,15119,1
0.0,0.0,0.0,11703,21711,9643,11983,15089,1
0.0,0.0,0.0,11665,21711,9621,11881,14726,1
0.0,0.0,0.0,11653,21775,9632,11703,13964,1
0.0,0.0,0.0,11615,21882,9643,11653,13510,1
0.0,0.0,0.0,11603,21882,9643,11678,13136,1
0.0,0.0,0.0,11603,21882,9632,11578,12959,1
0.0,0.0,0.0,11603,21818,9643,11553,12959,1
0.0,0.0,0.0,11603,21796,9643,11528,13027,1
0.0,0.0,0.0,11565,21796,9632,11553,13027,1
0.0,0.0,0.0,11578,21796,9643,11528,13013,1
0.0,0.0,0.0,11578,21882,9666,11453,13040,1
0.0,0.0,0.0,11553,22096,9721,11366,12918,1
0.0,0.0,0.0,11553,22532,9733,11304,12905,1
0.0,0.0,0.0,11528,22709,9710,11268,12851,1
0.0,0.0,0.0,11553,22754,9721,11206,12905,1
0.0,0.0,0.0,11503,22731,9733,11206,12918,1
0.0,0.0,0.0,11503,22754,9710,11206,12932,1
0.0,0.0,0.0,11503,22709,9721,11194,12905,1
0.0,0.0,0.0,11515,22665,9721,11170,12959,1
0.0,0.0,0.0,11528,22643,9721,11206,12824,1
0.0,0.0,0.0,11528,22665,9733,11219,12663,1
0.0,0.0,0.0,11503,22709,9710,11379,12530,1
0.0,0.0,0.0,11503,22754,9710,11403,12398,1
0.0,0.0,0.0,11490,22798,9721,11416,12424,1
0.0,0.0,0.0,11503,22865,9733,11453,12424,1
0.0,0.0,0.0,11528,22932,9721,11453,12424,1
0.0,0.0,0.0,11528,22932,9733,11503,12346,1
0.0,0.0,0.0,11515,23022,9710,11503,12372,1
0.0,0.0,0.0,11528,22999,9710,11503,12346,1
0.0,0.0,0.0,11528,22843,9733,11528,12398,1
0.0,0.0,0.0,11503,22687,9733,11515,12372,1
0.0,0.0,0.0,11528,22599,9721,11503,12346,1
0.0,0.0,0.0,11553,22532,9721,11478,12346,1
0.0,0.0,0.0,11528,22444,9755,11478,12320,1
0.0,0.0,0.0,11528,22401,9721,11465,12228,1
0.0,0.0,0.0,11553,22335,9744,11453,12293,1
0.0,0.0,0.0,11540,22226,9733,11453,12663,1
0.0,0.0,0.0,11553,22161,9733,11478,12972,1
0.0,0.0,0.0,11553,22010,9733,11453,13552,1
0.0,0.0,0.0,11553,22010,9710,11453,13650,1
0.0,0.0,0.0,11528,22010,9721,11428,13679,1
0.0,0.0,0.0,11528,22010,9721,11403,13849,1
0.0,0.0,0.0,11528,22010,9733,11379,14137,1
0.0,0.0,0.0,11553,22010,9721,11366,14195,1
0.0,0.0,0.0,11578,21946,9632,11354,14282,1
0.0,0.0,0.0,11578,22053,9710,11366,14370,1
0.0,0.0,0.0,11553,21946,9621,11366,14458,1
0.0,0.0,0.0,11565,21967,9643,11428,14562,1
0.0,0.0,0.0,11603,22010,9721,11453,14518,1
0.0,0.0,0.0,11603,22010,9733,11453,14458,1
0.0,0.0,0.0,11578,21882,9643,11453,14385,1
0.0,0.0,0.0,11578,21903,9643,11453,14355,1
0.0,0.0,0.0,11603,21946,9632,11453,14253,1
0.0,0.0,0.0,11578,21882,9643,11453,14253,1
0.0,0.0,0.0,11603,21903,9654,11453,14180,1
0.0,0.0,0.0,11603,21860,9643,11453,14137,1
0.0,0.0,0.0,11615,21796,9643,11440,14166,1
0.0,0.0,0.0,11603,21818,9632,11453,14122,1
0.0,0.0,0.0,11615,21882,9621,11453,14108,1
0.0,0.0,0.0,11628,21818,9632,11403,14050,1
0.0,0.0,0.0,11628,21818,9643,11440,14079,1
0.0,0.0,0.0,11615,21796,9643,11416,14064,1
0.0,0.0,0.0,11603,21796,9643,11416,14064,1
0.0,0.0,0.0,11603,21754,9654,11465,14122,1
0.0,0.0,0.0,11615,21796,9643,11403,14079,1
0.0,0.0,0.0,11603,21818,9632,11403,14093,1
0.0,0.0,0.0,11628,21796,9643,11403,14108,1
0.0,0.0,0.0,11615,21818,9621,11428,14036,1
0.0,0.0,0.0,11628,21754,9643,11416,14050,1
0.0,0.0,0.0,11615,21754,9643,11416,14021,1
0.0,0.0,0.0,11653,21775,9621,11403,14021,1
0.0,0.0,0.0,11653,21775,9621,11403,14036,1
0.0,0.0,0.0,11640,21733,9632,11403,14021,1
0.0,0.0,0.0,11653,21754,9643,11403,13992,1
0.0,0.0,0.0,11653,21754,9632,11403,14021,1
0.0,0.0,0.0,11653,21733,9632,11403,13978,1
0.0,0.0,0.0,11653,21711,9666,11403,13992,1
0.0,0.0,0.0,11653,21754,9632,11428,13906,1
0.0,0.0,0.0,11628,21754,9643,11403,13878,1
0.0,0.0,0.0,11653,21733,9632,11403,13935,1
0.0,0.0,0.0,11653,21733,9643,11416,13992,1
0.0,0.0,0.0,11653,21733,9666,11403,13906,1
0.0,0.0,0.0,11653,21711,9632,11416,13878,1
0.0,0.0,0.0,11653,21669,9643,11428,13906,1
0.0,0.0,0.0,11653,21711,9643,11428,13863,1
0.0,0.0,0.0,11653,21711,9643,11428,13849,1
0.0,0.0,0.0,11653,21711,9632,11416,13849,1
0.0,0.0,0.0,11653,21711,9621,11453,13821,1
0.0,0.0,0.0,11653,21648,9666,11416,13849,1
0.0,0.0,0.0,11653,21669,9632,11453,13863,1
0.0,0.0,0.0,11653,21711,9643,11416,13835,1
0.0,0.0,0.0,11665,21627,9643,11416,13835,1
0.0,0.0,0.0,11653,21669,9643,11428,13821,1
0.0,0.0,0.0,11665,21648,9632,11416,13821,1
0.0,0.0,0.0,11678,21648,9632,11403,13792,1
0.0,0.0,0.0,11653,21627,9654,11440,13778,1
0.0,0.0,0.0,11653,21669,9643,11440,13792,1
0.0,0.0,0.0,11665,21648,9666,11453,13778,1
0.0,0.0,0.0,11653,21627,9643,11428,13792,1
0.0,0.0,0.0,11691,21627,9632,11453,13764,1
0.0,0.0,0.0,11665,21627,9643,11428,13792,1
0.0,0.0,0.0,11703,21669,9643,11440,13749,1
0.0,0.0,0.0,11678,21627,9643,11453,13749,1
0.0,0.0,0.0,11691,21711,9632,11453,13764,1
0.0,0.0,0.0,11665,21627,9621,11453,13735,1
0.0,0.0,0.0,11678,21648,9632,11453,13749,1
0.0,0.0,0.0,11716,21648,9632,11453,13764,1
0.0,0.0,0.0,11678,21648,9621,11453,13735,1
0.0,0.0,0.0,11703,21584,9643,11453,13735,1
0.0,0.0,0.0,11703,21627,9632,11453,13735,1
0.0,0.0,0.0,11678,21627,9643,11453,13735,1
0.0,0.0,0.0,11653,21627,9654,11453,13792,1
0.0,0.0,0.0,11703,21627,9632,11453,13735,1
0.0,0.0,0.0,11703,21627,9643,11453,13749,1
0.0,0.0,0.0,11703,21563,9632,11453,13764,1
0.0,0.0,0.0,11703,21606,9643,11465,13735,1
0.0,0.0,0.0,11703,21627,9643,11453,13735,1
0.0,0.0,0.0,11716,21563,9643,11453,13735,1
0.0,0.0,0.0,11703,21627,9643,11453,13749,1
0.0,0.0,0.0,11716,21606,9643,11428,13721,1
0.0,0.0,0.0,11703,21584,9632,11453,13749,1
0.0,0.0,0.0,11703,21584,9643,11453,13735,1
0.0,0.0,0.0,11703,21627,9632,11453,13735,1
0.0,0.0,0.0,11678,21627,9643,11453,13735,1
0.0,0.0,0.0,11703,21584,9621,11465,13764,1
0.0,0.0,0.0,11703,21542,9643,11453,13735,1
0.0,0.0,0.0,11691,21542,9643,11465,13735,1
0.0,0.0,0.0,11703,21563,9643,11465,13749,1
0.0,0.0,0.0,11716,21542,9666,11453,13707,1
0.0,0.0,0.0,11703,21606,9643,11465,13721,1
0.0,0.0,0.0,11703,21584,9654,11465,13707,1
0.0,0.0,0.0,11703,21563,9643,11453,13707,1
0.0,0.0,0.0,11703,21563,9643,11465,13749,1
0.0,0.0,0.0,11741,21563,9643,11453,13707,1
0.0,0.0,0.0,11716,21563,9621,11453,13735,1
0.0,0.0,0.0,11716,21563,9643,11465,13749,1
0.0,0.0,0.0,11728,21584,9643,11453,13764,1
0.0,0.0,0.0,11716,21542,9621,11465,13735,1
0.0,0.0,0.0,11728,21563,9632,11453,13735,1
0.0,0.0,0.0,11741,21584,9643,11465,13735,1
0.0,0.0,0.0,11728,21584,9632,11453,13735,1
0.0,0.0,0.0,11754,21584,9632,11465,13693,1
0.0,0.0,0.0,11716,21627,9643,11465,13735,1
0.0,0.0,0.0,11716,21542,9643,11465,13735,1
0.0,0.0,0.0,11703,21542,9632,11478,13735,1
0.0,0.0,0.0,11716,21542,9632,11465,13721,1
0.0,0.0,0.0,11728,21521,9643,11478,13735,1
0.0,0.0,0.0,11728,21627,9643,11453,13707,1
0.0,0.0,0.0,11716,21563,9632,11465,13693,1
0.0,0.0,0.0,11703,21627,9643,11490,13749,1
0.0,0.0,0.0,11703,21542,9643,11465,13707,1
0.0,0.0,0.0,11716,21542,9643,11478,13707,1
0.0,0.0,0.0,11716,21563,9643,11478,13707,1
0.0,0.0,0.0,11716,21542,9666,11440,13707,1
0.0,0.0,0.0,11716,21563,9621,11490,13735,1
0.0,0.0,0.0,11754,21500,9632,11478,13707,1
0.0,0.0,0.0,11741,21542,9643,11478,13707,1
0.0,0.0,0.0,11716,21563,9643,11503,13749,1
0.0,0.0,0.0,11766,21542,9643,11478,13721,1
0.0,0.0,0.0,12009,21584,9632,11465,13679,1
0.0,0.0,0.0,12346,21627,9632,11528,13679,1
0.0,0.0,0.0,12676,21690,9643,11553,13707,1
0.0,0.0,0.0,12851,21669,9643,11528,13735,1
0.0,0.0,0.0,13068,21648,9632,11528,13764,1
0.0,0.0,0.0,13191,21648,9643,11528,13792,1
0.0,0.0,0.0,13177,21711,9643,11528,13764,1
0.0,0.0,0.0,13150,21627,9666,11528,13764,1
0.0,0.0,0.0,13218,21627,9666,11528,13792,1
0.0,0.0,0.0,13287,21542,9654,11553,13849,1
0.0,0.0,0.0,13482,21479,9666,11553,13906,1
0.0,0.0,0.0,13650,21584,9710,11553,13863,1
0.0,0.0,0.0,13707,21584,10152,11553,13821,1
0.0,0.0,0.0,14021,21458,10325,11553,13693,1
0.0,0.0,0.0,14458,21375,10418,11565,13636,1
0.0,0.0,0.0,14429,21395,10441,11528,13622,1
0.0,0.0,0.0,14429,21375,10453,11553,13636,1
0.0,0.0,0.0,14503,21416,10464,11553,13636,1
0.0,0.0,0.0,14562,21416,10453,11553,13622,1
0.0,0.0,0.0,14636,21500,10499,11553,13510,1
0.0,0.0,0.0,14696,21648,10676,11716,13454,1
0.0,0.0,0.0,14696,21839,10819,12112,13398,1
0.0,0.0,0.0,14801,21882,10891,12060,13398,1
0.0,0.0,0.0,14846,21946,10903,11983,13371,1
0.0,0.0,0.0,14801,22010,10819,11855,13398,1
0.0,0.0,0.0,14801,21818,10867,11881,13343,1
0.0,0.0,0.0,14786,21796,10831,11817,13398,1
0.0,0.0,0.0,14876,21903,10771,11703,13343,1
0.0,0.0,0.0,14967,21839,10676,11653,13260,1
0.0,0.0,0.0,14967,21882,10629,11603,13274,1
0.0,0.0,0.0,14967,21733,10594,11615,13246,1
0.0,0.0,0.0,14967,21648,10582,11615,13301,1
0.0,0.0,0.0,14967,21627,10582,11603,13232,1
0.0,0.0,0.0,14876,21584,10558,11640,13260,1
0.0,0.0,0.0,14816,21584,10488,11653,13232,1
0.0,0.0,0.0,14801,21542,10464,11653,13218,1
0.0,0.0,0.0,14801,21521,10441,11628,13260,1
0.0,0.0,0.0,14786,21542,10394,11590,13246,1
0.0,0.0,0.0,14741,21395,10394,11553,13301,1
0.0,0.0,0.0,14756,21291,10359,11528,13398,1
0.0,0.0,0.0,14666,21312,10348,11503,13468,1
0.0,0.0,0.0,14666,21291,10301,11515,13679,1
0.0,0.0,0.0,14607,21375,10301,11503,13792,1
0.0,0.0,0.0,14636,21542,10267,11528,13878,1
0.0,0.0,0.0,14621,21584,10244,11540,14209,1
0.0,0.0,0.0,14607,21563,10255,11553,14195,1
0.0,0.0,0.0,14607,21627,10186,11553,14253,1
0.0,0.0,0.0,14666,21584,10129,11553,14341,1
0.0,0.0,0.0,14636,21563,10163,11578,14311,1
0.0,0.0,0.0,14801,21648,10244,11603,14253,1
0.0,0.0,0.0,14967,21542,10371,11653,14209,1
0.0,0.0,0.0,15366,21754,10582,11716,14195,1
0.0,0.0,0.0,15584,21882,10605,11678,14137,1
0.0,0.0,0.0,15726,22096,10535,11653,14050,1
0.0,0.0,0.0,15900,22248,10535,11603,13992,1
0.0,0.0,0.0,15948,22313,10488,11603,13821,1
0.0,0.0,0.0,16093,22379,10464,11553,13764,1
0.0,0.0,0.0,16093,22576,10464,11528,13749,1
0.0,0.0,0.0,16093,22510,10453,11553,13735,1
0.0,0.0,0.0,16060,22444,10488,11540,13707,1
0.0,0.0,0.0,16044,22423,10488,11528,13707,1
0.0,0.0,0.0,16060,22466,10488,11503,13679,1
0.0,0.0,0.0,15964,22335,10453,11503,13679,1
0.0,0.0,0.0,15932,22357,10464,11528,13679,1
0.0,0.0,0.0,15837,22248,10488,11515,13679,1
0.0,0.0,0.0,15789,22248,10488,11465,13679,1
0.0,0.0,0.0,15773,22226,10488,11528,13622,1
0.0,0.0,0.0,15741,22226,10488,11503,13650,1
0.0,0.0,0.0,15710,22226,10488,11528,13679,1
0.0,0.0,0.0,15678,22183,10488,11528,13650,1
0.0,0.0,0.0,15647,22248,10488,11528,13650,1
0.0,0.0,0.0,15647,22205,10499,11528,13650,1
0.0,0.0,0.0,15615,22140,10488,11515,13636,1
0.0,0.0,0.0,15647,22161,10511,11503,13679,1
0.0,0.0,0.0,15663,22226,10499,11503,13622,1
0.0,0.0,0.0,15710,22248,10511,11515,13622,1
0.0,0.0,0.0,15710,22313,10535,11503,13622,1
0.0,0.0,0.0,15615,22444,10546,11528,13622,1
0.0,0.0,0.0,15521,22423,10535,11515,13580,1
0.0,0.0,0.0,15459,22357,10535,11515,13580,1
0.0,0.0,0.0,15459,22357,10546,11515,13580,1
0.0,0.0,0.0,15428,22270,10546,11515,13566,1
0.0,0.0,0.0,15397,22248,10535,11528,13580,1
0.0,0.0,0.0,15428,22292,10558,11528,13622,1
0.0,0.0,0.0,15397,22226,10535,11528,13580,1
0.0,0.0,0.0,15397,22270,10546,11503,13566,1
0.0,0.0,0.0,15397,22248,10546,11528,13566,1
0.0,0.0,0.0,15335,22183,10570,11503,13580,1
0.0,0.0,0.0,15397,22248,10546,11503,13566,1
0.0,0.0,0.0,15428,22270,10570,11503,13566,1
0.0,0.0,0.0,15397,22313,10582,11503,13580,1
0.0,0.0,0.0,15397,22248,10582,11528,13580,1
0.0,0.0,0.0,15350,22226,10582,11528,13622,1
0.0,0.0,0.0,15366,22226,10582,11515,13580,1
0.0,0.0,0.0,15335,22226,10582,11528,13622,1
0.0,0.0,0.0,15335,22226,10582,11528,13566,1
0.0,0.0,0.0,15335,22205,10582,11515,13580,1
0.0,0.0,0.0,15366,22183,10594,11528,13538,1
0.0,0.0,0.0,15335,22205,10594,11578,13566,1
0.0,0.0,0.0,15428,22270,10582,11515,13566,1
0.0,0.0,0.0,15490,22313,10605,11528,13566,1
0.0,0.0,0.0,15521,22357,10629,11528,13594,1
0.0,0.0,0.0,15584,22576,10605,11553,13566,1
0.0,0.0,0.0,15663,22599,10629,11540,13580,1
0.0,0.0,0.0,15600,22576,10629,11553,13566,1
0.0,0.0,0.0,15584,22599,10629,11553,13580,1
0.0,0.0,0.0,15600,22554,10605,11553,13594,1
0.0,0.0,0.0,15490,22379,10629,11553,13622,1
0.0,0.0,0.0,15412,22313,10629,11503,13622,1
0.0,0.0,0.0,15459,22357,10629,11528,13538,1
0.0,0.0,0.0,15475,22270,10641,11528,13566,1
0.0,0.0,0.0,15475,22270,10629,11528,13566,1
0.0,0.0,0.0,15459,22226,10629,11528,13622,1
0.0,0.0,0.0,15428,22183,10641,11553,13594,1
0.0,0.0,0.0,15428,22183,10629,11553,13622,1
0.0,0.0,0.0,15459,22075,10641,11528,13580,1
0.0,0.0,0.0,15537,22010,10641,11553,13594,1
0.0,0.0,0.0,15996,21754,10700,11540,13580,1
0.0,0.0,0.0,16303,21479,10700,11540,13608,1
0.0,0.0,0.0,16157,21208,10700,11528,13566,1
0.0,0.0,0.0,15996,21043,10700,11515,13594,1
0.0,0.0,0.0,15710,20920,10724,11515,13552,1
0.0,0.0,0.0,15459,20818,10724,11528,13566,1
0.0,0.0,0.0,15211,20757,10748,11503,13566,1
0.0,0.0,0.0,14846,20656,10748,11515,13524,1
0.0,0.0,0.0,14666,20716,10748,11515,13524,1
0.0,0.0,0.0,14444,20676,10748,11515,13468,1
0.0,0.0,0.0,14282,20595,10748,11515,13566,1
0.0,0.0,0.0,14224,20595,10748,11503,13510,1
0.0,0.0,0.0,14209,20636,10748,11528,13510,1
0.0,0.0,0.0,14224,20615,10748,11515,13510,1
0.0,0.0,0.0,14137,20575,10748,11503,13538,1
0.0,0.0,0.0,14050,20575,10771,11528,13538,1
0.0,0.0,0.0,13992,20575,10748,11503,13524,1
0.0,0.0,0.0,13906,20555,10748,11528,13524,1
0.0,0.0,0.0,13849,20555,10771,11528,13510,1
0.0,0.0,0.0,13749,20575,10748,11503,13566,1
0.0,0.0,0.0,13735,20555,10759,11515,13524,1
0.0,0.0,0.0,13735,20595,10748,11503,13510,1
0.0,0.0,0.0,13707,20495,10748,11515,13510,1
0.0,0.0,0.0,13622,20555,10748,11515,13510,1
0.0,0.0,0.0,13524,20475,10748,11503,13510,1
0.0,0.0,0.0,13454,20455,10748,11503,13510,1
0.0,0.0,0.0,13343,20515,10748,11515,13510,1
0.0,0.0,0.0,13343,20515,10748,11503,13524,1
0.0,0.0,0.0,13301,20555,10724,11503,13510,1
0.0,0.0,0.0,13260,20555,10748,11528,13510,1
0.0,0.0,0.0,13232,20555,10736,11515,13510,1
0.0,0.0,0.0,13177,20636,10700,11528,13482,1
0.0,0.0,0.0,13095,20676,10724,11503,13482,1
0.0,0.0,0.0,13054,20676,10724,11503,13454,1
0.0,0.0,0.0,13013,20757,10724,11515,13510,1
0.0,0.0,0.0,12972,20716,10724,11490,13510,1
0.0,0.0,0.0,12932,20838,10724,11515,13496,1
0.0,0.0,0.0,12905,20899,10724,11503,13496,1
0.0,0.0,0.0,12959,20899,10724,11503,13468,1
0.0,0.0,0.0,13013,20961,10724,11503,13482,1
0.0,0.0,0.0,12945,20899,10724,11503,13454,1
0.0,0.0,0.0,12905,21002,10712,11528,13454,1
0.0,0.0,0.0,12891,21043,10724,11515,13468,1
0.0,0.0,0.0,12851,21043,10748,11503,13412,1
0.0,0.0,0.0,12824,21043,10748,11503,13454,1
0.0,0.0,0.0,12851,21064,10748,11515,13426,1
0.0,0.0,0.0,12851,21043,10748,11528,13454,1
0.0,0.0,0.0,12824,21043,10748,11515,13454,1
0.0,0.0,0.0,12837,21043,10748,11503,13426,1
0.0,0.0,0.0,12797,21064,10771,11503,13412,1
0.0,0.0,0.0,12797,21084,10855,11503,13398,1
0.0,0.0,0.0,12756,21084,10867,11503,13426,1
0.0,0.0,0.0,12810,21084,10927,11503,13412,1
0.0,0.0,0.0,12824,21125,10939,11515,13398,1
0.0,0.0,0.0,12824,21125,10987,11503,13398,1
0.0,0.0,0.0,12851,21064,11060,11528,13398,1
0.0,0.0,0.0,12824,21064,11060,11528,13371,1
0.0,0.0,0.0,12824,21002,11096,11503,13384,1
0.0,0.0,0.0,12824,21043,11109,11515,13398,1
0.0,0.0,0.0,12837,21043,11157,11515,13398,1
0.0,0.0,0.0,12851,21002,11255,11503,13384,1
0.0,0.0,0.0,12797,21043,11206,11503,13343,1
0.0,0.0,0.0,12797,21187,11072,11503,13315,1
0.0,0.0,0.0,12797,21208,11060,11528,13287,1
0.0,0.0,0.0,12716,21208,10987,11503,13287,1
0.0,0.0,0.0,12690,21125,10951,11503,13260,1
0.0,0.0,0.0,12743,21146,10867,11503,13301,1
0.0,0.0,0.0,12703,21064,10771,11503,13260,1
0.0,0.0,0.0,12690,21043,10724,11503,13232,1
0.0,0.0,0.0,12756,21022,10617,11515,13232,1
0.0,0.0,0.0,12770,20981,10488,11453,13177,1
0.0,0.0,0.0,12756,20899,10325,11428,13136,1
0.0,0.0,0.0,12690,20899,10186,11379,13122,1
0.0,0.0,0.0,12690,20920,10117,11366,13068,1
0.0,0.0,0.0,12690,20961,10083,11354,13081,1
0.0,0.0,0.0,12649,20838,10117,11354,13068,1
0.0,0.0,0.0,12610,20818,10221,11329,13068,1
0.0,0.0,0.0,12583,20798,10244,11354,13054,1
0.0,0.0,0.0,12530,20757,10209,11354,13068,1
0.0,0.0,0.0,12504,20818,9946,11317,13013,1
0.0,0.0,0.0,12477,20818,9677,11304,12999,1
0.0,0.0,0.0,12451,20818,9666,11304,12959,1
0.0,0.0,0.0,12438,20757,9632,11268,12851,1
0.0,0.0,0.0,12424,20737,9643,11280,12703,1
0.0,0.0,0.0,12424,20757,9643,11255,12690,1
0.0,0.0,0.0,12372,20716,9643,11231,12743,1
0.0,0.0,0.0,12385,20737,9632,11182,12716,1
0.0,0.0,0.0,12346,20716,9632,11157,12649,1
0.0,0.0,0.0,12346,20737,9643,11170,12636,1
0.0,0.0,0.0,12320,20818,9632,11133,12649,1
0.0,0.0,0.0,12346,20818,9632,11109,12583,1
0.0,0.0,0.0,12320,20879,9643,11012,12543,1
0.0,0.0,0.0,12320,20920,9654,10915,12477,1
0.0,0.0,0.0,12267,21043,9643,10867,12451,1
0.0,0.0,0.0,12267,21084,9643,10783,12424,1
0.0,0.0,0.0,12241,21105,9643,10748,12424,1
0.0,0.0,0.0,12267,21208,9643,10724,12346,1
0.0,0.0,0.0,12228,21333,9632,10700,12293,1
0.0,0.0,0.0,12228,21312,9621,10676,12293,1
0.0,0.0,0.0,12189,21312,9643,10676,12333,1
0.0,0.0,0.0,12176,21416,9643,10676,12293,1
0.0,0.0,0.0,12202,21500,9632,10676,12293,1
0.0,0.0,0.0,12163,21458,9643,10676,12280,1
0.0,0.0,0.0,12189,21416,9666,10676,12280,1
0.0,0.0,0.0,12189,21333,9632,10676,12280,1
0.0,0.0,0.0,12163,21208,9643,10641,12320,1
0.0,0.0,0.0,12137,21229,9632,10676,12293,1
0.0,0.0,0.0,12124,21064,9643,10653,12280,1
0.0,0.0,0.0,12112,21064,9643,10676,12346,1
0.0,0.0,0.0,12112,21084,9643,10724,12451,1
0.0,0.0,0.0,12124,21125,9643,10748,12543,1
0.0,0.0,0.0,12086,21146,9643,10771,12543,1
0.0,0.0,0.0,12073,21146,9666,10771,12517,1
0.0,0.0,0.0,12086,21187,9632,10795,12504,1
0.0,0.0,0.0,12060,21208,9632,10771,12477,1
0.0,0.0,0.0,12060,21208,9632,10771,12451,1
0.0,0.0,0.0,12060,21105,9643,10771,12530,1
0.0,0.0,0.0,12060,21043,9643,10771,12556,1
0.0,0.0,0.0,12060,21043,9643,10771,12636,1
0.0,0.0,0.0,12073,21105,9643,10771,12636,1
0.0,0.0,0.0,12060,21125,9643,10843,12636,1
0.0,0.0,0.0,12060,21146,9621,10819,12636,1
0.0,0.0,0.0,12073,21125,9643,10819,12649,1
0.0,0.0,0.0,12112,21064,9632,10819,12649,1
0.0,0.0,0.0,12163,21022,9632,10867,12690,1
0.0,0.0,0.0,12163,20961,9666,10939,12676,1
0.0,0.0,0.0,12176,20961,9643,11012,12743,1
0.0,0.0,0.0,12176,20818,9643,11024,12743,1
0.0,0.0,0.0,12215,20859,9632,11012,12783,1
0.0,0.0,0.0,12215,20859,9621,11012,12716,1
0.0,0.0,0.0,12163,20818,9621,10987,12716,1
0.0,0.0,0.0,12163,20777,9666,10963,12730,1
0.0,0.0,0.0,12137,20818,9643,10831,12636,1
0.0,0.0,0.0,12086,20981,9632,10783,12583,1
0.0,0.0,0.0,12060,21043,9654,10748,12583,1
0.0,0.0,0.0,12073,21187,9643,10676,12504,1
0.0,0.0,0.0,12086,21458,9643,10629,12530,1
0.0,0.0,0.0,12124,21648,9666,10629,12543,1
0.0,0.0,0.0,12112,21818,9643,10629,12504,1
0.0,0.0,0.0,12112,21903,9621,10629,12451,1
0.0,0.0,0.0,12163,22010,9733,10629,12490,1
0.0,0.0,0.0,12241,22270,9721,10688,12649,1
0.0,0.0,0.0,12267,22292,9733,10748,12690,1
0.0,0.0,0.0,12293,22270,9721,10771,12797,1
0.0,0.0,0.0,12320,22270,9733,10771,12905,1
0.0,0.0,0.0,12346,22335,9721,10891,13068,1
0.0,0.0,0.0,12385,22401,9710,11012,13329,1
0.0,0.0,0.0,12490,22423,9733,11304,14050,1
0.0,0.0,0.0,12504,22510,9755,11640,14907,1
0.0,0.0,0.0,12530,22488,10003,11970,15521,1
0.0,0.0,0.0,12530,22488,10140,12073,15568,1
0.0,0.0,0.0,12543,22510,10140,12099,15459,1
0.0,0.0,0.0,12596,22488,10140,12099,15475,1
0.0,0.0,0.0,12663,22599,10232,12215,15773,1
0.0,0.0,0.0,12636,22488,10209,12267,15647,1
0.0,0.0,0.0,12649,22532,10255,12398,15837,1
0.0,0.0,0.0,12649,22488,10278,12385,15837,1
0.0,0.0,0.0,12690,22488,10255,12411,15789,1
0.0,0.0,0.0,12730,22554,10301,12438,16028,1
0.0,0.0,0.0,12743,22423,10394,12424,15964,1
0.0,0.0,0.0,12690,22401,10418,12411,15837,1
0.0,0.0,0.0,12756,22444,10453,12372,15852,1
0.0,0.0,0.0,12743,22444,10488,12320,15821,1
0.0,0.0,0.0,12743,22423,10476,12320,15710,1
0.0,0.0,0.0,12703,22401,10418,12163,15568,1
0.0,0.0,0.0,12716,22313,10394,12176,15600,1
0.0,0.0,0.0,12770,22313,10394,12202,15615,1
0.0,0.0,0.0,12770,22248,10394,12215,15428,1
0.0,0.0,0.0,12756,22248,10394,12189,15366,1
0.0,0.0,0.0,12824,22248,10406,12112,15397,1
0.0,0.0,0.0,12810,22183,10418,12060,15242,1
0.0,0.0,0.0,12824,22053,10394,11932,15028,1
0.0,0.0,0.0,12797,21967,10394,11881,14967,1
0.0,0.0,0.0,12797,21796,10221,11716,14681,1
0.0,0.0,0.0,12743,21669,10106,11615,14488,1
0.0,0.0,0.0,12743,21542,9958,11553,14326,1
0.0,0.0,0.0,12730,21500,9935,11528,14311,1
0.0,0.0,0.0,12690,21416,10129,11565,14282,1
0.0,0.0,0.0,12676,21521,10301,11754,14341,1
0.0,0.0,0.0,12690,21458,10394,11932,14429,1
0.0,0.0,0.0,12649,21584,10453,12073,14607,1
0.0,0.0,0.0,12703,21711,10511,12424,15165,1
0.0,0.0,0.0,12690,21690,10546,12477,15211,1
0.0,0.0,0.0,12703,21733,10546,12438,15089,1
0.0,0.0,0.0,12690,21796,10546,12372,15119,1
0.0,0.0,0.0,12703,21882,10570,12372,15089,1
0.0,0.0,0.0,12743,21903,10546,12189,15058,1
0.0,0.0,0.0,12797,21903,10371,11628,14801,1
0.0,0.0,0.0,12797,21924,10359,11615,14786,1
0.0,0.0,0.0,12756,21882,10359,11603,14726,1
0.0,0.0,0.0,12743,21882,10371,11603,14741,1
0.0,0.0,0.0,12756,22010,10394,11603,14726,1
0.0,0.0,0.0,12797,21903,10359,11578,14711,1
0.0,0.0,0.0,12743,21903,10371,11578,14666,1
0.0,0.0,0.0,12797,21903,10348,11553,14696,1
0.0,0.0,0.0,12797,21882,10348,11503,14726,1
0.0,0.0,0.0,12770,21839,10325,11515,14651,1
0.0,0.0,0.0,12797,21860,10325,11503,14636,1
0.0,0.0,0.0,12756,21882,10325,11503,14681,1
0.0,0.0,0.0,12770,21882,10348,11503,14562,1
0.0,0.0,0.0,12770,21882,10371,11528,14547,1
0.0,0.0,0.0,12770,21860,10348,11503,14607,1
0.0,0.0,0.0,12770,21882,10348,11503,14577,1
0.0,0.0,0.0,12783,21818,10348,11503,14518,1
0.0,0.0,0.0,12756,21796,10325,11503,14503,1
0.0,0.0,0.0,12756,21818,10348,11503,14488,1
0.0,0.0,0.0,12810,21818,10348,11490,14458,1
0.0,0.0,0.0,12797,21711,10348,11503,14458,1
0.0,0.0,0.0,12797,21711,10371,11503,14444,1
0.0,0.0,0.0,12797,21711,10348,11478,14577,1
0.0,0.0,0.0,12797,21711,10336,11478,14621,1
0.0,0.0,0.0,12743,21711,10301,11403,14444,1
0.0,0.0,0.0,12797,21754,10301,11403,14429,1
0.0,0.0,0.0,12770,21796,10301,11366,14399,1
0.0,0.0,0.0,12756,21796,10301,11403,14458,1
0.0,0.0,0.0,12743,21818,10313,11366,14399,1
0.0,0.0,0.0,12756,21733,10301,11366,14429,1
0.0,0.0,0.0,12743,21733,10313,11366,14414,1
0.0,0.0,0.0,12756,21796,10301,11379,14399,1
0.0,0.0,0.0,12756,21818,10313,11354,14458,1
0.0,0.0,0.0,12743,21754,10301,11354,14488,1
0.0,0.0,0.0,12770,21690,10301,11379,14458,1
0.0,0.0,0.0,12851,21542,10313,11379,14414,1
0.0,0.0,0.0,12851,21500,10301,11354,14429,1
0.0,0.0,0.0,12864,21458,10301,11366,14341,1
0.0,0.0,0.0,12851,21542,10301,11354,14370,1
0.0,0.0,0.0,12851,21479,10325,11379,14385,1
0.0,0.0,0.0,12959,21796,10348,11354,13935,1
0.0,0.0,0.0,13081,22010,10418,11329,13906,1
0.0,0.0,0.0,13136,22032,10429,11304,13849,1
0.0,0.0,0.0,13136,22010,10394,11219,13821,1
0.0,0.0,0.0,13177,22096,10383,11170,13735,1
0.0,0.0,0.0,13150,22205,10359,11109,13735,1
0.0,0.0,0.0,13177,22313,10325,11060,13650,1
0.0,0.0,0.0,13136,22313,10301,11060,13622,1
0.0,0.0,0.0,13122,22270,10313,11060,13608,1
0.0,0.0,0.0,13109,22313,10301,11012,13510,1
0.0,0.0,0.0,13027,22576,10244,10975,13398,1
0.0,0.0,0.0,13013,22576,10209,10963,13398,1
0.0,0.0,0.0,13013,22599,10163,10939,13398,1
0.0,0.0,0.0,13040,22621,10117,10963,13398,1
0.0,0.0,0.0,13027,22576,10071,10963,13343,1
0.0,0.0,0.0,13027,22532,10071,10963,13398,1
0.0,0.0,0.0,13013,22510,10071,10963,13398,1
0.0,0.0,0.0,13027,22532,10071,10963,13398,1
0.0,0.0,0.0,13013,22510,10071,10963,13426,1
0.0,0.0,0.0,13013,22488,10049,10963,13482,1
0.0,0.0,0.0,13013,22532,10026,10975,13510,1
0.0,0.0,0.0,13027,22554,10106,11036,13650,1
0.0,0.0,0.0,13013,22488,10117,11109,13921,1
0.0,0.0,0.0,13040,22576,10117,11182,13935,1
0.0,0.0,0.0,13068,22599,10071,11206,13964,1
0.0,0.0,0.0,13068,22621,10049,11255,14036,1
0.0,0.0,0.0,13095,22687,10049,11478,14021,1
0.0,0.0,0.0,13122,22754,10026,11754,13992,1
0.0,0.0,0.0,13122,22576,10026,11754,13992,1
0.0,0.0,0.0,13081,22554,9980,11603,14093,1
0.0,0.0,0.0,13095,22510,9980,11603,14282,1
0.0,0.0,0.0,13109,22444,10026,11553,14311,1
0.0,0.0,0.0,13122,22466,9992,11503,14326,1
0.0,0.0,0.0,13122,22401,10003,11553,14326,1
0.0,0.0,0.0,13095,22488,10003,11528,14253,1
0.0,0.0,0.0,13122,22423,9980,11515,14488,1
0.0,0.0,0.0,13150,22488,10152,11503,14607,1
0.0,0.0,0.0,13136,22401,10278,11603,14166,1
0.0,0.0,0.0,13122,22357,10348,11603,14021,1
0.0,0.0,0.0,13177,22401,10348,11603,14108,1
0.0,0.0,0.0,13136,22401,10371,11603,14137,1
0.0,0.0,0.0,13150,22357,10441,11578,14050,1
0.0,0.0,0.0,13136,22379,10441,11578,13964,1
0.0,0.0,0.0,13150,22379,10441,11553,13964,1
0.0,0.0,0.0,13191,22313,10476,11565,14021,1
0.0,0.0,0.0,13246,22313,10488,11603,14036,1
0.0,0.0,0.0,13287,22292,10535,11653,14064,1
0.0,0.0,0.0,13315,22270,10535,11728,14122,1
0.0,0.0,0.0,13287,22226,10535,11766,14282,1
0.0,0.0,0.0,13287,22270,10535,11817,14577,1
0.0,0.0,0.0,13287,22226,10511,11855,14967,1
0.0,0.0,0.0,13287,22313,10488,11983,15584,1
0.0,0.0,0.0,13315,22313,10464,12099,16076,1
0.0,0.0,0.0,13343,22313,10464,12189,16319,1
0.0,0.0,0.0,13315,22335,10441,12189,16319,1
0.0,0.0,0.0,13343,22270,10441,12228,16483,1
0.0,0.0,0.0,13357,22357,10394,12060,16565,1
0.0,0.0,0.0,13343,22313,10371,12086,16516,1
0.0,0.0,0.0,13343,22270,10359,12034,16549,1
0.0,0.0,0.0,13343,22270,10325,12060,16549,1
0.0,0.0,0.0,13315,22313,10301,12034,16385,1
0.0,0.0,0.0,13343,22270,10301,12021,16157,1
0.0,0.0,0.0,13343,22248,10255,11957,16012,1
0.0,0.0,0.0,13343,22313,10209,11957,15900,1
0.0,0.0,0.0,13287,22313,10094,11957,15916,1
0.0,0.0,0.0,13287,22401,9946,11881,15837,1
0.0,0.0,0.0,13301,22401,9890,11855,15615,1
0.0,0.0,0.0,13315,22488,9800,11716,15428,1
0.0,0.0,0.0,13287,22466,9755,11703,15412,1
0.0,0.0,0.0,13232,22510,9755,11653,15242,1
0.0,0.0,0.0,13260,22532,9721,11478,14937,1
0.0,0.0,0.0,13246,22510,9733,11416,14741,1
0.0,0.0,0.0,13246,22510,9733,11403,14741,1
0.0,0.0,0.0,13274,22488,9744,11403,14666,1
0.0,0.0,0.0,13232,22444,9733,11354,14547,1
0.0,0.0,0.0,13246,22488,9755,11304,14429,1
0.0,0.0,0.0,13260,22532,9721,11317,14458,1
0.0,0.0,0.0,13232,22466,9721,11304,14458,1
0.0,0.0,0.0,13260,22488,9721,11280,14444,1
0.0,0.0,0.0,13287,22532,9721,11255,14385,1
0.0,0.0,0.0,13315,22554,9744,11194,13964,1
0.0,0.0,0.0,13274,22510,9721,11109,13749,1
0.0,0.0,0.0,13287,22532,9733,11060,13524,1
0.0,0.0,0.0,13246,22576,9721,10999,13357,1
0.0,0.0,0.0,13205,22576,9733,10939,13191,1
0.0,0.0,0.0,13232,22576,9733,10915,13109,1
0.0,0.0,0.0,13122,22532,9733,10867,13013,1
0.0,0.0,0.0,13109,22576,9721,10819,12797,1
0.0,0.0,0.0,13040,22488,9721,10771,12730,1
0.0,0.0,0.0,13027,22510,9710,10748,12690,1
0.0,0.0,0.0,12959,22532,9733,10748,12663,1
0.0,0.0,0.0,12972,22510,9721,10748,12623,1
0.0,0.0,0.0,12905,22554,9744,10724,12583,1
0.0,0.0,0.0,12932,22510,9733,10724,12596,1
0.0,0.0,0.0,12905,22554,9733,10700,12583,1
0.0,0.0,0.0,12891,22554,9733,10724,12583,1
0.0,0.0,0.0,12864,22576,9710,10712,12556,1
0.0,0.0,0.0,12743,22665,9733,10688,12596,1
0.0,0.0,0.0,12649,22665,9755,10700,12583,1
0.0,0.0,0.0,12636,22576,9733,10700,12583,1
0.0,0.0,0.0,12636,22510,9733,10676,12596,1
0.0,0.0,0.0,12636,22510,9755,10688,12583,1
0.0,0.0,0.0,12649,22466,9710,10688,12636,1
0.0,0.0,0.0,12663,22401,9721,10688,12636,1
0.0,0.0,0.0,12649,22401,9733,10688,12636,1
0.0,0.0,0.0,12636,22401,9733,10700,12636,1
0.0,0.0,0.0,12636,22313,9733,10688,12649,1
0.0,0.0,0.0,12649,22313,9733,10688,12663,1
0.0,0.0,0.0,12716,22270,9721,10724,12663,1
0.0,0.0,0.0,12864,21903,9632,10748,12703,1
0.0,0.0,0.0,12959,21375,9632,10819,12797,1
0.0,0.0,0.0,12959,21084,9643,10939,12851,1
0.0,0.0,0.0,12945,20879,9643,10963,12824,1
0.0,0.0,0.0,12905,20757,9666,10939,12810,1
0.0,0.0,0.0,12905,20696,9632,10939,12824,1
0.0,0.0,0.0,12905,20716,9643,10963,12797,1
0.0,0.0,0.0,12905,20716,9654,10963,12797,1
0.0,0.0,0.0,12905,20656,9632,10927,12824,1
0.0,0.0,0.0,12810,20676,9632,10963,12810,1
0.0,0.0,0.0,12743,20920,9654,10939,12797,1
0.0,0.0,0.0,12770,21711,9632,10927,12797,1
0.0,0.0,0.0,12743,22226,9733,10915,12797,1
0.0,0.0,0.0,12716,22357,9721,10879,12756,1
0.0,0.0,0.0,12743,22488,9721,10867,12770,1
0.0,0.0,0.0,12716,22576,9733,10831,12703,1
0.0,0.0,0.0,12716,22665,9721,10819,12703,1
0.0,0.0,0.0,12690,22665,9721,10819,12690,1
0.0,0.0,0.0,12690,22444,9721,10819,12743,1
0.0,0.0,0.0,12864,22096,9733,10795,12663,1
0.0,0.0,0.0,13122,21733,9632,10819,12716,1
0.0,0.0,0.0,13205,21437,9632,10819,12743,1
0.0,0.0,0.0,13246,21333,9621,10819,12716,1
0.0,0.0,0.0,13068,21250,9643,10831,12716,1
0.0,0.0,0.0,12918,21167,9643,10831,12690,1
0.0,0.0,0.0,12703,21043,9643,10819,12690,1
0.0,0.0,0.0,12477,20981,9643,10819,12690,1
0.0,0.0,0.0,12346,20961,9643,10831,12716,1
0.0,0.0,0.0,12267,20940,9632,10819,12690,1
0.0,0.0,0.0,12189,20899,9654,10831,12716,1
0.0,0.0,0.0,12112,20920,9643,10819,12716,1
0.0,0.0,0.0,11855,21002,9643,10819,12690,1
0.0,0.0,0.0,11640,21084,9632,10819,12743,1
0.0,0.0,0.0,11565,21146,9643,10819,12703,1
0.0,0.0,0.0,11553,21043,9643,10807,12690,1
0.0,0.0,0.0,11490,21146,9643,10819,12703,1
0.0,0.0,0.0,11453,21250,9643,10819,12743,1
0.0,0.0,0.0,11553,21375,9632,10819,12716,1
0.0,0.0,0.0,11868,21584,9666,10819,12703,1
0.0,0.0,0.0,12293,21818,9632,10831,12690,1
0.0,0.0,0.0,12451,21796,9632,10831,12797,1
0.0,0.0,0.0,12543,21627,9643,10963,12851,1
0.0,0.0,0.0,12504,21229,9654,11012,12891,1
0.0,0.0,0.0,12504,21043,9643,11024,12824,1
0.0,0.0,0.0,12477,20961,9643,10999,12851,1
0.0,0.0,0.0,12424,20961,9643,11012,12824,1
0.0,0.0,0.0,12424,20961,9632,11012,12824,1
0.0,0.0,0.0,12398,20899,9643,11012,12851,1
0.0,0.0,0.0,12385,20859,9643,10975,12824,1
0.0,0.0,0.0,12372,20716,9632,10987,12797,1
0.0,0.0,0.0,12424,20636,9632,10987,12810,1
0.0,0.0,0.0,12477,20615,9643,10975,12797,1
0.0,0.0,0.0,12530,20555,9632,10963,12797,1
0.0,0.0,0.0,12530,20535,9643,11012,12797,1
0.0,0.0,0.0,12530,20555,9621,10987,12797,1
0.0,0.0,0.0,12543,20495,9643,10987,12810,1
0.0,0.0,0.0,12596,20475,9643,10999,12797,1
0.0,0.0,0.0,12583,20435,9621,10987,12797,1
0.0,0.0,0.0,12543,20415,9643,10987,12797,1
0.0,0.0,0.0,12438,20475,9643,10987,12797,1
0.0,0.0,0.0,12372,20415,9643,11012,12797,1
0.0,0.0,0.0,12320,20395,9643,11024,12730,1
0.0,0.0,0.0,12241,20275,9632,11012,12743,1
0.0,0.0,0.0,12215,20236,9621,11036,12797,1
0.0,0.0,0.0,12124,20196,9643,11024,12783,1
0.0,0.0,0.0,12124,20196,9643,11012,12756,1
0.0,0.0,0.0,12060,20157,9654,11036,12743,1
0.0,0.0,0.0,12034,20157,9677,11060,12770,1
0.0,0.0,0.0,12009,20098,9733,11060,12797,1
0.0,0.0,0.0,11983,20078,9777,11048,12743,1
0.0,0.0,0.0,11970,20117,9800,11060,12770,1
0.0,0.0,0.0,11881,20176,9777,11036,12770,1
0.0,0.0,0.0,11855,20236,9766,11012,12770,1
0.0,0.0,0.0,11855,20315,9744,11012,12756,1
0.0,0.0,0.0,11830,20315,9721,11036,12810,1
0.0,0.0,0.0,11881,20157,9912,11012,12797,1
0.0,0.0,0.0,11906,20137,10071,11036,12797,1
0.0,0.0,0.0,11868,20058,10071,11036,12797,1
0.0,0.0,0.0,11830,20019,10037,11036,12756,1
0.0,0.0,0.0,11779,20039,9958,11048,12851,1
0.0,0.0,0.0,11691,20236,9890,11304,14151,1
0.0,0.0,0.0,11703,20256,9755,11453,14108,1
0.0,0.0,0.0,11703,20236,9688,11391,13992,1
0.0,0.0,0.0,11678,20395,9666,11403,13978,1
0.0,0.0,0.0,11691,20555,9666,11503,14429,1
0.0,0.0,0.0,11754,20636,9666,11804,14666,1
0.0,0.0,0.0,11817,20716,9643,12124,14651,1
0.0,0.0,0.0,11804,20656,9643,12267,14861,1
0.0,0.0,0.0,11855,20716,9643,12293,15089,1
0.0,0.0,0.0,11855,20879,9632,12372,14846,1
0.0,0.0,0.0,11906,20879,9632,12372,14429,1
0.0,0.0,0.0,11906,20859,9643,12163,13849,1
0.0,0.0,0.0,11970,20920,9643,11817,13594,1
0.0,0.0,0.0,11957,20920,9666,11665,13412,1
0.0,0.0,0.0,11957,20981,9643,11578,13205,1
0.0,0.0,0.0,11957,21043,9632,11553,13081,1
0.0,0.0,0.0,11983,21125,9632,11503,12999,1
0.0,0.0,0.0,11983,21043,9643,11416,12959,1
0.0,0.0,0.0,11970,21146,9643,11304,12905,1
0.0,0.0,0.0,11983,21084,9654,11268,12905,1
0.0,0.0,0.0,12009,21064,9643,11268,13027,1
0.0,0.0,0.0,12009,21105,9643,11255,12999,1
0.0,0.0,0.0,12009,21146,9643,11231,13027,1
0.0,0.0,0.0,12034,21125,9643,11219,13013,1
0.0,0.0,0.0,12009,21146,9643,11231,12918,1
0.0,0.0,0.0,12060,21146,9643,11219,12932,1
0.0,0.0,0.0,12086,21208,9643,11219,12824,1
0.0,0.0,0.0,12099,21167,9632,11206,12770,1
0.0,0.0,0.0,12124,21208,9654,11206,12810,1
0.0,0.0,0.0,12112,21208,9643,11219,12797,1
0.0,0.0,0.0,12112,21208,9643,11206,12756,1
0.0,0.0,0.0,12112,21125,9632,11206,12797,1
0.0,0.0,0.0,12124,21187,9632,11206,12851,1
0.0,0.0,0.0,12150,21208,9621,11170,12716,1
0.0,0.0,0.0,12137,21146,9643,11133,12530,1
0.0,0.0,0.0,12163,21187,9654,11084,12372,1
0.0,0.0,0.0,12163,21250,9621,11036,12241,1
0.0,0.0,0.0,12189,21208,9643,11012,12267,1
0.0,0.0,0.0,12215,21250,9643,10963,12320,1
0.0,0.0,0.0,12267,21187,9621,10879,12267,1
0.0,0.0,0.0,12320,21187,9643,10843,12267,1
0.0,0.0,0.0,12320,21146,9643,10831,12267,1
0.0,0.0,0.0,12320,21146,9621,10819,12320,1
0.0,0.0,0.0,12346,21125,9643,10807,12346,1
0.0,0.0,0.0,12320,21084,9632,10771,12385,1
0.0,0.0,0.0,12346,21064,9643,10771,12398,1
0.0,0.0,0.0,12293,20899,9632,10783,12372,1
0.0,0.0,0.0,12124,21043,9666,10783,11944,1
0.0,0.0,0.0,12124,20961,9643,10819,11855,1
0.0,0.0,0.0,12086,20961,9643,10807,11754,1
0.0,0.0,0.0,12009,20981,9621,10819,11716,1
0.0,0.0,0.0,12009,20981,9643,10819,11665,1
0.0,0.0,0.0,12009,21002,9632,10795,11640,1
0.0,0.0,0.0,11983,20961,9643,10783,11653,1
0.0,0.0,0.0,12009,20981,9643,10783,11653,1
0.0,0.0,0.0,12009,20981,9688,10771,11653,1
0.0,0.0,0.0,11983,20961,9643,10771,11678,1
0.0,0.0,0.0,12021,20961,9621,10771,11603,1
0.0,0.0,0.0,12009,20920,9632,10748,11603,1
0.0,0.0,0.0,12009,20961,9643,10748,11615,1
0.0,0.0,0.0,12021,20961,9621,10748,11603,1
0.0,0.0,0.0,12009,20940,9632,10748,11615,1
0.0,0.0,0.0,11970,20920,9654,10748,11578,1
0.0,0.0,0.0,11957,20920,9666,10748,11578,1
0.0,0.0,0.0,11906,20961,9643,10748,11553,1
0.0,0.0,0.0,11893,20961,9643,10748,11553,1
0.0,0.0,0.0,11868,20961,9632,10748,11503,1
0.0,0.0,0.0,11855,20961,9643,10748,11515,1
0.0,0.0,0.0,11817,20981,9632,10748,11478,1
0.0,0.0,0.0,11842,21043,9643,10748,11453,1
0.0,0.0,0.0,11804,21064,9632,10748,11453,1
0.0,0.0,0.0,11804,21187,9643,10795,11416,1
0.0,0.0,0.0,11779,21208,9632,10927,11428,1
0.0,0.0,0.0,11766,21291,9643,11060,11465,1
0.0,0.0,0.0,11804,21375,9632,11268,11478,1
0.0,0.0,0.0,11817,21312,9632,11628,11528,1
0.0,0.0,0.0,11804,21354,9621,11932,11528,1
0.0,0.0,0.0,11766,21375,9632,12189,11603,1
0.0,0.0,0.0,11754,21458,9643,12346,11615,1
0.0,0.0,0.0,11766,21458,9632,12451,11628,1
0.0,0.0,0.0,11766,21563,9643,12756,11728,1
0.0,0.0,0.0,11766,21584,9666,12864,11804,1
0.0,0.0,0.0,11766,21584,9621,12918,11804,1
0.0,0.0,0.0,11754,21584,9643,12864,11792,1
0.0,0.0,0.0,11754,21606,9643,12810,11766,1
0.0,0.0,0.0,11754,21606,9643,12743,11754,1
0.0,0.0,0.0,11716,21563,9632,12636,11779,1
0.0,0.0,0.0,11779,21563,9643,12556,11754,1
0.0,0.0,0.0,11754,21542,9654,12530,11741,1
0.0,0.0,0.0,11754,21479,9643,12530,11754,1
0.0,0.0,0.0,11754,21479,9643,12583,11754,1
0.0,0.0,0.0,11716,21458,9666,12583,11804,1
0.0,0.0,0.0,11754,21416,9666,12504,11868,1
0.0,0.0,0.0,11779,21500,9643,12504,12112,1
0.0,0.0,0.0,11804,21375,9621,12477,12398,1
0.0,0.0,0.0,11792,21333,9643,12320,12690,1
0.0,0.0,0.0,11804,21333,9632,12267,12797,1
0.0,0.0,0.0,11804,21291,9632,12267,12918,1
0.0,0.0,0.0,11881,21291,9643,11957,12932,1
0.0,0.0,0.0,11855,21229,9643,11830,12770,1
0.0,0.0,0.0,11881,21208,9643,11703,12530,1
0.0,0.0,0.0,11919,21125,9654,11503,12346,1
0.0,0.0,0.0,11881,21043,9643,11329,12228,1
0.0,0.0,0.0,11957,21043,9643,11231,12137,1
0.0,0.0,0.0,12009,20981,9632,11109,12189,1
0.0,0.0,0.0,11996,20920,9621,11048,12137,1
0.0,0.0,0.0,11983,20879,9621,11012,12112,1
0.0,0.0,0.0,11957,20859,9654,10987,12112,1
0.0,0.0,0.0,11957,20716,9666,10963,12009,1
0.0,0.0,0.0,11919,20737,9632,10963,12009,1
0.0,0.0,0.0,11957,20716,9643,10939,11957,1
0.0,0.0,0.0,11970,20716,9643,10939,11970,1
0.0,0.0,0.0,11970,20636,9621,10927,11970,1
0.0,0.0,0.0,11970,20555,9632,10915,11957,1
0.0,0.0,0.0,11932,20495,9643,10915,12021,1
0.0,0.0,0.0,11957,20555,9643,10915,12060,1
0.0,0.0,0.0,11957,20535,9643,10879,12099,1
0.0,0.0,0.0,11983,20555,9632,10843,12060,1
0.0,0.0,0.0,11983,20475,9621,10783,11970,1
0.0,0.0,0.0,11881,20475,9643,10748,11868,1
0.0,0.0,0.0,11855,20475,9643,10688,11728,1
0.0,0.0,0.0,11804,20515,9632,10676,11678,1
0.0,0.0,0.0,11804,20495,9643,10676,11653,1
0.0,0.0,0.0,11804,20495,9632,10653,11678,1
0.0,0.0,0.0,11804,20475,9643,10641,11653,1
0.0,0.0,0.0,11804,20475,9632,10653,11678,1
0.0,0.0,0.0,11804,20415,9643,10641,11779,1
0.0,0.0,0.0,11804,20315,9643,10629,12189,1
0.0,0.0,0.0,11881,20275,9621,10617,12864,1
0.0,0.0,0.0,11906,20196,9621,10582,13398,1
0.0,0.0,0.0,11919,20117,9643,10582,13357,1
0.0,0.0,0.0,11957,20098,9621,10558,13398,1
0.0,0.0,0.0,11944,20078,9632,10535,13454,1
0.0,0.0,0.0,11932,20078,9632,10558,13398,1
0.0,0.0,0.0,11932,20078,9643,10546,13398,1
0.0,0.0,0.0,11919,20078,9643,10546,13343,1
0.0,0.0,0.0,11906,20078,9621,10535,13315,1
0.0,0.0,0.0,11881,19999,9632,10535,13343,1
0.0,0.0,0.0,11868,20039,9643,10546,13398,1
0.0,0.0,0.0,11932,19960,9643,10546,13454,1
0.0,0.0,0.0,11983,19863,9632,10535,13426,1
0.0,0.0,0.0,12047,19727,9632,10535,13357,1
0.0,0.0,0.0,12009,19689,9643,10535,13246,1
0.0,0.0,0.0,11957,19689,9643,10535,13260,1
0.0,0.0,0.0,11957,19727,9643,10535,13136,1
0.0,0.0,0.0,11932,19746,9621,10546,13095,1
0.0,0.0,0.0,11906,19746,9643,10546,13054,1
0.0,0.0,0.0,11881,19708,9666,10535,13081,1
0.0,0.0,0.0,11868,19708,9654,10535,13068,1
0.0,0.0,0.0,11868,19650,9632,10535,13040,1
0.0,0.0,0.0,11855,19689,9643,10546,13027,1
0.0,0.0,0.0,11842,19689,9632,10535,13068,1
0.0,0.0,0.0,11817,19689,9643,10558,13068,1
0.0,0.0,0.0,11830,19689,9621,10558,13013,1
0.0,0.0,0.0,11804,19689,9643,10546,13040,1
0.0,0.0,0.0,11804,19669,9643,10546,12999,1
0.0,0.0,0.0,11804,19689,9643,10558,13068,1
0.0,0.0,0.0,11804,19689,9632,10558,13040,1
0.0,0.0,0.0,11779,19689,9643,10499,13027,1
0.0,0.0,0.0,11779,19669,9632,10558,13068,1
0.0,0.0,0.0,11804,19650,9643,10546,13095,1
0.0,0.0,0.0,11779,19612,9643,10546,13081,1
0.0,0.0,0.0,11766,19535,9643,10558,13068,1
0.0,0.0,0.0,11703,19344,9643,10558,13081,1
0.0,0.0,0.0,11653,19382,9643,10582,13068,1
0.0,0.0,0.0,11553,19306,9643,10558,13081,1
0.0,0.0,0.0,11528,19306,9621,10558,13040,1
0.0,0.0,0.0,11503,19249,9643,10582,13081,1
0.0,0.0,0.0,11453,19136,9643,10546,13081,1
0.0,0.0,0.0,11453,19043,9643,10582,13068,1
0.0,0.0,0.0,11416,19005,9643,10582,13068,1
0.0,0.0,0.0,11354,18931,9632,10582,13068,1
0.0,0.0,0.0,11255,18635,9632,10558,13040,1
0.0,0.0,0.0,11133,18417,9621,10570,13054,1
0.0,0.0,0.0,10975,17986,9621,10535,13068,1
0.0,0.0,0.0,10831,17774,9643,10582,13095,1
0.0,0.0,0.0,10819,17915,9643,10582,13068,1
0.0,0.0,0.0,10688,18272,9632,10582,13081,1
0.0,0.0,0.0,10688,18635,9632,10582,13122,1
0.0,0.0,0.0,10748,18746,9643,10605,13136,1
0.0,0.0,0.0,10748,18949,9621,10582,13150,1
0.0,0.0,0.0,10819,19306,9643,10605,13136,1
0.0,0.0,0.0,11280,20117,9632,10605,13177,1
0.0,0.0,0.0,11603,20435,9632,10629,13232,1
0.0,0.0,0.0,11804,20981,9632,10629,13232,1
0.0,0.0,0.0,12073,21146,9621,10629,13260,1
0.0,0.0,0.0,12163,21375,9632,10629,13287,1
0.0,0.0,0.0,12346,21458,9643,10676,13287,1
0.0,0.0,0.0,12451,21563,9632,10688,13343,1
0.0,0.0,0.0,12504,21669,9643,10700,13343,1
0.0,0.0,0.0,12676,21733,9643,10724,13343,1
0.0,0.0,0.0,12810,21796,9643,10748,13357,1
0.0,0.0,0.0,12972,22010,9710,10748,13371,1
0.0,0.0,0.0,13027,22010,9721,10748,13357,1
0.0,0.0,0.0,13177,22053,9733,10759,13357,1
0.0,0.0,0.0,13315,22140,9721,10748,13301,1
0.0,0.0,0.0,13412,22313,9744,10783,13343,1
0.0,0.0,0.0,13454,22270,9733,10771,13301,1
0.0,0.0,0.0,13398,22226,9733,10771,13343,1
0.0,0.0,0.0,13315,22248,9721,10807,13315,1
0.0,0.0,0.0,13232,22140,9721,10795,13343,1
0.0,0.0,0.0,13163,22096,9721,10783,13315,1
0.0,0.0,0.0,13122,22053,9721,10795,13301,1
0.0,0.0,0.0,13081,22010,9733,10783,13343,1
0.0,0.0,0.0,13027,21903,9643,10783,13287,1
0.0,0.0,0.0,13013,21882,9632,10795,13371,1
0.0,0.0,0.0,12999,21903,9621,10795,13343,1
0.0,0.0,0.0,13013,21839,9643,10819,13371,1
0.0,0.0,0.0,12972,21818,9621,10819,13343,1
0.0,0.0,0.0,12959,21818,9632,10819,13315,1
0.0,0.0,0.0,12959,21796,9643,10819,13287,1
0.0,0.0,0.0,12918,21775,9632,10795,13301,1
0.0,0.0,0.0,12932,21818,9654,10807,13274,1
0.0,0.0,0.0,12918,21796,9632,10795,13260,1
0.0,0.0,0.0,12891,21669,9621,10819,13260,1
0.0,0.0,0.0,12878,21627,9621,10819,13287,1
0.0,0.0,0.0,12864,21563,9666,10795,13371,1
0.0,0.0,0.0,12851,21563,9643,10819,13426,1
0.0,0.0,0.0,12837,21542,9632,10819,13524,1
0.0,0.0,0.0,12837,21542,9632,10831,13468,1
0.0,0.0,0.0,12851,21479,9621,10879,13482,1
0.0,0.0,0.0,12851,21437,9632,10867,13510,1
0.0,0.0,0.0,12891,21395,9643,10879,13482,1
0.0,0.0,0.0,12905,21395,9632,10867,13454,1
0.0,0.0,0.0,12905,21375,9643,10915,13482,1
0.0,0.0,0.0,12959,21375,9643,10975,13538,1
0.0,0.0,0.0,12959,21375,10003,11084,13580,1
0.0,0.0,0.0,12905,21375,10394,11653,13636,1
0.0,0.0,0.0,12932,21375,10371,11603,13735,1
0.0,0.0,0.0,12918,21312,10371,11653,13749,1
0.0,0.0,0.0,12918,21333,10359,11615,13735,1
0.0,0.0,0.0,12905,21312,10359,11578,13707,1
0.0,0.0,0.0,12878,21312,10348,11578,13735,1
0.0,0.0,0.0,12851,21375,10301,11578,13721,1
0.0,0.0,0.0,12851,21375,10186,11578,13679,1
0.0,0.0,0.0,12810,21333,10140,11628,13622,1
0.0,0.0,0.0,12797,21333,10117,11603,13878,1
0.0,0.0,0.0,12810,21333,10117,11565,13935,1
0.0,0.0,0.0,12770,21291,10117,11553,13978,1
0.0,0.0,0.0,12783,21250,10129,11528,14050,1
0.0,0.0,0.0,12743,21208,10129,11578,14021,1
0.0,0.0,0.0,12770,21250,10163,11553,14137,1
0.0,0.0,0.0,12770,21187,10174,11553,14137,1
0.0,0.0,0.0,12756,21167,10174,11528,14137,1
0.0,0.0,0.0,12743,21187,10197,11528,14137,1
0.0,0.0,0.0,12851,21167,10232,11553,14122,1
0.0,0.0,0.0,12878,21208,10255,11553,14137,1
0.0,0.0,0.0,12972,21084,10255,11578,14079,1
0.0,0.0,0.0,12986,20879,10221,11553,14021,1
0.0,0.0,0.0,13013,20798,10209,11553,14021,1
0.0,0.0,0.0,13136,20757,10255,11553,13964,1
0.0,0.0,0.0,13343,20636,10301,11553,14021,1
0.0,0.0,0.0,13510,20636,10348,11553,13978,1
0.0,0.0,0.0,13566,20555,10394,11578,13964,1
0.0,0.0,0.0,13468,20555,10418,11578,13964,1
0.0,0.0,0.0,13482,20535,10441,11578,13964,1
0.0,0.0,0.0,13482,20515,10441,11603,13992,1
0.0,0.0,0.0,13510,20475,10453,11578,14021,1
0.0,0.0,0.0,13482,20475,10418,11553,13964,1
0.0,0.0,0.0,13510,20475,10406,11578,13964,1
0.0,0.0,0.0,13510,20415,10394,11603,13964,1
0.0,0.0,0.0,13454,20435,10406,11603,13964,1
0.0,0.0,0.0,13454,20555,10394,11628,13964,1
0.0,0.0,0.0,13412,20555,10371,11603,13849,1
0.0,0.0,0.0,13412,20555,10371,11603,13693,1
0.0,0.0,0.0,13343,20475,10325,11628,13608,1
0.0,0.0,0.0,13329,20435,10325,11603,13650,1
0.0,0.0,0.0,13371,20475,10313,11603,13454,1
0.0,0.0,0.0,13357,20355,10301,11578,13287,1
0.0,0.0,0.0,13343,20575,10267,11503,13371,1
0.0,0.0,0.0,13287,20716,10163,11416,13329,1
0.0,0.0,0.0,13301,20716,10026,11366,13177,1
0.0,0.0,0.0,13343,20656,9980,11304,13287,1
0.0,0.0,0.0,13454,20555,10071,11304,13357,1
0.0,0.0,0.0,13482,20475,9980,11379,13398,1
0.0,0.0,0.0,13524,20495,9710,11403,13398,1
0.0,0.0,0.0,13496,20515,9643,11453,13707,1
0.0,0.0,0.0,13510,20555,9621,11603,14021,1
0.0,0.0,0.0,13510,20555,9666,11754,14488,1
0.0,0.0,0.0,13510,20555,9632,11779,14488,1
0.0,0.0,0.0,13510,20555,9621,11779,14385,1
0.0,0.0,0.0,13510,20555,9632,11779,14399,1
0.0,0.0,0.0,13510,20555,9643,11728,14297,1
0.0,0.0,0.0,13538,20555,9666,11728,14253,1
0.0,0.0,0.0,13482,20495,9632,11728,14253,1
0.0,0.0,0.0,13482,20555,9643,11728,14253,1
0.0,0.0,0.0,13510,20555,9643,11691,14253,1
0.0,0.0,0.0,13482,20555,9643,11678,14282,1
0.0,0.0,0.0,13468,20575,9643,11678,14370,1
0.0,0.0,0.0,13454,20615,9632,11703,14429,1
0.0,0.0,0.0,13482,20575,9621,11703,14399,1
0.0,0.0,0.0,13440,20555,9666,11678,14429,1
0.0,0.0,0.0,13454,20555,9632,11678,14458,1
0.0,0.0,0.0,13454,20495,9643,11703,14444,1
0.0,0.0,0.0,13412,20475,9643,11665,14444,1
0.0,0.0,0.0,13454,20495,9666,11653,14429,1
0.0,0.0,0.0,13412,20435,9643,11653,14385,1
0.0,0.0,0.0,13398,20455,9632,11653,14429,1
0.0,0.0,0.0,13426,20435,9643,11728,14547,1
0.0,0.0,0.0,13398,20415,9643,11728,14801,1
0.0,0.0,0.0,13412,20455,9677,11703,14876,1
0.0,0.0,0.0,13454,20475,9710,11728,14907,1
0.0,0.0,0.0,13412,20475,9666,11754,15058,1
0.0,0.0,0.0,13412,20435,9677,11754,15089,1
0.0,0.0,0.0,13398,20395,9688,11754,15119,1
0.0,0.0,0.0,13371,20415,9666,11754,15150,1
0.0,0.0,0.0,13398,20415,9666,11754,15211,1
0.0,0.0,0.0,13357,20415,9666,11830,15335,1
0.0,0.0,0.0,13357,20395,9666,11855,15397,1
0.0,0.0,0.0,13412,20435,9677,11830,15335,1
0.0,0.0,0.0,13398,20415,9688,11855,15335,1
0.0,0.0,0.0,13398,20435,9710,12215,15615,1
0.0,0.0,0.0,13343,20395,9666,12241,15647,1
0.0,0.0,0.0,13357,20415,9677,12163,15459,1
0.0,0.0,0.0,13343,20395,9688,12009,15335,1
0.0,0.0,0.0,13343,20315,9688,11996,15288,1
0.0,0.0,0.0,13329,20415,9710,11983,15335,1
0.0,0.0,0.0,13287,20415,9688,12137,15350,1
0.0,0.0,0.0,13260,20475,9677,12228,15412,1
0.0,0.0,0.0,13274,20415,9688,12280,15366,1
0.0,0.0,0.0,13260,20395,9677,12320,15366,1
0.0,0.0,0.0,13274,20395,9677,12346,15366,1
0.0,0.0,0.0,13232,20455,9666,12241,15288,1
0.0,0.0,0.0,13232,20395,9666,12124,15135,1
0.0,0.0,0.0,13246,20475,9688,11957,14846,1
0.0,0.0,0.0,13246,20475,9710,11906,14636,1
0.0,0.0,0.0,13232,20395,9755,11817,14253,1
0.0,0.0,0.0,13205,20395,9811,11766,14166,1
0.0,0.0,0.0,13246,20395,9766,11754,14166,1
0.0,0.0,0.0,13205,20395,9800,11703,14137,1
0.0,0.0,0.0,13232,20395,9800,11703,13964,1
0.0,0.0,0.0,13205,20475,9766,11628,13878,1
0.0,0.0,0.0,13232,20435,9766,11553,13580,1
0.0,0.0,0.0,13232,20475,9777,11515,13524,1
0.0,0.0,0.0,13232,20435,9766,11503,13468,1
0.0,0.0,0.0,13260,20475,9800,11440,13566,1
0.0,0.0,0.0,13260,20415,9845,11416,13468,1
0.0,0.0,0.0,13232,20395,9856,11403,13426,1
0.0,0.0,0.0,13260,20395,9890,11379,13412,1
0.0,0.0,0.0,13398,20415,9935,11366,13398,1
0.0,0.0,0.0,13371,20415,9935,11354,13482,1
0.0,0.0,0.0,13398,20415,9867,11304,13398,1
0.0,0.0,0.0,13371,20415,9777,11231,13205,1
0.0,0.0,0.0,13371,20455,9777,11206,13150,1
0.0,0.0,0.0,13343,20475,9845,11206,13054,1
0.0,0.0,0.0,13301,20475,9845,11280,12972,1
0.0,0.0,0.0,13287,20395,9811,11317,12986,1
0.0,0.0,0.0,13232,20435,9811,11304,12986,1
0.0,0.0,0.0,13177,20575,9643,11304,12959,1
0.0,0.0,0.0,13150,20555,9632,11304,13013,1
0.0,0.0,0.0,13177,20656,9632,11354,13232,1
0.0,0.0,0.0,13081,20636,9643,11478,12972,1
0.0,0.0,0.0,13054,20656,9643,11817,12986,1
0.0,0.0,0.0,13068,20555,9643,12267,13122,1
0.0,0.0,0.0,13040,20575,9643,12583,13552,1
0.0,0.0,0.0,13013,20555,9643,12583,14326,1
0.0,0.0,0.0,13013,20595,9621,12570,14224,1
0.0,0.0,0.0,12972,20555,9643,12215,14786,1
0.0,0.0,0.0,12972,20575,9643,12137,15397,1
0.0,0.0,0.0,12986,20555,9632,12009,14458,1
0.0,0.0,0.0,12972,20495,9621,11855,14268,1
0.0,0.0,0.0,13013,20475,9632,11678,14021,1
0.0,0.0,0.0,13013,20435,9632,11528,13693,1
0.0,0.0,0.0,13068,20475,9632,11428,13454,1
0.0,0.0,0.0,13068,20475,9643,11304,13371,1
0.0,0.0,0.0,13040,20475,9632,11219,13287,1
0.0,0.0,0.0,13040,20475,9643,11206,13205,1
0.0,0.0,0.0,13013,20475,9643,11182,13191,1
0.0,0.0,0.0,13013,20455,9654,11157,13177,1
0.0,0.0,0.0,13013,20475,9643,11121,13177,1
0.0,0.0,0.0,13013,20435,9643,11133,13177,1
0.0,0.0,0.0,12972,20435,9643,11133,13095,1
0.0,0.0,0.0,12972,20435,9654,11157,13054,1
0.0,0.0,0.0,12959,20475,9632,11255,13122,1
0.0,0.0,0.0,12972,20475,9632,11292,13122,1
0.0,0.0,0.0,12972,20555,9632,11280,13095,1
0.0,0.0,0.0,12972,20475,9632,11304,13109,1
0.0,0.0,0.0,12959,20435,9643,11280,13081,1
0.0,0.0,0.0,12959,20435,9643,11280,13122,1
0.0,0.0,0.0,12959,20435,9632,11292,13136,1
0.0,0.0,0.0,12972,20455,9654,11317,13232,1
0.0,0.0,0.0,13013,20475,9621,11329,13177,1
0.0,0.0,0.0,12972,20475,9632,11354,13122,1
0.0,0.0,0.0,13013,20435,9632,11329,13136,1
0.0,0.0,0.0,13013,20435,9632,11354,13068,1
0.0,0.0,0.0,13013,20435,9632,11304,13068,1
0.0,0.0,0.0,13013,20435,9621,11329,13095,1
0.0,0.0,0.0,13013,20435,9632,11329,13068,1
0.0,0.0,0.0,12972,20435,9643,11329,13068,1
0.0,0.0,0.0,12972,20435,9632,11317,13068,1
0.0,0.0,0.0,12972,20395,9632,11317,13068,1
0.0,0.0,0.0,12986,20395,9643,11317,13040,1
0.0,0.0,0.0,12972,20435,9643,11329,13068,1
0.0,0.0,0.0,12959,20395,9621,11317,13068,1
0.0,0.0,0.0,12959,20415,9621,11354,13068,1
0.0,0.0,0.0,12959,20395,9632,11354,13068,1
0.0,0.0,0.0,12959,20475,9643,11354,13027,1
0.0,0.0,0.0,12959,20415,9621,11354,13068,1
0.0,0.0,0.0,12959,20435,9632,11354,13068,1
0.0,0.0,0.0,12932,20395,9632,11354,13081,1
0.0,0.0,0.0,12959,20395,9643,11341,13081,1
0.0,0.0,0.0,12972,20415,9643,11341,13040,1
0.0,0.0,0.0,12932,20395,9632,11354,13068,1
0.0,0.0,0.0,12905,20415,9643,11354,13095,1
0.0,0.0,0.0,12918,20395,9643,11354,13068,1
0.0,0.0,0.0,12905,20395,9632,11354,13122,1
0.0,0.0,0.0,12905,20395,9632,11354,13068,1
0.0,0.0,0.0,12905,20355,9621,11354,13068,1
0.0,0.0,0.0,12905,20355,9632,11354,13081,1
0.0,0.0,0.0,12905,20395,9643,11329,13068,1
0.0,0.0,0.0,12905,20395,9643,11317,13068,1
0.0,0.0,0.0,12918,20395,9643,11366,13095,1
0.0,0.0,0.0,12918,20335,9643,11317,13068,1
0.0,0.0,0.0,12918,20415,9643,11329,13068,1
0.0,0.0,0.0,12905,20335,9621,11354,13068,1
0.0,0.0,0.0,12918,20355,9621,11304,13040,1
0.0,0.0,0.0,12932,20335,9666,11329,13081,1
0.0,0.0,0.0,12905,20335,9643,11317,13054,1
0.0,0.0,0.0,12905,20355,9632,11317,13068,1
0.0,0.0,0.0,12905,20335,9621,11304,13013,1
0.0,0.0,0.0,12905,20335,9621,11329,13068,1
0.0,0.0,0.0,12905,20355,9643,11317,13013,1
0.0,0.0,0.0,12864,20335,9632,11329,13040,1
0.0,0.0,0.0,12878,20375,9621,11354,13054,1
0.0,0.0,0.0,12851,20335,9632,11304,13027,1
0.0,0.0,0.0,12878,20335,9643,11317,13068,1
0.0,0.0,0.0,12891,20375,9632,11304,13013,1
0.0,0.0,0.0,12905,20315,9632,11304,13013,1
0.0,0.0,0.0,12864,20395,9632,11317,12999,1
0.0,0.0,0.0,12864,20355,9643,11317,12972,1
0.0,0.0,0.0,12864,20335,9643,11304,13013,1
0.0,0.0,0.0,12851,20435,9632,11304,12972,1
0.0,0.0,0.0,12864,20355,9621,11304,12959,1
0.0,0.0,0.0,12864,20335,9643,11304,12959,1
0.0,0.0,0.0,12878,20335,9621,11304,12972,1
0.0,0.0,0.0,12851,20315,9643,11304,12959,1
0.0,0.0,0.0,12851,20335,9632,11304,12999,1
0.0,0.0,0.0,12878,20275,9643,11304,12932,1
0.0,0.0,0.0,12905,20315,9632,11304,12945,1
0.0,0.0,0.0,12905,20315,9621,11304,12959,1
0.0,0.0,0.0,12864,20335,9632,11304,12959,1
0.0,0.0,0.0,12905,20315,9632,11304,12932,1
0.0,0.0,0.0,12905,20315,9621,11304,12918,1
0.0,0.0,0.0,12878,20355,9632,11280,12932,1
0.0,0.0,0.0,12878,20315,9643,11292,12959,1
0.0,0.0,0.0,12905,20315,9632,11280,12959,1
0.0,0.0,0.0,12905,20315,9643,11292,12959,1
0.0,0.0,0.0,12891,20275,9621,11304,12905,1
0.0,0.0,0.0,12905,20335,9632,11304,12959,1
0.0,0.0,0.0,12905,20335,9643,11304,12972,1
0.0,0.0,0.0,12932,20315,9632,11280,12918,1
0.0,0.0,0.0,12905,20295,9632,11280,12918,1
0.0,0.0,0.0,12918,20295,9643,11304,12945,1
0.0,0.0,0.0,12918,20315,9643,11317,12945,1
0.0,0.0,0.0,12905,20295,9643,11280,12905,1
0.0,0.0,0.0,12918,20275,9643,11304,12945,1
0.0,0.0,0.0,12905,20315,9632,11280,12959,1
0.0,0.0,0.0,12905,20315,9632,11255,12945,1
0.0,0.0,0.0,12905,20275,9621,11255,12959,1
0.0,0.0,0.0,12905,20315,9643,11304,12959,1
0.0,0.0,0.0,12905,20295,9621,11304,12959,1
0.0,0.0,0.0,12905,20315,9643,11280,12945,1
0.0,0.0,0.0,12878,20275,9643,11292,12932,1
0.0,0.0,0.0,12905,20236,9632,11304,12918,1
0.0,0.0,0.0,12905,20275,9632,11280,12959,1
0.0,0.0,0.0,12905,20315,9621,11280,12918,1
0.0,0.0,0.0,12878,20275,9621,11292,12932,1
0.0,0.0,0.0,12905,20236,9632,11304,12972,1
0.0,0.0,0.0,12878,20295,9632,11280,12905,1
0.0,0.0,0.0,12905,20275,9643,11280,12945,1
0.0,0.0,0.0,12905,20256,9654,11292,12932,1
0.0,0.0,0.0,12891,20315,9643,11292,12959,1
0.0,0.0,0.0,12878,20256,9643,11304,12959,1
0.0,0.0,0.0,12905,20275,9632,11280,12905,1
0.0,0.0,0.0,12918,20275,9643,11304,12959,1
0.0,0.0,0.0,12905,20335,9666,11268,12932,1
0.0,0.0,0.0,12918,20315,9643,11292,12959,1
0.0,0.0,0.0,12959,20256,9632,11304,12918,1
0.0,0.0,0.0,12932,20275,9632,11304,12932,1
0.0,0.0,0.0,12905,20236,9632,11304,12918,1
0.0,0.0,0.0,12918,20275,9632,11304,12918,1
0.0,0.0,0.0,12918,20236,9643,11292,12959,1
0.0,0.0,0.0,12918,20295,9632,11304,12959,1
0.0,0.0,0.0,12905,20275,9643,11304,12905,1
0.0,0.0,0.0,12932,20275,9632,11280,12905,1
0.0,0.0,0.0,12905,20256,9621,11304,12959,1
0.0,0.0,0.0,12918,20315,9666,11280,12918,1
0.0,0.0,0.0,12905,20256,9632,11280,12918,1
0.0,0.0,0.0,12905,20275,9632,11280,12918,1
0.0,0.0,0.0,12918,20315,9643,11280,12959,1
0.0,0.0,0.0,12905,20236,9621,11304,12918,1
0.0,0.0,0.0,12878,20196,9643,11280,12918,1
0.0,0.0,0.0,12905,20236,9643,11280,12932,1
0.0,0.0,0.0,12918,20275,9632,11268,12932,1
0.0,0.0,0.0,12932,20275,9632,11268,12905,1
0.0,0.0,0.0,12905,20236,9632,11280,12905,1
0.0,0.0,0.0,12905,20275,9632,11304,12932,1
0.0,0.0,0.0,12918,20275,9632,11292,12932,1
0.0,0.0,0.0,12918,20256,9643,11292,12918,1
0.0,0.0,0.0,12891,20275,9632,11304,12932,1
