GyroX,GyroY,GyroZ,Thumb,Index,Middle,Ring,Pinky,Gesture
0.0,0.0,0.0,15789,21882,23847,32899,14414,5
0.0,0.0,0.0,15789,21882,23870,32866,14488,5
0.0,0.0,0.0,15837,21903,23824,32832,14518,5
0.0,0.0,0.0,15789,21882,23847,32765,14547,5
0.0,0.0,0.0,15773,21818,23824,32832,14607,5
0.0,0.0,0.0,15789,21882,23847,32799,14666,5
0.0,0.0,0.0,15789,21839,23777,32732,14726,5
0.0,0.0,0.0,15710,21818,23777,32699,14741,5
0.0,0.0,0.0,15757,21860,23754,32699,14786,5
0.0,0.0,0.0,15741,21796,23777,32765,14846,5
0.0,0.0,0.0,15773,21839,23800,32699,14876,5
0.0,0.0,0.0,15773,21818,23777,32699,14846,5
0.0,0.0,0.0,15773,21839,23754,32633,14876,5
0.0,0.0,0.0,15741,21796,23800,32699,14861,5
0.0,0.0,0.0,15773,21796,23800,32633,14876,5
0.0,0.0,0.0,15726,21754,23777,32633,14876,5
0.0,0.0,0.0,15773,21818,23800,32533,14861,5
0.0,0.0,0.0,15757,21796,23754,32599,14907,5
0.0,0.0,0.0,15773,21796,23754,32533,14891,5
0.0,0.0,0.0,15741,21754,23707,32599,14922,5
0.0,0.0,0.0,15741,21796,23754,32533,14876,5
0.0,0.0,0.0,15741,21775,23684,32467,14922,5
0.0,0.0,0.0,15726,21733,23730,32533,14907,5
0.0,0.0,0.0,15773,21796,23730,32500,14967,5
0.0,0.0,0.0,15710,21754,23707,32533,14876,5
0.0,0.0,0.0,15710,21796,23707,32533,14967,5
0.0,0.0,0.0,15710,21733,23707,32500,14922,5
0.0,0.0,0.0,15741,21754,23754,32500,14952,5
0.0,0.0,0.0,15726,21796,23707,32500,14967,5
0.0,0.0,0.0,15710,21796,23707,32500,14967,5
0.0,0.0,0.0,15710,21754,23661,32435,14997,5
0.0,0.0,0.0,15741,21754,23684,32435,15028,5
0.0,0.0,0.0,15678,21711,23707,32500,15043,5
0.0,0.0,0.0,15710,21733,23684,32435,15089,5
0.0,0.0,0.0,15710,21690,23707,32467,15043,5
0.0,0.0,0.0,15710,21711,23684,32435,15058,5
0.0,0.0,0.0,15694,21711,23661,32435,15089,5
0.0,0.0,0.0,15710,21711,23615,32369,15058,5
0.0,0.0,0.0,15710,21711,23615,32369,15119,5
0.0,0.0,0.0,15694,21690,23615,32303,15074,5
0.0,0.0,0.0,15678,21711,23615,32369,15104,5
0.0,0.0,0.0,15663,21711,23615,32369,15089,5
0.0,0.0,0.0,15631,21711,23592,32369,15104,5
0.0,0.0,0.0,15615,21690,23569,32369,15119,5
0.0,0.0,0.0,15600,21669,23615,32303,15119,5
0.0,0.0,0.0,15600,21648,23569,32336,15119,5
0.0,0.0,0.0,15600,21648,23661,32303,15135,5
0.0,0.0,0.0,15584,21711,23569,32303,15119,5
0.0,0.0,0.0,15584,21627,23569,32303,15089,5
0.0,0.0,0.0,15521,21627,23569,32205,15104,5
0.0,0.0,0.0,15521,21648,23522,32238,15119,5
0.0,0.0,0.0,15537,21627,23569,32238,15150,5
0.0,0.0,0.0,15506,21563,23569,32238,15119,5
0.0,0.0,0.0,15521,21606,23522,32173,15119,5
0.0,0.0,0.0,15521,21606,23522,32173,15104,5
0.0,0.0,0.0,15490,21584,23499,32108,15150,5
0.0,0.0,0.0,15490,21584,23477,32173,15150,5
0.0,0.0,0.0,15475,21563,23499,32173,15150,5
0.0,0.0,0.0,15459,21584,23546,32173,15150,5
0.0,0.0,0.0,15475,21542,23477,32108,15181,5
0.0,0.0,0.0,15475,21584,23477,32108,15165,5
0.0,0.0,0.0,15428,21584,23522,32108,15150,5
0.0,0.0,0.0,15490,21606,23477,32043,15181,5
0.0,0.0,0.0,15459,21584,23477,32108,15181,5
0.0,0.0,0.0,15443,21563,23569,32043,15211,5
0.0,0.0,0.0,15412,21542,23477,32043,15211,5
0.0,0.0,0.0,15459,21563,23477,32108,15211,5
0.0,0.0,0.0,15459,21563,23522,32043,15227,5
0.0,0.0,0.0,15412,21542,23477,32043,15227,5
0.0,0.0,0.0,15459,21500,23431,31913,15211,5
0.0,0.0,0.0,15412,21542,23477,32010,15211,5
0.0,0.0,0.0,15443,21500,23477,31978,15242,5
0.0,0.0,0.0,15428,21500,23477,31913,15211,5
0.0,0.0,0.0,15428,21542,23477,31849,15258,5
0.0,0.0,0.0,15412,21542,23477,31913,15227,5
0.0,0.0,0.0,15428,21542,23431,31849,15273,5
0.0,0.0,0.0,15397,21542,23431,31946,14801,5
0.0,0.0,0.0,15288,21606,23431,32932,14195,5
0.0,0.0,0.0,15211,21627,23477,33236,13749,5
0.0,0.0,0.0,15165,21584,23615,32369,13538,5
0.0,0.0,0.0,15211,21542,23546,32108,13454,5
0.0,0.0,0.0,15211,21479,23477,31978,13343,5
0.0,0.0,0.0,15366,21479,23431,31656,13510,5
0.0,0.0,0.0,15273,21416,23362,31529,13524,5
0.0,0.0,0.0,15397,21479,23316,31593,13510,5
0.0,0.0,0.0,15412,21416,23339,31339,13454,5
0.0,0.0,0.0,15490,21479,23339,31244,13398,5
0.0,0.0,0.0,15397,21375,23294,31181,13343,5
0.0,0.0,0.0,15335,21229,23225,31276,13232,5
0.0,0.0,0.0,15350,21167,23180,31213,13177,5
0.0,0.0,0.0,15584,21167,23112,31025,13343,5
0.0,0.0,0.0,16385,21208,23203,30900,13454,5
0.0,0.0,0.0,17722,21416,23180,30776,13524,5
0.0,0.0,0.0,18417,21458,23157,30622,13566,5
0.0,0.0,0.0,18968,21584,23203,30653,13580,5
0.0,0.0,0.0,19231,21669,23225,30653,13622,5
0.0,0.0,0.0,19401,21733,23294,30530,13650,5
0.0,0.0,0.0,19477,21669,23294,30499,13636,5
0.0,0.0,0.0,19516,21711,23271,30469,13622,5
0.0,0.0,0.0,19420,21669,23248,30377,13622,5
0.0,0.0,0.0,19420,21648,23248,30347,13679,5
0.0,0.0,0.0,19401,21711,23294,30317,13650,5
0.0,0.0,0.0,19843,21627,23203,30286,13679,5
0.0,0.0,0.0,22313,21479,23180,30377,13665,5
0.0,0.0,0.0,23592,21416,23248,30530,13707,5
0.0,0.0,0.0,23225,21458,23362,30715,13693,5
0.0,0.0,0.0,22313,21521,23385,30900,13679,5
0.0,0.0,0.0,21796,21542,23477,31056,13650,5
0.0,0.0,0.0,21542,21542,23431,31150,13650,5
0.0,0.0,0.0,21416,21479,23431,31056,13622,5
0.0,0.0,0.0,21354,21521,23477,31025,13679,5
0.0,0.0,0.0,21208,21479,23477,31056,13679,5
0.0,0.0,0.0,21146,21479,23477,31025,13650,5
0.0,0.0,0.0,21064,21479,23477,30962,13693,5
0.0,0.0,0.0,20961,21458,23431,30900,13650,5
0.0,0.0,0.0,20879,21458,23431,30869,13665,5
0.0,0.0,0.0,20879,21458,23385,30838,13679,5
0.0,0.0,0.0,20757,21416,23385,30745,13693,5
0.0,0.0,0.0,20656,21395,23385,30684,13693,5
0.0,0.0,0.0,20575,21375,23385,30715,13650,5
0.0,0.0,0.0,20515,21375,23431,30776,13735,5
0.0,0.0,0.0,20295,21354,23385,30653,13707,5
0.0,0.0,0.0,20295,21375,23339,30653,13735,5
0.0,0.0,0.0,20295,21375,23385,30653,13764,5
0.0,0.0,0.0,20335,21375,23339,30715,13806,5
0.0,0.0,0.0,20435,21458,23339,30962,13693,5
0.0,0.0,0.0,20315,21458,23431,31025,13679,5
0.0,0.0,0.0,20295,21500,23431,30994,13693,5
0.0,0.0,0.0,20236,21479,23431,30994,13735,5
0.0,0.0,0.0,20137,21500,23431,30900,13792,5
0.0,0.0,0.0,19824,21458,23431,30776,13835,5
0.0,0.0,0.0,19669,21375,23362,30745,13906,5
0.0,0.0,0.0,19497,21416,23431,30745,13935,5
0.0,0.0,0.0,19458,21375,23408,30715,13964,5
0.0,0.0,0.0,19401,21416,23431,30715,13978,5
0.0,0.0,0.0,19401,21416,23431,30715,13978,5
0.0,0.0,0.0,19458,21395,23408,30715,13978,5
0.0,0.0,0.0,19439,21416,23431,30653,13978,5
0.0,0.0,0.0,19458,21416,23431,30622,13992,5
0.0,0.0,0.0,19458,21375,23431,30653,14021,5
0.0,0.0,0.0,19382,21375,23385,30653,14036,5
0.0,0.0,0.0,19382,21333,23431,30622,14021,5
0.0,0.0,0.0,19344,21375,23385,30684,14050,5
0.0,0.0,0.0,19306,21375,23385,30591,14050,5
0.0,0.0,0.0,19249,21375,23385,30622,14079,5
0.0,0.0,0.0,19231,21375,23339,30591,14108,5
0.0,0.0,0.0,19212,21375,23339,30653,14108,5
0.0,0.0,0.0,19174,21312,23316,30499,14137,5
0.0,0.0,0.0,19174,21333,23362,30591,14166,5
0.0,0.0,0.0,19155,21333,23294,30530,14195,5
0.0,0.0,0.0,19212,21375,23339,30530,14180,5
0.0,0.0,0.0,19155,21375,23339,30591,14238,5
0.0,0.0,0.0,19099,21375,23316,30591,14282,5
0.0,0.0,0.0,19099,21312,23294,30561,14282,5
0.0,0.0,0.0,19155,21333,23316,30561,14311,5
0.0,0.0,0.0,19155,21375,23316,30530,14282,5
0.0,0.0,0.0,19118,21312,23294,30499,14311,5
0.0,0.0,0.0,19155,21375,23339,30530,14268,5
0.0,0.0,0.0,19174,21375,23316,30469,14282,5
0.0,0.0,0.0,19231,21333,23248,30499,14311,5
0.0,0.0,0.0,19155,21354,23294,30469,14341,5
0.0,0.0,0.0,19155,21395,23316,30469,14311,5
0.0,0.0,0.0,19155,21375,23339,30530,14326,5
0.0,0.0,0.0,19099,21375,23339,30591,14326,5
0.0,0.0,0.0,19080,21416,23316,30530,14311,5
0.0,0.0,0.0,19080,21416,23339,30591,14326,5
0.0,0.0,0.0,19080,21416,23362,30499,14326,5
0.0,0.0,0.0,19043,21375,23316,30408,14370,5
0.0,0.0,0.0,19080,21375,23294,30469,14311,5
0.0,0.0,0.0,19080,21416,23316,30469,14385,5
0.0,0.0,0.0,19080,21375,23294,30438,14429,5
0.0,0.0,0.0,19080,21416,23316,30438,14429,5
0.0,0.0,0.0,19080,21375,23294,30408,14488,5
0.0,0.0,0.0,19080,21375,23316,30469,14488,5
0.0,0.0,0.0,19080,21312,23248,30408,14503,5
0.0,0.0,0.0,19080,21375,23294,30469,14547,5
0.0,0.0,0.0,19080,21375,23294,30377,14518,5
0.0,0.0,0.0,19061,21375,23271,30347,14547,5
0.0,0.0,0.0,18968,21375,23294,30347,14607,5
0.0,0.0,0.0,18912,21333,23339,30469,14532,5
0.0,0.0,0.0,18931,21375,23294,30408,14488,5
0.0,0.0,0.0,19231,21395,23225,30530,14399,5
0.0,0.0,0.0,19535,21416,23248,30530,14429,5
0.0,0.0,0.0,19631,21416,23294,30622,14195,5
0.0,0.0,0.0,19708,21542,23294,30807,14007,5
0.0,0.0,0.0,19612,21479,23294,30994,13792,5
0.0,0.0,0.0,19535,21416,23271,30900,13764,5
0.0,0.0,0.0,19174,21270,23248,30900,13707,5
0.0,0.0,0.0,18875,21229,23157,30869,13636,5
0.0,0.0,0.0,18857,21167,23135,30653,13679,5
0.0,0.0,0.0,18727,21022,23135,30591,13636,5
0.0,0.0,0.0,18599,20961,23022,30499,13580,5
0.0,0.0,0.0,18599,20879,22977,30377,13594,5
0.0,0.0,0.0,18489,20818,22999,30286,13665,5
0.0,0.0,0.0,18435,20818,23135,30075,13764,5
0.0,0.0,0.0,18022,20757,23294,29479,13749,5
0.0,0.0,0.0,17933,20716,23248,29042,13707,5
0.0,0.0,0.0,17933,20757,23271,28898,13679,5
0.0,0.0,0.0,17986,20676,23203,28869,13679,5
0.0,0.0,0.0,17951,20676,23180,28812,13650,5
0.0,0.0,0.0,17915,20676,23180,28840,13594,5
0.0,0.0,0.0,17915,20716,23157,28869,13622,5
0.0,0.0,0.0,17880,20656,23112,28754,13594,5
0.0,0.0,0.0,17792,20636,23135,28697,13622,5
0.0,0.0,0.0,17565,20595,23090,28726,13622,5
0.0,0.0,0.0,17426,20575,23112,28640,13594,5
0.0,0.0,0.0,17186,20555,23112,28697,13552,5
0.0,0.0,0.0,17016,20595,23112,28697,13566,5
0.0,0.0,0.0,17050,20555,22977,28754,13566,5
0.0,0.0,0.0,17118,20535,23067,28754,13510,5
0.0,0.0,0.0,17169,20515,23112,28783,13552,5
0.0,0.0,0.0,16983,20595,23112,28812,13510,5
0.0,0.0,0.0,16516,20555,23022,28869,13538,5
0.0,0.0,0.0,16417,20595,23022,28812,13566,5
0.0,0.0,0.0,16698,20555,23022,28927,13552,5
0.0,0.0,0.0,16698,20575,22932,28955,13566,5
0.0,0.0,0.0,16882,20595,22977,29042,13566,5
0.0,0.0,0.0,17306,20676,22977,29100,13622,5
0.0,0.0,0.0,17600,20716,22955,29158,13636,5
0.0,0.0,0.0,17669,20757,22887,29391,13735,5
0.0,0.0,0.0,17565,20899,22955,29391,13693,5
0.0,0.0,0.0,17392,20838,22932,29450,13749,5
0.0,0.0,0.0,17254,20879,22932,29304,13707,5
0.0,0.0,0.0,17118,20879,22932,29274,13735,5
0.0,0.0,0.0,16882,20879,22865,29274,13764,5
0.0,0.0,0.0,16698,20879,22887,29187,13735,5
0.0,0.0,0.0,16549,20920,22865,29216,13735,5
0.0,0.0,0.0,16450,20879,22887,29216,13735,5
0.0,0.0,0.0,16157,20879,22910,29100,13693,5
0.0,0.0,0.0,15710,20920,22932,29100,13679,5
0.0,0.0,0.0,15459,20981,22865,29042,13679,5
0.0,0.0,0.0,15242,20961,22865,29042,13679,5
0.0,0.0,0.0,15058,21043,22820,28984,13679,5
0.0,0.0,0.0,14786,21105,22798,29071,13679,5
0.0,0.0,0.0,14726,21043,22798,29042,13707,5
0.0,0.0,0.0,14696,21043,22754,29042,13636,5
0.0,0.0,0.0,14726,21002,22776,29100,13650,5
0.0,0.0,0.0,14726,20981,22776,29216,13707,5
0.0,0.0,0.0,14681,20920,22709,29158,13679,5
0.0,0.0,0.0,14726,20920,22754,29274,13650,5
0.0,0.0,0.0,14666,20940,22754,29274,13679,5
0.0,0.0,0.0,14786,20899,22754,29274,13650,5
0.0,0.0,0.0,14846,20879,22731,29333,13679,5
0.0,0.0,0.0,14982,20981,22754,29362,13679,5
0.0,0.0,0.0,15058,20981,22709,29333,13693,5
0.0,0.0,0.0,15089,20940,22754,29421,13749,5
0.0,0.0,0.0,15211,20879,22754,29509,13792,5
0.0,0.0,0.0,14937,20961,22709,29657,13792,5
0.0,0.0,0.0,14967,20961,22709,29775,13849,5
0.0,0.0,0.0,15058,20981,22754,29865,13849,5
0.0,0.0,0.0,14967,21043,22754,29925,13821,5
0.0,0.0,0.0,14801,21043,22798,29984,13863,5
0.0,0.0,0.0,14607,21167,22754,30075,13849,5
0.0,0.0,0.0,14756,21291,22776,30105,13878,5
0.0,0.0,0.0,14997,21375,22776,30195,13921,5
0.0,0.0,0.0,15165,21291,22776,30226,13906,5
0.0,0.0,0.0,15741,21291,22798,30226,13921,5
0.0,0.0,0.0,15980,21291,22887,30347,13964,5
0.0,0.0,0.0,16287,21437,23022,30499,14021,5
0.0,0.0,0.0,16125,21500,23022,30591,14079,5
0.0,0.0,0.0,16368,21584,23135,30715,14021,5
0.0,0.0,0.0,16499,21563,23157,30653,14108,5
0.0,0.0,0.0,16648,21542,23225,30530,14079,5
0.0,0.0,0.0,16831,21563,23225,30530,14108,5
0.0,0.0,0.0,17067,21627,23225,30591,14166,5
0.0,0.0,0.0,17101,21563,23248,30499,14137,5
0.0,0.0,0.0,17152,21563,23203,30408,14137,5
0.0,0.0,0.0,17118,21542,23203,30377,14195,5
0.0,0.0,0.0,17169,21542,23225,30347,14137,5
0.0,0.0,0.0,17084,21416,23225,30256,14137,5
0.0,0.0,0.0,17084,21395,23203,30226,14137,5
0.0,0.0,0.0,17152,21458,23157,30226,14195,5
0.0,0.0,0.0,17254,21354,23203,30165,14151,5
0.0,0.0,0.0,17461,21375,23225,30165,14282,5
0.0,0.0,0.0,17306,21291,23135,30135,14209,5
0.0,0.0,0.0,17513,21208,23090,30135,14209,5
0.0,0.0,0.0,17495,21270,23112,30165,14268,5
0.0,0.0,0.0,17669,21167,23112,30165,14253,5
0.0,0.0,0.0,18709,21146,23112,30105,14282,5
0.0,0.0,0.0,20019,21043,23067,29925,14253,5
0.0,0.0,0.0,20595,21022,23112,29984,14268,5
0.0,0.0,0.0,20757,21064,23022,29925,14253,5
0.0,0.0,0.0,20879,21043,23112,29895,14282,5
0.0,0.0,0.0,20879,20981,23022,29925,14282,5
0.0,0.0,0.0,20879,21043,23022,29805,14282,5
0.0,0.0,0.0,20838,21002,22999,29895,14297,5
0.0,0.0,0.0,20676,21022,22977,29775,14224,5
0.0,0.0,0.0,20475,20961,23022,29775,14253,5
0.0,0.0,0.0,20295,21002,22977,29746,14268,5
0.0,0.0,0.0,20236,20961,23044,29746,14282,5
0.0,0.0,0.0,20117,20961,22955,29746,14253,5
0.0,0.0,0.0,19902,20920,22955,29716,14224,5
0.0,0.0,0.0,19689,20940,22955,29746,14209,5
0.0,0.0,0.0,19420,21002,22977,29686,14195,5
0.0,0.0,0.0,19005,20961,22977,29775,14195,5
0.0,0.0,0.0,18544,20920,22887,29835,14108,5
0.0,0.0,0.0,18236,20838,22798,29805,13878,5
0.0,0.0,0.0,17915,20777,22754,29895,13693,5
0.0,0.0,0.0,17739,20798,22754,30347,13679,5
0.0,0.0,0.0,17634,20757,22754,30286,14253,5
0.0,0.0,0.0,17582,20798,22665,30165,14311,5
0.0,0.0,0.0,17600,20798,22687,30105,14195,5
0.0,0.0,0.0,17582,20798,22709,30045,14137,5
0.0,0.0,0.0,17565,20838,22621,29984,14007,5
0.0,0.0,0.0,17565,20920,22665,29865,13878,5
0.0,0.0,0.0,17565,20981,22665,30045,13693,5
0.0,0.0,0.0,17600,20981,22576,29895,13622,5
0.0,0.0,0.0,17617,21043,22599,29955,13524,5
0.0,0.0,0.0,17634,21208,22665,29895,13510,5
0.0,0.0,0.0,17634,21208,22665,29746,13482,5
0.0,0.0,0.0,17617,21312,22576,29835,13398,5
0.0,0.0,0.0,17739,21354,22510,29746,13398,5
0.0,0.0,0.0,17774,21229,22510,29627,13371,5
0.0,0.0,0.0,18272,21229,22576,29538,13371,5
0.0,0.0,0.0,19249,21291,22532,29568,13426,5
0.0,0.0,0.0,19941,21312,22510,29479,13371,5
0.0,0.0,0.0,20256,21312,22488,29509,13357,5
0.0,0.0,0.0,20879,21333,22532,29450,13454,5
0.0,0.0,0.0,21291,21416,22576,29333,13426,5
0.0,0.0,0.0,21458,21395,22554,29274,13412,5
0.0,0.0,0.0,21500,21333,22532,29274,13357,5
0.0,0.0,0.0,21395,21312,22576,29216,13371,5
0.0,0.0,0.0,21375,21250,22532,29187,13343,5
0.0,0.0,0.0,21291,21291,22576,29158,13371,5
0.0,0.0,0.0,20961,21291,22532,29187,13398,5
0.0,0.0,0.0,20636,21229,22532,29391,13426,5
0.0,0.0,0.0,20315,21333,22576,29479,13398,5
0.0,0.0,0.0,20039,21395,22576,29421,13315,5
0.0,0.0,0.0,19863,21395,22576,29509,13315,5
0.0,0.0,0.0,19650,21458,22576,29597,13329,5
0.0,0.0,0.0,19458,21375,22576,29657,13287,5
0.0,0.0,0.0,19136,21458,22576,29686,13315,5
0.0,0.0,0.0,19080,21375,22532,29657,13343,5
0.0,0.0,0.0,19061,21375,22554,29686,13301,5
0.0,0.0,0.0,19005,21416,22532,29568,13412,5
0.0,0.0,0.0,18968,21375,22576,29509,13426,5
0.0,0.0,0.0,19005,21375,22599,29657,13538,5
0.0,0.0,0.0,19099,21437,22599,29686,13707,5
0.0,0.0,0.0,19005,21375,22709,29746,13707,5
0.0,0.0,0.0,18949,21458,22843,29805,13707,5
0.0,0.0,0.0,19005,21458,22843,29746,13849,5
0.0,0.0,0.0,19005,21395,22887,29509,14007,5
0.0,0.0,0.0,18875,21333,22843,29042,14151,5
0.0,0.0,0.0,18820,21229,22731,28869,14311,5
0.0,0.0,0.0,18635,21064,22621,28783,14399,5
0.0,0.0,0.0,18581,20920,22510,28498,14488,5
0.0,0.0,0.0,18489,20879,22444,28442,14458,5
0.0,0.0,0.0,18344,20798,22226,28245,14518,5
0.0,0.0,0.0,18326,20696,22140,28133,14488,5
0.0,0.0,0.0,18200,20676,22010,27939,14696,5
0.0,0.0,0.0,18200,20595,21882,28357,14816,5
0.0,0.0,0.0,18147,20555,21839,28612,14967,5
0.0,0.0,0.0,18200,20395,21648,28385,14967,5
0.0,0.0,0.0,18147,19882,21125,27911,14967,5
0.0,0.0,0.0,18111,19843,20899,27745,14997,5
0.0,0.0,0.0,18004,19708,20676,27445,15028,5
0.0,0.0,0.0,17880,19363,19843,26409,15028,5
0.0,0.0,0.0,17722,19249,19631,25945,14982,5
0.0,0.0,0.0,17722,18912,19231,25241,15013,5
0.0,0.0,0.0,17704,18562,18931,24751,15028,5
0.0,0.0,0.0,17669,18562,18857,24702,15104,5
0.0,0.0,0.0,17652,18417,18599,24799,15258,5
0.0,0.0,0.0,17426,17827,17426,25192,15678,5
0.0,0.0,0.0,17374,17915,17426,25591,15553,5
0.0,0.0,0.0,17357,18129,17443,26073,15553,5
0.0,0.0,0.0,17357,18272,17669,27148,15932,5
0.0,0.0,0.0,17323,18308,17792,27911,16483,5
0.0,0.0,0.0,17306,18308,18022,28470,16582,5
0.0,0.0,0.0,17357,18308,18931,30165,16915,5
0.0,0.0,0.0,17306,18380,19231,30715,17033,5
0.0,0.0,0.0,17357,18489,19843,31720,17306,5
0.0,0.0,0.0,17323,18727,20078,32010,17289,5
0.0,0.0,0.0,17306,19080,20335,32599,17443,5
0.0,0.0,0.0,17357,19592,20636,33168,17169,5
0.0,0.0,0.0,17374,20078,21064,33542,17152,5
0.0,0.0,0.0,17426,20495,21416,34060,16949,5
0.0,0.0,0.0,17461,21105,22010,34518,16499,5
0.0,0.0,0.0,17513,21563,22226,34874,16434,5
0.0,0.0,0.0,17565,21924,22270,34412,16516,5
0.0,0.0,0.0,17652,22357,22335,34589,16483,5
0.0,0.0,0.0,17757,22510,22401,34624,16368,5
0.0,0.0,0.0,17880,22510,22510,34624,16222,5
0.0,0.0,0.0,17915,22488,22599,34696,16125,5
0.0,0.0,0.0,17915,22357,22576,34624,16125,5
0.0,0.0,0.0,17915,22292,22532,34412,16157,5
0.0,0.0,0.0,17845,22205,22488,34235,16222,5
0.0,0.0,0.0,17774,22140,22423,34165,16157,5
0.0,0.0,0.0,17704,22053,22379,34130,16141,5
0.0,0.0,0.0,17652,21882,22532,34060,16028,5
0.0,0.0,0.0,17669,21796,22313,33991,15741,5
0.0,0.0,0.0,17634,21818,22313,34235,15741,5
0.0,0.0,0.0,17582,21839,22313,34553,15537,5
0.0,0.0,0.0,17513,21818,22270,35455,15181,5
0.0,0.0,0.0,17547,21754,22183,35127,15013,5
0.0,0.0,0.0,17495,21711,22010,35345,14741,5
0.0,0.0,0.0,17530,21648,22010,35236,14756,5
0.0,0.0,0.0,17687,21648,22053,35309,14741,5
0.0,0.0,0.0,17634,21711,22096,35418,15058,5
0.0,0.0,0.0,17600,22205,22401,35787,15227,5
0.0,0.0,0.0,17495,22183,22313,35602,15366,5
0.0,0.0,0.0,17461,22053,22313,35382,16093,5
0.0,0.0,0.0,17461,22032,22379,35236,16238,5
0.0,0.0,0.0,17374,22010,22313,35091,16222,5
0.0,0.0,0.0,17374,22488,23294,35272,16222,5
0.0,0.0,0.0,17289,22510,23477,35309,16254,5
0.0,0.0,0.0,17169,23067,24873,35787,16157,5
0.0,0.0,0.0,17084,23800,26202,36010,16254,5
0.0,0.0,0.0,17016,24462,27256,35935,16483,5
0.0,0.0,0.0,16915,25216,28414,35676,16865,5
0.0,0.0,0.0,16848,25591,28812,36085,18022,5
0.0,0.0,0.0,16815,25490,28583,35163,18182,5
0.0,0.0,0.0,16815,25490,28329,35639,18272,5
0.0,0.0,0.0,16632,25118,27966,34839,18727,5
0.0,0.0,0.0,16549,24824,27691,34200,19099,5
0.0,0.0,0.0,16549,24702,27499,33748,19099,5
0.0,0.0,0.0,16483,24366,27202,33508,19043,5
0.0,0.0,0.0,16483,24318,27015,33645,18894,5
0.0,0.0,0.0,16434,24223,26935,34200,17845,5
0.0,0.0,0.0,16319,24081,26723,35163,16882,5
0.0,0.0,0.0,16254,23847,26331,36576,16093,5
0.0,0.0,0.0,16109,23522,25996,37543,15615,5
0.0,0.0,0.0,16060,23248,25241,37114,15366,5
0.0,0.0,0.0,15916,22977,24799,37622,15273,5
0.0,0.0,0.0,15900,22955,24606,37622,15150,5
0.0,0.0,0.0,15900,23294,24654,37860,15104,5
0.0,0.0,0.0,15900,24271,25390,39244,15119,5
0.0,0.0,0.0,15900,24702,25971,40216,15211,5
0.0,0.0,0.0,15900,25316,26409,41938,15490,5
0.0,0.0,0.0,15964,25591,26566,42859,15553,5
0.0,0.0,0.0,15964,25742,26618,43046,15584,5
0.0,0.0,0.0,15948,25717,26487,42906,15584,5
0.0,0.0,0.0,16125,25894,26566,43046,15521,5
0.0,0.0,0.0,16222,25869,26618,42906,15412,5
0.0,0.0,0.0,16222,25894,26618,43235,15397,5
0.0,0.0,0.0,16368,25843,26513,43046,15227,5
0.0,0.0,0.0,16815,25793,26461,42906,15089,5
0.0,0.0,0.0,17084,25793,26409,42673,15043,5
0.0,0.0,0.0,17118,25691,26305,42395,15058,5
0.0,0.0,0.0,17634,25641,26202,42120,15043,5
0.0,0.0,0.0,17845,25591,26073,41803,15089,5
0.0,0.0,0.0,17986,25591,26022,41622,15058,5
0.0,0.0,0.0,18272,25540,25945,41757,15104,5
0.0,0.0,0.0,18380,25515,25793,41577,15211,5
0.0,0.0,0.0,18691,25440,25742,41399,15242,5
0.0,0.0,0.0,19080,25415,25641,41044,15258,5
0.0,0.0,0.0,19024,25390,25440,40649,15288,5
0.0,0.0,0.0,19005,25241,25291,40259,15227,5
0.0,0.0,0.0,18894,25044,25241,39790,15211,5
0.0,0.0,0.0,18820,24799,24946,39244,15242,5
0.0,0.0,0.0,18857,24702,24799,38995,15273,5
0.0,0.0,0.0,18820,24558,24702,38830,15288,5
0.0,0.0,0.0,18746,24510,24654,38666,15227,5
0.0,0.0,0.0,18435,24462,24606,38625,15196,5
0.0,0.0,0.0,18075,24462,24534,38341,15119,5
0.0,0.0,0.0,17862,24414,24510,38260,15104,5
0.0,0.0,0.0,17792,24271,24318,38140,14997,5
0.0,0.0,0.0,17634,24199,24318,38180,14937,5
0.0,0.0,0.0,17704,24034,24271,38180,14756,5
0.0,0.0,0.0,17722,23870,24129,38019,14726,5
0.0,0.0,0.0,17704,23248,23661,37308,14771,5
0.0,0.0,0.0,17739,22955,23431,37075,14726,5
0.0,0.0,0.0,17915,22843,23203,36538,14801,5
0.0,0.0,0.0,18057,22576,22977,35712,14816,5
0.0,0.0,0.0,18200,22554,22843,35345,14801,5
0.0,0.0,0.0,18344,22510,22709,35199,14801,5
0.0,0.0,0.0,18453,22357,22599,35055,14846,5
0.0,0.0,0.0,18435,22270,22444,34874,14846,5
0.0,0.0,0.0,18453,22248,22357,34803,14876,5
0.0,0.0,0.0,18417,22183,22335,34696,14816,5
0.0,0.0,0.0,18236,22096,22313,34624,14846,5
0.0,0.0,0.0,17634,22053,22270,34412,14861,5
0.0,0.0,0.0,17237,22010,22226,34447,14891,5
0.0,0.0,0.0,17186,22010,22096,34306,14891,5
0.0,0.0,0.0,17426,21924,22335,33921,14967,5
0.0,0.0,0.0,17634,21882,22313,33991,15028,5
0.0,0.0,0.0,17809,21796,22313,33956,14997,5
0.0,0.0,0.0,17986,21924,22270,33921,15028,5
0.0,0.0,0.0,18200,21818,22248,34026,14967,5
0.0,0.0,0.0,18344,21754,22270,33921,14982,5
0.0,0.0,0.0,18562,21733,22226,33852,15028,5
0.0,0.0,0.0,18931,21733,22183,33852,14997,5
0.0,0.0,0.0,19401,21711,22226,33817,15104,5
0.0,0.0,0.0,20157,21796,22140,33817,15119,5
0.0,0.0,0.0,20798,21733,22226,33852,15119,5
0.0,0.0,0.0,21354,21669,22183,33887,15119,5
0.0,0.0,0.0,22576,21648,22183,33852,15181,5
0.0,0.0,0.0,22532,21606,22183,33991,15211,5
0.0,0.0,0.0,22183,21584,22161,34026,15196,5
0.0,0.0,0.0,22053,21584,22183,34060,15196,5
0.0,0.0,0.0,22010,21542,22183,33991,15181,5
0.0,0.0,0.0,22096,21542,22183,33921,15211,5
0.0,0.0,0.0,22075,21584,22140,33852,15211,5
0.0,0.0,0.0,20696,21711,22161,33783,15181,5
0.0,0.0,0.0,20039,21754,22096,33714,15165,5
0.0,0.0,0.0,19516,21754,22140,33645,15150,5
0.0,0.0,0.0,18654,21775,22096,33611,15211,5
0.0,0.0,0.0,18147,21754,22053,33679,15119,5
0.0,0.0,0.0,17739,21690,22010,33714,14967,5
0.0,0.0,0.0,17582,21627,22053,33887,14876,5
0.0,0.0,0.0,17565,21521,22053,33991,14756,5
0.0,0.0,0.0,17426,21458,21796,34341,14607,5
0.0,0.0,0.0,17374,21208,21479,34060,14444,5
0.0,0.0,0.0,17323,21208,21375,33991,14399,5
0.0,0.0,0.0,17254,21208,21395,33921,14311,5
0.0,0.0,0.0,17289,21125,21375,33991,14253,5
0.0,0.0,0.0,17289,21125,21375,34026,14195,5
0.0,0.0,0.0,17254,21084,21354,33991,14195,5
0.0,0.0,0.0,17289,21064,21375,33991,14166,5
0.0,0.0,0.0,17272,21125,21458,34026,14166,5
0.0,0.0,0.0,17237,21125,21500,34060,14488,5
0.0,0.0,0.0,17186,21125,21500,33921,15789,5
0.0,0.0,0.0,17152,21167,21542,34200,16254,5
0.0,0.0,0.0,17118,21229,21584,34447,15459,5
0.0,0.0,0.0,17152,21167,21542,34518,15028,5
0.0,0.0,0.0,17118,21125,21479,34803,14907,5
0.0,0.0,0.0,17169,21229,21395,34731,14666,5
0.0,0.0,0.0,17152,21229,21312,34518,14429,5
0.0,0.0,0.0,17152,21208,21291,34553,14429,5
0.0,0.0,0.0,17118,21146,21291,34482,14592,5
0.0,0.0,0.0,17118,21208,21291,34376,14726,5
0.0,0.0,0.0,17101,21125,21312,34271,15165,5
0.0,0.0,0.0,17050,21146,21312,34271,15104,5
0.0,0.0,0.0,17016,21125,21375,34200,15043,5
0.0,0.0,0.0,16949,21146,21542,34200,14922,5
0.0,0.0,0.0,16898,21146,21627,33645,14607,5
0.0,0.0,0.0,16882,21105,21606,33337,14488,5
0.0,0.0,0.0,16882,21084,21669,33067,14370,5
0.0,0.0,0.0,16831,21146,21733,33033,14297,5
0.0,0.0,0.0,16815,21125,21860,32566,14224,5
0.0,0.0,0.0,16815,21125,21860,32369,14209,5
0.0,0.0,0.0,16748,21064,21754,33100,14370,5
0.0,0.0,0.0,16715,21043,21584,33887,14861,5
0.0,0.0,0.0,16648,21125,21479,34271,14547,5
0.0,0.0,0.0,16731,21229,21375,34412,14341,5
0.0,0.0,0.0,16681,21208,21333,34271,14370,5
0.0,0.0,0.0,16648,21208,21291,34165,14326,5
0.0,0.0,0.0,16615,21187,21291,34130,14311,5
0.0,0.0,0.0,16615,21146,21333,33783,14967,5
0.0,0.0,0.0,16615,21125,21458,33303,15104,5
0.0,0.0,0.0,16632,21105,21500,32699,14907,5
0.0,0.0,0.0,16615,21084,21563,32238,14741,5
0.0,0.0,0.0,16565,21043,21500,32173,14577,5
0.0,0.0,0.0,16549,21002,21542,32043,14488,5
0.0,0.0,0.0,16632,21064,21500,32140,14488,5
0.0,0.0,0.0,16565,21064,21500,32108,14532,5
0.0,0.0,0.0,16532,20981,21542,32108,14444,5
0.0,0.0,0.0,16516,21084,21542,32010,14488,5
0.0,0.0,0.0,16483,21043,21542,32173,14532,5
0.0,0.0,0.0,16549,21022,21458,32633,14816,5
0.0,0.0,0.0,16516,20981,21458,32666,14907,5
0.0,0.0,0.0,16565,21043,21458,32566,14786,5
0.0,0.0,0.0,16882,21022,21416,32500,14861,5
0.0,0.0,0.0,17634,21125,21437,32467,14816,5
0.0,0.0,0.0,18236,21125,21458,32533,14922,5
0.0,0.0,0.0,18362,21208,21458,32369,14952,5
0.0,0.0,0.0,18417,21167,21437,32402,14952,5
0.0,0.0,0.0,18526,21208,21458,32467,14907,5
0.0,0.0,0.0,18857,21167,21458,32566,14786,5
0.0,0.0,0.0,18508,21125,21458,32633,14801,5
0.0,0.0,0.0,16983,21125,21395,32699,14771,5
0.0,0.0,0.0,15615,21002,21437,32699,14786,5
0.0,0.0,0.0,15104,21002,21395,32699,14681,5
0.0,0.0,0.0,14876,21022,21375,32633,14726,5
0.0,0.0,0.0,14967,20961,21375,32699,14681,5
0.0,0.0,0.0,15211,20961,21395,32765,14696,5
0.0,0.0,0.0,15397,21043,21375,32765,14696,5
0.0,0.0,0.0,15459,20981,21395,32765,14636,5
0.0,0.0,0.0,15506,20981,21416,32765,14666,5
0.0,0.0,0.0,15584,20981,21416,32899,14696,5
0.0,0.0,0.0,15694,20920,21416,32832,14726,5
0.0,0.0,0.0,16157,20981,21416,32899,14756,5
0.0,0.0,0.0,16831,21105,21500,33100,14876,5
0.0,0.0,0.0,17565,21105,21479,33134,14876,5
0.0,0.0,0.0,18075,21167,21521,33337,14861,5
0.0,0.0,0.0,18489,21208,21542,33337,14876,5
0.0,0.0,0.0,19005,21187,21542,33337,14846,5
0.0,0.0,0.0,19080,21125,21563,33508,14922,5
0.0,0.0,0.0,18949,21105,21542,33576,14907,5
0.0,0.0,0.0,18672,21064,21563,33611,14922,5
0.0,0.0,0.0,18308,21043,21563,33576,14937,5
0.0,0.0,0.0,18129,20981,21542,33645,14967,5
0.0,0.0,0.0,17880,20961,21627,33645,14937,5
0.0,0.0,0.0,17722,20920,21542,33576,14922,5
0.0,0.0,0.0,17739,20920,21479,33542,14997,5
0.0,0.0,0.0,17652,20879,21479,33474,15013,5
0.0,0.0,0.0,17600,20798,21458,33405,14982,5
0.0,0.0,0.0,17495,20757,21479,33405,15028,5
0.0,0.0,0.0,17374,20818,21479,33303,15043,5
0.0,0.0,0.0,17289,20757,21500,33439,15058,5
0.0,0.0,0.0,17220,20737,21521,33337,15028,5
0.0,0.0,0.0,17169,20716,21458,33337,15028,5
0.0,0.0,0.0,17118,20777,21458,33303,15013,5
0.0,0.0,0.0,16748,20798,21479,33576,15119,5
0.0,0.0,0.0,16582,20879,21627,33645,15058,5
0.0,0.0,0.0,16549,20838,21627,33645,15043,5
0.0,0.0,0.0,16417,20838,21648,33576,15058,5
0.0,0.0,0.0,16287,20818,21627,33576,15165,5
0.0,0.0,0.0,16060,20757,21627,33439,15119,5
0.0,0.0,0.0,14922,20757,21627,33303,15273,5
0.0,0.0,0.0,14370,20716,21606,33337,15258,5
0.0,0.0,0.0,14079,20676,21542,33303,15242,5
0.0,0.0,0.0,14151,20636,21606,33303,15273,5
0.0,0.0,0.0,14786,20676,21500,33269,15273,5
0.0,0.0,0.0,14982,20656,21542,33303,15273,5
0.0,0.0,0.0,14547,20737,21542,33371,15273,5
0.0,0.0,0.0,13863,20838,21627,33508,15258,5
0.0,0.0,0.0,13482,20818,21648,33611,15273,5
0.0,0.0,0.0,13260,20899,21627,33679,15304,5
0.0,0.0,0.0,13122,20920,21648,33611,15288,5
0.0,0.0,0.0,13013,20838,21648,33576,15288,5
0.0,0.0,0.0,12972,20838,21627,33645,15319,5
0.0,0.0,0.0,12972,20838,21627,33611,15366,5
0.0,0.0,0.0,12986,20798,21627,33576,15350,5
0.0,0.0,0.0,13040,20798,21627,33508,15443,5
0.0,0.0,0.0,13205,20818,21627,33542,15490,5
0.0,0.0,0.0,13371,20818,21669,33508,15553,5
0.0,0.0,0.0,13978,20798,21690,33508,15459,5
0.0,0.0,0.0,14444,20737,21669,33542,15428,5
0.0,0.0,0.0,14696,20798,21796,33611,15459,5
0.0,0.0,0.0,14786,20818,21796,33576,15490,5
0.0,0.0,0.0,14458,20798,21754,33576,15428,5
0.0,0.0,0.0,14180,20818,21796,33576,15490,5
0.0,0.0,0.0,13921,20838,21754,33576,15521,5
0.0,0.0,0.0,13594,20818,21818,33611,15521,5
0.0,0.0,0.0,13287,20920,21796,33508,15584,5
0.0,0.0,0.0,13357,20899,21903,33576,15553,5
0.0,0.0,0.0,13371,20920,21903,33542,15584,5
0.0,0.0,0.0,13301,20899,21924,33576,15584,5
0.0,0.0,0.0,13468,20899,21903,33576,15584,5
0.0,0.0,0.0,13679,20899,21924,33576,15584,5
0.0,0.0,0.0,13964,20961,21924,33576,15647,5
0.0,0.0,0.0,15013,20961,21967,33576,15647,5
0.0,0.0,0.0,14967,20940,22010,33134,15647,5
0.0,0.0,0.0,14607,20961,22010,33033,15647,5
0.0,0.0,0.0,14429,20920,21924,33611,15600,5
0.0,0.0,0.0,14370,20879,22010,33033,15600,5
0.0,0.0,0.0,14079,20859,22010,33033,15647,5
0.0,0.0,0.0,13792,20879,21924,33542,15663,5
0.0,0.0,0.0,14370,20899,21924,33542,15710,5
0.0,0.0,0.0,14621,20920,21903,33508,15678,5
0.0,0.0,0.0,14666,20961,21882,33303,15678,5
0.0,0.0,0.0,14253,21002,21882,33303,15710,5
0.0,0.0,0.0,14195,21105,21882,33202,15726,5
0.0,0.0,0.0,13964,21125,21882,33067,15726,5
0.0,0.0,0.0,13806,21105,21882,33033,15710,5
0.0,0.0,0.0,13650,21084,21839,33067,15710,5
0.0,0.0,0.0,13538,21064,21860,33067,15710,5
0.0,0.0,0.0,13454,21043,21882,33033,15741,5
0.0,0.0,0.0,13412,20961,21839,33067,15726,5
0.0,0.0,0.0,13454,20961,21882,32966,15710,5
0.0,0.0,0.0,13749,20920,21839,32899,15726,5
0.0,0.0,0.0,13821,20899,21818,32966,15710,5
0.0,0.0,0.0,14021,20879,21839,32999,15726,5
0.0,0.0,0.0,13454,20920,21839,33033,15710,5
0.0,0.0,0.0,12770,20961,22010,32699,15773,5
0.0,0.0,0.0,12477,21064,22075,32899,15773,5
0.0,0.0,0.0,12267,21105,22118,32899,15789,5
0.0,0.0,0.0,12267,21125,22053,32866,15773,5
0.0,0.0,0.0,12932,21125,22096,32899,15773,5
0.0,0.0,0.0,13136,21125,22075,32832,15789,5
0.0,0.0,0.0,13232,21167,22075,32765,15789,5
0.0,0.0,0.0,13150,21125,22053,32765,15868,5
0.0,0.0,0.0,13027,21105,22053,32765,15837,5
0.0,0.0,0.0,12543,21084,22053,32666,15773,5
0.0,0.0,0.0,12424,21043,22010,32633,15773,5
0.0,0.0,0.0,12543,21064,22010,32699,15773,5
0.0,0.0,0.0,12490,21043,21967,33100,15757,5
0.0,0.0,0.0,12477,21002,22010,32599,15805,5
0.0,0.0,0.0,12438,21043,22010,32566,15773,5
0.0,0.0,0.0,12293,21022,22010,32500,15789,5
0.0,0.0,0.0,12060,20961,21967,33100,15773,5
0.0,0.0,0.0,12060,21043,22010,32599,15773,5
0.0,0.0,0.0,12293,20961,21924,33100,15726,5
0.0,0.0,0.0,12346,21002,21924,33100,15789,5
0.0,0.0,0.0,12543,20981,21882,33033,15773,5
0.0,0.0,0.0,12009,21002,21882,33100,15805,5
0.0,0.0,0.0,11603,21043,21924,33067,15789,5
0.0,0.0,0.0,11428,21002,21903,33067,15710,5
0.0,0.0,0.0,11354,21002,21860,33033,15773,5
0.0,0.0,0.0,11268,21043,21882,33067,15837,5
0.0,0.0,0.0,11317,20981,21903,33033,15837,5
0.0,0.0,0.0,11553,20961,21860,32999,15837,5
0.0,0.0,0.0,11678,20920,21903,33067,15852,5
0.0,0.0,0.0,11615,20920,21882,33067,15837,5
0.0,0.0,0.0,11590,20879,21882,33067,15837,5
0.0,0.0,0.0,11453,20879,21882,33033,15837,5
0.0,0.0,0.0,11428,20899,21903,33168,15837,5
0.0,0.0,0.0,11416,20879,21924,33202,15837,5
0.0,0.0,0.0,12346,20818,21924,33033,15900,5
0.0,0.0,0.0,12504,20838,21882,33033,15900,5
0.0,0.0,0.0,12770,20838,21924,32932,15868,5
0.0,0.0,0.0,13013,20899,21924,32899,15916,5
0.0,0.0,0.0,12905,20859,21924,32899,15900,5
0.0,0.0,0.0,14021,20961,21924,32832,15932,5
0.0,0.0,0.0,13806,20838,21924,32866,15932,5
0.0,0.0,0.0,13849,20899,21882,32832,15948,5
0.0,0.0,0.0,13764,20879,21946,32799,15964,5
0.0,0.0,0.0,13735,20879,21903,32699,15964,5
0.0,0.0,0.0,13552,20838,21882,32699,15980,5
0.0,0.0,0.0,13398,20798,21818,32732,15916,5
0.0,0.0,0.0,13287,20798,21860,32765,15900,5
0.0,0.0,0.0,13122,20777,21839,32732,15900,5
0.0,0.0,0.0,13040,20777,21903,32799,15900,5
0.0,0.0,0.0,12743,20777,21882,32699,15932,5
0.0,0.0,0.0,12086,20716,21903,32765,15932,5
0.0,0.0,0.0,10748,20757,21860,32633,15916,5
0.0,0.0,0.0,10301,20737,21882,32599,15932,5
0.0,0.0,0.0,10244,20757,21882,32599,15964,5
0.0,0.0,0.0,10209,20737,21839,32633,15916,5
0.0,0.0,0.0,10071,20716,21818,32599,15964,5
0.0,0.0,0.0,10049,20716,21882,32566,15916,5
0.0,0.0,0.0,10106,20716,21839,32633,15916,5
0.0,0.0,0.0,10071,20676,21839,32500,15964,5
0.0,0.0,0.0,10026,20676,21818,32435,15900,5
0.0,0.0,0.0,10037,20676,21818,32435,15916,5
0.0,0.0,0.0,9980,20676,21818,32402,15900,5
0.0,0.0,0.0,10117,20716,21839,32369,15916,5
0.0,0.0,0.0,10348,20716,21818,32369,15900,5
0.0,0.0,0.0,11012,20716,21839,32303,15900,5
0.0,0.0,0.0,11268,20757,21818,32336,15948,5
0.0,0.0,0.0,11304,20757,21839,32402,15996,5
0.0,0.0,0.0,11255,20737,21839,32303,15996,5
0.0,0.0,0.0,11403,20757,21818,32303,16028,5
0.0,0.0,0.0,11678,20716,21818,32369,15996,5
0.0,0.0,0.0,12073,20777,21818,32369,16012,5
0.0,0.0,0.0,12021,20818,21818,32402,16060,5
0.0,0.0,0.0,11855,20818,21839,32369,16044,5
0.0,0.0,0.0,11804,20838,21882,32369,16076,5
0.0,0.0,0.0,11703,20859,21882,32435,16060,5
0.0,0.0,0.0,11653,20899,21839,32402,16028,5
0.0,0.0,0.0,11640,20899,21882,32369,16028,5
0.0,0.0,0.0,11465,20879,21882,32303,16028,5
0.0,0.0,0.0,10724,20798,21818,32238,15996,5
0.0,0.0,0.0,10301,20798,21796,32173,15964,5
0.0,0.0,0.0,10255,20737,21796,32238,15980,5
0.0,0.0,0.0,10221,20757,21796,32238,15964,5
0.0,0.0,0.0,10174,20798,21796,32173,15932,5
0.0,0.0,0.0,10255,20798,21818,32108,15964,5
0.0,0.0,0.0,10232,20818,21796,32108,15980,5
0.0,0.0,0.0,10325,20879,21818,32108,16028,5
0.0,0.0,0.0,10325,20859,21818,32108,16028,5
0.0,0.0,0.0,10313,20879,21839,32108,15964,5
0.0,0.0,0.0,10313,20879,21775,32140,15805,5
0.0,0.0,0.0,10359,20920,21860,32238,15647,5
0.0,0.0,0.0,10771,20899,21839,32402,15211,5
0.0,0.0,0.0,10700,20879,21839,32932,14756,5
0.0,0.0,0.0,10676,20818,21839,33168,14681,5
0.0,0.0,0.0,10488,20757,21818,32966,14666,5
0.0,0.0,0.0,10359,20757,21775,32899,14696,5
0.0,0.0,0.0,10278,20716,21796,32799,14666,5
0.0,0.0,0.0,10301,20676,21711,32633,14547,5
0.0,0.0,0.0,10394,20716,21733,32566,14547,5
0.0,0.0,0.0,10394,20716,21711,32666,14607,5
0.0,0.0,0.0,10406,20716,21690,32435,14636,5
0.0,0.0,0.0,10418,20737,21690,32467,14666,5
0.0,0.0,0.0,10348,20716,21627,32500,14666,5
0.0,0.0,0.0,10394,20636,21733,32633,14711,5
0.0,0.0,0.0,10605,20757,21796,32899,14726,5
0.0,0.0,0.0,10807,20818,21860,33236,14741,5
0.0,0.0,0.0,10748,20879,21882,33269,14771,5
0.0,0.0,0.0,10535,20838,21882,33303,14741,5
0.0,0.0,0.0,10535,20838,21882,33202,14876,5
0.0,0.0,0.0,10535,20818,21796,33236,14922,5
0.0,0.0,0.0,10523,20798,21733,33033,14997,5
0.0,0.0,0.0,10406,20777,21733,32966,15089,5
0.0,0.0,0.0,10325,20798,21711,32899,15058,5
0.0,0.0,0.0,10383,20757,21648,32899,15058,5
0.0,0.0,0.0,10963,20716,21711,32932,15043,5
0.0,0.0,0.0,11578,20757,21669,32999,15089,5
0.0,0.0,0.0,12504,20716,21648,32932,15058,5
0.0,0.0,0.0,12864,20716,21648,32966,15058,5
0.0,0.0,0.0,12610,20696,21648,32932,15058,5
0.0,0.0,0.0,12583,20696,21627,32932,15058,5
0.0,0.0,0.0,12293,20716,21648,32966,15058,5
0.0,0.0,0.0,12086,20696,21627,32899,14982,5
0.0,0.0,0.0,11465,20636,21627,32832,14907,5
0.0,0.0,0.0,11060,20636,21542,32402,14967,5
0.0,0.0,0.0,10771,20435,21291,31624,15104,5
0.0,0.0,0.0,10488,19921,20295,29895,15553,5
0.0,0.0,0.0,10383,19099,18968,27581,15678,5
0.0,0.0,0.0,10394,19099,18968,27581,15678,5
0.0,0.0,0.0,10418,19231,19099,27911,15584,5
0.0,0.0,0.0,10406,19249,19155,27994,15584,5
0.0,0.0,0.0,10441,19306,19193,28022,15710,5
0.0,0.0,0.0,10406,19268,19231,28022,15741,5
0.0,0.0,0.0,10418,19535,19612,28527,15741,5
0.0,0.0,0.0,10464,19941,20078,29450,15789,5
0.0,0.0,0.0,10688,20716,21064,31087,15663,5
0.0,0.0,0.0,10700,20818,21250,31593,15273,5
0.0,0.0,0.0,11280,20716,21146,31339,15058,5
0.0,0.0,0.0,11754,20636,21125,31087,14876,5
0.0,0.0,0.0,12137,20636,21043,31087,14741,5
0.0,0.0,0.0,12320,20495,21002,30962,14786,5
0.0,0.0,0.0,12280,20515,21043,31087,14846,5
0.0,0.0,0.0,12112,20555,21043,31087,14846,5
0.0,0.0,0.0,11983,20515,21043,30962,14876,5
0.0,0.0,0.0,11817,20455,21043,30931,14907,5
0.0,0.0,0.0,11403,20475,21022,30776,14967,5
0.0,0.0,0.0,11182,20475,20981,30776,15028,5
0.0,0.0,0.0,11231,20475,20981,30715,15089,5
0.0,0.0,0.0,11206,20375,21043,30776,15119,5
0.0,0.0,0.0,11304,20435,20961,30715,15150,5
0.0,0.0,0.0,11403,20435,20981,30684,15211,5
0.0,0.0,0.0,11366,20375,21002,30715,15273,5
0.0,0.0,0.0,11354,20435,21002,30715,15273,5
0.0,0.0,0.0,10831,20395,20981,30653,15304,5
0.0,0.0,0.0,10951,20435,20981,30715,15397,5
0.0,0.0,0.0,11157,20435,20961,30715,15459,5
0.0,0.0,0.0,11133,20455,20961,30715,15490,5
0.0,0.0,0.0,11157,20435,20981,30622,15428,5
0.0,0.0,0.0,11121,20455,21022,30715,15537,5
0.0,0.0,0.0,11109,20415,21002,30684,15490,5
0.0,0.0,0.0,11072,20475,21043,30715,15537,5
0.0,0.0,0.0,11243,20475,21084,30838,15568,5
0.0,0.0,0.0,11255,20515,21146,30962,15600,5
0.0,0.0,0.0,11354,20495,21105,31056,15615,5
0.0,0.0,0.0,11379,20575,21167,31119,15647,5
0.0,0.0,0.0,11255,20575,21167,31087,15647,5
0.0,0.0,0.0,11255,20535,21167,31181,15647,5
0.0,0.0,0.0,11231,20515,21208,31150,15647,5
0.0,0.0,0.0,11329,20535,21167,31150,15663,5
0.0,0.0,0.0,11366,20515,21229,31276,15694,5
0.0,0.0,0.0,11416,20555,21208,31244,15647,5
0.0,0.0,0.0,11329,20575,21208,31244,15600,5
0.0,0.0,0.0,11231,20475,21187,31213,15584,5
0.0,0.0,0.0,10831,20495,21187,31087,15537,5
0.0,0.0,0.0,10915,20515,21208,31213,15584,5
0.0,0.0,0.0,11109,20555,21208,31529,15584,5
0.0,0.0,0.0,11317,20575,21208,31624,15584,5
0.0,0.0,0.0,11391,20595,21250,31688,15568,5
0.0,0.0,0.0,11304,20555,21291,31785,15584,5
0.0,0.0,0.0,11206,20595,21291,31720,15537,5
0.0,0.0,0.0,10867,20555,21291,31720,15521,5
0.0,0.0,0.0,10688,20555,21208,31624,15521,5
0.0,0.0,0.0,11157,20555,21208,31593,15459,5
0.0,0.0,0.0,11603,20555,21208,31624,15475,5
0.0,0.0,0.0,11957,20495,21208,31593,15521,5
0.0,0.0,0.0,11779,20515,21208,31593,15490,5
0.0,0.0,0.0,11957,20475,21270,31688,15584,5
0.0,0.0,0.0,11855,20515,21291,31688,15537,5
0.0,0.0,0.0,11766,20495,21291,31656,15553,5
0.0,0.0,0.0,11653,20495,21250,31624,15584,5
0.0,0.0,0.0,11490,20495,21270,31593,15553,5
0.0,0.0,0.0,11354,20495,21250,31624,15537,5
0.0,0.0,0.0,10987,20475,21291,31593,15584,5
0.0,0.0,0.0,10441,20495,21229,31529,15600,5
0.0,0.0,0.0,10301,20475,21250,31624,15584,5
0.0,0.0,0.0,10511,20475,21229,31593,15553,5
0.0,0.0,0.0,10582,20475,21250,31561,15584,5
0.0,0.0,0.0,10629,20435,21250,31529,15615,5
0.0,0.0,0.0,10605,20475,21250,31529,15600,5
0.0,0.0,0.0,10594,20475,21250,31593,15600,5
0.0,0.0,0.0,10535,20475,21250,31497,15600,5
0.0,0.0,0.0,10441,20495,21208,31529,15584,5
0.0,0.0,0.0,10371,20515,21229,31529,15553,5
0.0,0.0,0.0,10348,20495,21250,31465,15584,5
0.0,0.0,0.0,10464,20595,21250,31593,15521,5
0.0,0.0,0.0,10546,20716,21291,32108,15443,5
0.0,0.0,0.0,10676,20879,21416,32765,15211,5
0.0,0.0,0.0,10629,20818,21416,32699,15135,5
0.0,0.0,0.0,10511,20818,21375,32799,15058,5
0.0,0.0,0.0,10441,20757,21375,32765,14907,5
0.0,0.0,0.0,10336,20757,21333,32666,14756,5
0.0,0.0,0.0,10255,20716,21229,32533,14696,5
0.0,0.0,0.0,10209,20636,21208,32533,14741,5
0.0,0.0,0.0,10209,20575,21146,32369,14922,5
0.0,0.0,0.0,10163,20575,21125,32303,14907,5
0.0,0.0,0.0,10163,20636,21125,32271,14907,5
0.0,0.0,0.0,10163,20555,21084,32238,14876,5
0.0,0.0,0.0,10129,20475,21064,32173,14907,5
0.0,0.0,0.0,10117,20495,21002,32043,14907,5
0.0,0.0,0.0,10049,20475,21002,31978,14876,5
0.0,0.0,0.0,10003,20475,20961,32075,14831,5
0.0,0.0,0.0,9969,20475,20981,31978,14861,5
0.0,0.0,0.0,10003,20475,20920,31913,14816,5
0.0,0.0,0.0,10049,20475,20920,31978,14846,5
0.0,0.0,0.0,10140,20435,20961,31913,14891,5
0.0,0.0,0.0,10209,20415,20961,31978,14876,5
0.0,0.0,0.0,10371,20435,20981,31946,14907,5
0.0,0.0,0.0,10975,20435,20940,31913,14982,5
0.0,0.0,0.0,11855,20495,20961,32010,15089,5
0.0,0.0,0.0,12663,20515,20981,32108,15058,5
0.0,0.0,0.0,13205,20475,20981,32108,15028,5
0.0,0.0,0.0,13398,20495,20981,32108,15043,5
0.0,0.0,0.0,13260,20455,20961,32108,15013,5
0.0,0.0,0.0,12918,20415,20961,32010,14982,5
0.0,0.0,0.0,12756,20455,20981,32108,14967,5
0.0,0.0,0.0,12623,20435,20981,32010,14967,5
0.0,0.0,0.0,11716,20435,20961,31913,14967,5
0.0,0.0,0.0,11403,20575,20961,31978,14922,5
0.0,0.0,0.0,11528,20676,20961,31978,14907,5
0.0,0.0,0.0,11366,20636,20920,31978,14876,5
0.0,0.0,0.0,11121,20636,20899,31849,15089,5
0.0,0.0,0.0,10759,20575,20879,31593,15258,5
0.0,0.0,0.0,10676,20595,20859,31339,15104,5
0.0,0.0,0.0,10700,20575,20859,31244,15119,5
0.0,0.0,0.0,10748,20595,20818,31213,15013,5
0.0,0.0,0.0,10676,20515,20798,31087,14891,5
0.0,0.0,0.0,10641,20535,20879,31339,14861,5
0.0,0.0,0.0,10653,20435,20838,31434,15490,5
0.0,0.0,0.0,10629,20475,20777,31465,15553,5
0.0,0.0,0.0,10629,20395,20798,31465,15459,5
0.0,0.0,0.0,10605,20395,20777,31529,15397,5
0.0,0.0,0.0,10629,20395,20737,31497,15335,5
0.0,0.0,0.0,10712,20415,20757,31624,15258,5
0.0,0.0,0.0,10951,20475,20818,31720,15211,5
0.0,0.0,0.0,11553,20716,20981,32435,15150,5
0.0,0.0,0.0,12583,20798,21105,32566,15089,5
0.0,0.0,0.0,12810,20716,21043,32402,15013,5
0.0,0.0,0.0,12596,20676,21002,32238,14967,5
0.0,0.0,0.0,12810,20737,20981,32205,14907,5
0.0,0.0,0.0,13287,20716,20920,32043,14831,5
0.0,0.0,0.0,12517,20676,20920,32075,14786,5
0.0,0.0,0.0,12254,20636,20879,32010,14771,5
0.0,0.0,0.0,12021,20535,20879,32010,14801,5
0.0,0.0,0.0,11817,20495,20818,32010,14831,5
0.0,0.0,0.0,11416,20395,20859,32108,14861,5
0.0,0.0,0.0,11012,20355,20879,32010,15043,5
0.0,0.0,0.0,10807,20315,20920,31978,14982,5
0.0,0.0,0.0,10771,20315,21043,31213,14666,5
0.0,0.0,0.0,10771,20256,21125,30226,14473,5
0.0,0.0,0.0,10748,20275,21208,29509,14429,5
0.0,0.0,0.0,10748,20315,21250,29450,14458,5
0.0,0.0,0.0,10724,20315,21229,29391,14399,5
0.0,0.0,0.0,10783,20236,21146,29984,14756,5
0.0,0.0,0.0,11243,20236,21084,30591,15242,5
0.0,0.0,0.0,12372,20275,20981,30745,15181,5
0.0,0.0,0.0,13566,20355,20920,30653,14846,5
0.0,0.0,0.0,13693,20435,20899,30530,14681,5
0.0,0.0,0.0,13764,20415,20899,30408,14666,5
0.0,0.0,0.0,13371,20395,20838,30408,14756,5
0.0,0.0,0.0,13232,20355,20838,30408,14666,5
0.0,0.0,0.0,13095,20315,20818,30347,14621,5
0.0,0.0,0.0,12959,20335,20798,30256,14607,5
0.0,0.0,0.0,11893,20275,20798,30317,14666,5
0.0,0.0,0.0,11728,20275,20737,30226,14681,5
0.0,0.0,0.0,11754,20295,20798,30256,14726,5
0.0,0.0,0.0,11754,20216,20757,30226,14726,5
0.0,0.0,0.0,11615,20236,20757,30195,14696,5
0.0,0.0,0.0,11590,20236,20798,30256,14756,5
0.0,0.0,0.0,11628,20275,20798,30195,14786,5
0.0,0.0,0.0,11703,20236,20757,30226,14726,5
0.0,0.0,0.0,11804,20236,20737,30045,14741,5
0.0,0.0,0.0,12124,20236,20777,30226,14786,5
0.0,0.0,0.0,12690,20176,20757,30105,14741,5
0.0,0.0,0.0,13122,20157,20716,30165,14756,5
0.0,0.0,0.0,12972,20196,20798,30165,14801,5
0.0,0.0,0.0,13136,20157,20716,30135,14741,5
0.0,0.0,0.0,13274,20216,20737,30105,14756,5
0.0,0.0,0.0,13232,20157,20798,30075,14816,5
0.0,0.0,0.0,13510,20157,20716,30105,14726,5
0.0,0.0,0.0,13735,20157,20737,30045,14741,5
0.0,0.0,0.0,13735,20176,20716,30075,14771,5
0.0,0.0,0.0,13707,20157,20757,30105,14816,5
0.0,0.0,0.0,13735,20117,20676,29984,14816,5
0.0,0.0,0.0,13594,20157,20696,29955,14846,5
0.0,0.0,0.0,13510,20157,20656,29984,14907,5
0.0,0.0,0.0,13538,20098,20676,30015,14997,5
0.0,0.0,0.0,13482,20078,20656,29865,14922,5
0.0,0.0,0.0,13468,20078,20676,29925,14937,5
0.0,0.0,0.0,13398,20117,20656,29925,14952,5
0.0,0.0,0.0,13454,20078,20656,29925,14907,5
0.0,0.0,0.0,13538,20117,20636,29805,14907,5
0.0,0.0,0.0,13510,20078,20676,29865,14876,5
0.0,0.0,0.0,13566,20078,20656,29805,14922,5
0.0,0.0,0.0,13566,20078,20636,29746,14907,5
0.0,0.0,0.0,13524,20078,20636,29746,14982,5
0.0,0.0,0.0,13468,20098,20676,29746,14997,5
0.0,0.0,0.0,13454,20078,20676,29746,15043,5
0.0,0.0,0.0,13398,20039,20676,29746,15089,5
0.0,0.0,0.0,13371,20078,20636,29686,15058,5
0.0,0.0,0.0,13398,20078,20615,29686,15089,5
0.0,0.0,0.0,13454,20039,20636,29627,15058,5
0.0,0.0,0.0,13468,20078,20676,29686,15058,5
0.0,0.0,0.0,13412,20078,20595,29686,15089,5
0.0,0.0,0.0,13398,20078,20555,29479,15104,5
0.0,0.0,0.0,13384,20078,20595,29627,15058,5
0.0,0.0,0.0,13482,20078,20575,29627,15089,5
0.0,0.0,0.0,14137,20058,20575,29627,15119,5
0.0,0.0,0.0,14326,20078,20595,29538,15058,5
0.0,0.0,0.0,14282,19999,20595,29627,15104,5
0.0,0.0,0.0,13964,20019,20575,29538,15119,5
0.0,0.0,0.0,13764,20039,20555,29538,15119,5
0.0,0.0,0.0,13849,20019,20575,29509,15104,5
0.0,0.0,0.0,14021,20078,20595,29538,15089,5
0.0,0.0,0.0,13964,20039,20595,29479,15104,5
0.0,0.0,0.0,13978,20019,20555,29509,15150,5
0.0,0.0,0.0,13992,20039,20595,29509,15181,5
0.0,0.0,0.0,13978,19980,20595,29509,15135,5
0.0,0.0,0.0,14195,20019,20575,29450,15211,5
0.0,0.0,0.0,14195,19999,20555,29450,15165,5
0.0,0.0,0.0,14370,19960,20575,29509,15181,5
0.0,0.0,0.0,14399,20039,20575,29509,15211,5
0.0,0.0,0.0,14326,20039,20575,29421,15211,5
0.0,0.0,0.0,14370,20078,20595,29509,15211,5
0.0,0.0,0.0,14311,20019,20575,29450,15211,5
0.0,0.0,0.0,14151,20019,20555,29509,15181,5
0.0,0.0,0.0,14036,19999,20575,29421,15211,5
0.0,0.0,0.0,13964,19999,20555,29479,15211,5
0.0,0.0,0.0,13906,20039,20555,29333,15242,5
0.0,0.0,0.0,13821,19999,20555,29450,15227,5
0.0,0.0,0.0,13849,20039,20615,29479,15273,5
0.0,0.0,0.0,13764,19941,20575,29450,15273,5
0.0,0.0,0.0,13749,20058,20555,29391,15273,5
0.0,0.0,0.0,13764,20019,20636,29421,15273,5
0.0,0.0,0.0,13764,19999,20555,29391,15288,5
0.0,0.0,0.0,13749,19999,20555,29391,15273,5
0.0,0.0,0.0,13735,19999,20575,29450,15273,5
0.0,0.0,0.0,13792,19999,20555,29450,15288,5
0.0,0.0,0.0,13693,19999,20555,29450,15273,5
0.0,0.0,0.0,13679,19960,20555,29509,15273,5
0.0,0.0,0.0,13679,20019,20636,29509,15273,5
0.0,0.0,0.0,13806,19999,20575,29509,15258,5
0.0,0.0,0.0,13806,19999,20555,29509,15273,5
0.0,0.0,0.0,13721,20039,20575,29450,15242,5
0.0,0.0,0.0,13440,19999,20575,29538,15288,5
0.0,0.0,0.0,13177,20019,20595,29421,15273,5
0.0,0.0,0.0,12810,19999,20595,29450,15288,5
0.0,0.0,0.0,12451,19999,20595,29421,15273,5
0.0,0.0,0.0,12267,20039,20595,29450,15335,5
0.0,0.0,0.0,12163,20078,20575,29421,15335,5
0.0,0.0,0.0,12009,20019,20575,29450,15335,5
0.0,0.0,0.0,11817,20019,20595,29421,15304,5
0.0,0.0,0.0,11603,20019,20555,29391,15350,5
0.0,0.0,0.0,11354,19999,20575,29362,15366,5
0.0,0.0,0.0,11084,20039,20555,29333,15350,5
0.0,0.0,0.0,10783,20078,20575,29304,15397,5
0.0,0.0,0.0,10771,20019,20575,29304,15350,5
0.0,0.0,0.0,10867,20019,20555,29304,15366,5
0.0,0.0,0.0,10523,20019,20575,29304,15397,5
0.0,0.0,0.0,10301,19999,20575,29333,15366,5
0.0,0.0,0.0,10255,19999,20555,29274,15366,5
0.0,0.0,0.0,10174,19999,20555,29245,15397,5
0.0,0.0,0.0,10174,19960,20495,29274,15459,5
0.0,0.0,0.0,10129,19960,20495,29274,15428,5
0.0,0.0,0.0,10026,19960,20495,29216,15506,5
0.0,0.0,0.0,10026,19999,20515,29274,15443,5
0.0,0.0,0.0,10003,20019,20495,29187,15397,5
0.0,0.0,0.0,10026,20058,20555,29158,15412,5
0.0,0.0,0.0,10071,20039,20515,29216,15366,5
0.0,0.0,0.0,10117,20039,20515,29274,15366,5
0.0,0.0,0.0,10348,20078,20636,29509,15459,5
0.0,0.0,0.0,10676,20315,20981,30105,15710,5
0.0,0.0,0.0,10724,20495,21125,30347,15678,5
0.0,0.0,0.0,10641,20455,21125,30347,15647,5
0.0,0.0,0.0,10605,20415,21146,30469,15584,5
0.0,0.0,0.0,10546,20415,21125,30377,15584,5
0.0,0.0,0.0,10546,20475,21146,30530,15521,5
0.0,0.0,0.0,10819,20455,21208,30653,15490,5
0.0,0.0,0.0,10927,20475,21208,30591,15459,5
0.0,0.0,0.0,10963,20455,21208,30591,15459,5
0.0,0.0,0.0,11096,20415,21187,30591,15490,5
0.0,0.0,0.0,11182,20515,21291,30776,15521,5
0.0,0.0,0.0,11219,20676,21458,30900,15490,5
0.0,0.0,0.0,11194,20656,21416,30776,15490,5
0.0,0.0,0.0,11084,20636,21375,30776,15459,5
0.0,0.0,0.0,11024,20575,21291,30591,15397,5
0.0,0.0,0.0,10939,20555,21333,30499,15428,5
0.0,0.0,0.0,10903,20495,21333,30530,15459,5
0.0,0.0,0.0,10867,20555,21291,30377,15428,5
0.0,0.0,0.0,10748,20475,21250,30317,15397,5
0.0,0.0,0.0,10535,20435,21270,30347,15412,5
0.0,0.0,0.0,10582,20375,21208,30347,15397,5
0.0,0.0,0.0,10629,20315,21167,30347,15428,5
0.0,0.0,0.0,10759,20335,21208,30377,15412,5
0.0,0.0,0.0,10867,20395,21250,30469,15412,5
0.0,0.0,0.0,10987,20415,21250,30469,15490,5
0.0,0.0,0.0,11012,20435,21250,30530,15521,5
0.0,0.0,0.0,10903,20475,21291,30499,15459,5
0.0,0.0,0.0,10795,20395,21250,30469,15428,5
0.0,0.0,0.0,10748,20355,21250,30499,15428,5
0.0,0.0,0.0,10676,20395,21208,30438,15459,5
0.0,0.0,0.0,10629,20395,21167,30377,15490,5
0.0,0.0,0.0,10664,20375,21146,30377,15475,5
0.0,0.0,0.0,10653,20395,21105,30408,15288,5
0.0,0.0,0.0,10641,20395,21064,30962,15089,5
0.0,0.0,0.0,10582,20415,20981,31087,14967,5
0.0,0.0,0.0,10605,20495,20981,31402,14846,5
0.0,0.0,0.0,10939,20676,21229,31720,14846,5
0.0,0.0,0.0,11354,21002,21521,32075,14922,5
0.0,0.0,0.0,11403,21208,21584,32173,15028,5
0.0,0.0,0.0,11366,21229,21648,32173,15028,5
0.0,0.0,0.0,11317,21208,21627,32173,15058,5
0.0,0.0,0.0,11304,21105,21648,32173,15089,5
0.0,0.0,0.0,11317,21105,21500,32108,15150,5
0.0,0.0,0.0,11304,21043,21542,31978,15119,5
0.0,0.0,0.0,11219,20879,21500,31849,15089,5
0.0,0.0,0.0,11145,20798,21416,31720,15028,5
0.0,0.0,0.0,11060,20798,21333,31624,14846,5
0.0,0.0,0.0,11012,20798,21291,31497,14756,5
0.0,0.0,0.0,10927,20737,21291,31593,14756,5
0.0,0.0,0.0,10867,20676,21250,31593,14786,5
0.0,0.0,0.0,10795,20716,21208,31402,14876,5
0.0,0.0,0.0,10748,20636,21208,31307,15043,5
0.0,0.0,0.0,10724,20575,21208,31307,15273,5
0.0,0.0,0.0,10700,20636,21167,31276,15227,5
0.0,0.0,0.0,10676,20636,21208,31276,15273,5
0.0,0.0,0.0,10700,20636,21208,31276,15335,5
0.0,0.0,0.0,10676,20716,21229,31339,15381,5
0.0,0.0,0.0,10653,20636,21291,31402,15694,5
0.0,0.0,0.0,10582,20575,21208,31181,15773,5
0.0,0.0,0.0,10641,20595,21208,30994,15805,5
0.0,0.0,0.0,10629,20535,21208,30994,15837,5
0.0,0.0,0.0,10605,20595,21208,30869,15789,5
0.0,0.0,0.0,10605,20535,21167,30715,15900,5
0.0,0.0,0.0,10605,20475,21229,30838,16093,5
0.0,0.0,0.0,10594,20555,21250,30869,16189,5
0.0,0.0,0.0,10594,20495,21270,31056,16222,5
0.0,0.0,0.0,10605,20515,21229,30994,16189,5
0.0,0.0,0.0,10605,20495,21187,30776,16125,5
0.0,0.0,0.0,10605,20636,22313,30745,16173,5
0.0,0.0,0.0,10605,20636,22010,30715,16157,5
0.0,0.0,0.0,10605,20555,21754,31056,16173,5
0.0,0.0,0.0,10594,20636,21711,31150,16189,5
0.0,0.0,0.0,10582,20676,21648,31213,16222,5
0.0,0.0,0.0,10605,21167,21796,31465,16238,5
0.0,0.0,0.0,10629,21500,22140,31276,16254,5
0.0,0.0,0.0,10629,22183,22335,31946,16287,5
0.0,0.0,0.0,10641,22423,22709,32899,16287,5
0.0,0.0,0.0,10653,22687,23067,34130,16385,5
0.0,0.0,0.0,10676,23044,23339,35163,16483,5
0.0,0.0,0.0,10676,23339,23385,36462,16499,5
0.0,0.0,0.0,10700,23569,23661,37386,16549,5
0.0,0.0,0.0,10688,23754,23707,37860,16615,5
0.0,0.0,0.0,10700,24058,23847,38260,16648,5
0.0,0.0,0.0,10724,24318,23917,38748,16698,5
0.0,0.0,0.0,10748,24318,24011,38995,16882,5
0.0,0.0,0.0,10724,24318,23964,39036,16882,5
0.0,0.0,0.0,10724,24247,23940,38830,16882,5
0.0,0.0,0.0,10724,24176,23940,38830,16882,5
0.0,0.0,0.0,10724,24176,23847,38585,16882,5
0.0,0.0,0.0,10748,24081,23894,38666,16932,5
0.0,0.0,0.0,10771,24034,23870,38625,16932,5
0.0,0.0,0.0,10771,24034,23964,38666,17016,5
0.0,0.0,0.0,10771,24129,23940,38789,16966,5
0.0,0.0,0.0,10748,24034,23917,38871,16882,5
0.0,0.0,0.0,10748,24034,23940,38912,16898,5
0.0,0.0,0.0,10748,24058,23870,38625,16949,5
0.0,0.0,0.0,10771,24011,23870,38544,16882,5
0.0,0.0,0.0,10759,23894,23730,38100,16848,5
0.0,0.0,0.0,10771,23777,23477,37940,16865,5
0.0,0.0,0.0,10748,23754,23431,37622,16781,5
0.0,0.0,0.0,10736,23754,23385,37504,16748,5
0.0,0.0,0.0,10748,23684,23339,37426,16815,5
0.0,0.0,0.0,10748,23661,23294,37308,16781,5
0.0,0.0,0.0,10748,23661,23203,36882,17323,5
0.0,0.0,0.0,10724,23569,23203,36614,17289,5
0.0,0.0,0.0,10724,23477,23067,36348,17203,5
0.0,0.0,0.0,10748,23431,23022,36197,17186,5
0.0,0.0,0.0,10700,23294,22932,36197,17050,5
0.0,0.0,0.0,10676,23067,22621,35749,16815,5
0.0,0.0,0.0,10688,22687,22248,35272,16483,5
0.0,0.0,0.0,10771,22313,21882,35018,16352,5
0.0,0.0,0.0,11084,22010,21627,34271,16319,5
0.0,0.0,0.0,11366,21711,21669,33714,16222,5
0.0,0.0,0.0,11528,21648,21648,33714,16238,5
0.0,0.0,0.0,11970,21584,21521,33337,16125,5
0.0,0.0,0.0,12583,21563,21458,33303,16125,5
0.0,0.0,0.0,13013,21542,21375,33100,16125,5
0.0,0.0,0.0,13150,21416,21375,33100,16076,5
0.0,0.0,0.0,13260,21375,21291,33033,16060,5
0.0,0.0,0.0,12824,21333,21250,32999,16076,5
0.0,0.0,0.0,12543,21250,21250,32999,16060,5
0.0,0.0,0.0,12047,21229,21270,33033,16076,5
0.0,0.0,0.0,11317,21312,21291,33033,16076,5
0.0,0.0,0.0,11231,21270,21270,33134,16076,5
0.0,0.0,0.0,11255,21291,21291,33134,15900,5
0.0,0.0,0.0,11157,21354,21291,33371,15584,5
0.0,0.0,0.0,11133,21375,21208,33303,15521,5
0.0,0.0,0.0,11157,21229,21125,33033,15537,5
0.0,0.0,0.0,11206,21167,21084,32966,15537,5
0.0,0.0,0.0,11379,21167,21043,32899,15600,5
0.0,0.0,0.0,11653,21125,21002,32699,15741,5
0.0,0.0,0.0,11453,21084,21043,32765,15773,5
0.0,0.0,0.0,10963,21084,20981,32633,15789,5
0.0,0.0,0.0,11012,21064,21002,32633,15773,5
0.0,0.0,0.0,10963,21064,20981,32699,15837,5
0.0,0.0,0.0,10963,21125,21043,32832,15773,5
0.0,0.0,0.0,10891,21125,21043,32799,15773,5
0.0,0.0,0.0,10891,21084,20961,32699,15710,5
0.0,0.0,0.0,10843,21002,20940,32533,15710,5
0.0,0.0,0.0,10819,21043,20899,32633,15773,5
0.0,0.0,0.0,10795,21002,20920,32599,15773,5
0.0,0.0,0.0,10700,20981,20879,32500,15789,5
0.0,0.0,0.0,10629,20961,20920,32533,15757,5
0.0,0.0,0.0,10605,20981,20899,32500,15773,5
0.0,0.0,0.0,11145,20961,20920,32500,15789,5
0.0,0.0,0.0,11868,20981,20859,32369,15805,5
0.0,0.0,0.0,12477,20961,20879,32336,15773,5
0.0,0.0,0.0,12610,20961,20879,32303,15805,5
0.0,0.0,0.0,12163,20920,20818,32108,15837,5
0.0,0.0,0.0,12060,20961,20818,32173,15805,5
0.0,0.0,0.0,12021,20920,20859,32238,15805,5
0.0,0.0,0.0,12293,20899,20818,32303,15773,5
0.0,0.0,0.0,12346,20899,20818,32238,15773,5
0.0,0.0,0.0,12438,20920,20798,32173,15773,5
0.0,0.0,0.0,12583,20920,20798,32075,15773,5
0.0,0.0,0.0,12530,20920,20777,32173,15789,5
0.0,0.0,0.0,12424,20879,20818,32173,15773,5
0.0,0.0,0.0,12372,20920,20798,32108,15773,5
0.0,0.0,0.0,12228,20879,20798,32173,15805,5
0.0,0.0,0.0,12215,20838,20777,32173,15773,5
0.0,0.0,0.0,12112,20879,20818,32140,15805,5
0.0,0.0,0.0,12124,20879,20798,32173,15805,5
0.0,0.0,0.0,12060,20899,20798,32140,15837,5
0.0,0.0,0.0,12034,20920,20798,32108,15837,5
0.0,0.0,0.0,11970,20961,20798,32108,15868,5
0.0,0.0,0.0,11983,20879,20798,32108,15884,5
0.0,0.0,0.0,11932,20899,20798,32173,15964,5
0.0,0.0,0.0,11957,20940,20737,32108,15916,5
0.0,0.0,0.0,11906,20879,20777,32108,15932,5
0.0,0.0,0.0,11893,20879,20757,32010,15916,5
0.0,0.0,0.0,11868,20879,20737,31978,15948,5
0.0,0.0,0.0,11881,20899,20757,32043,15964,5
0.0,0.0,0.0,11830,20879,20737,31978,15964,5
0.0,0.0,0.0,11830,20879,20696,32010,15964,5
0.0,0.0,0.0,11855,20879,20798,31881,16028,5
0.0,0.0,0.0,11804,20920,20737,31881,16060,5
0.0,0.0,0.0,11842,20920,20798,31849,16060,5
0.0,0.0,0.0,11804,20818,20757,31881,16076,5
0.0,0.0,0.0,11804,20879,20798,31913,16109,5
0.0,0.0,0.0,11804,20879,20757,31849,16093,5
0.0,0.0,0.0,11792,20879,20757,31849,16109,5
0.0,0.0,0.0,11754,20879,20737,31849,16093,5
0.0,0.0,0.0,11754,20899,20757,31849,16093,5
0.0,0.0,0.0,11754,20879,20737,31785,16157,5
0.0,0.0,0.0,11716,20961,20737,31849,16189,5
0.0,0.0,0.0,11754,20818,20757,31817,16189,5
0.0,0.0,0.0,11716,20879,20716,31785,16303,5
0.0,0.0,0.0,11716,20899,20737,31785,16319,5
0.0,0.0,0.0,11728,20879,20737,31785,16287,5
0.0,0.0,0.0,11766,20879,20737,31752,16303,5
0.0,0.0,0.0,11754,20859,20757,31752,16287,5
0.0,0.0,0.0,11716,20879,20716,31688,16303,5
0.0,0.0,0.0,11728,20879,20737,31720,16254,5
0.0,0.0,0.0,11703,20859,20737,31720,16238,5
0.0,0.0,0.0,11703,20879,20716,31720,16238,5
0.0,0.0,0.0,11703,20818,20716,31720,16222,5
0.0,0.0,0.0,11703,20879,20716,31720,16238,5
